sep=,
DeviceTag:,bottom
FirmwareVersion:,2.2.1
AppVersion:,2023.6.0
StartTime: ,2025-04-11_11:49:50_000 PDT
© Movella Technologies B. V. 2005-2025

PacketCounter,SampleTimeFine,Euler_X,Euler_Y,Euler_Z,Acc_X,Acc_Y,Acc_Z,Gyr_X,Gyr_Y,Gyr_Z
0,848402848,-0.32823348045349,0.31969594955444,53.67407989501953,0.00000000000000,0.00000000000000,0.00000000000000,0.00000000000000,0.00000000000000,0.00000000000000
1,848411181,-0.31738176941872,0.33543545007706,53.68123626708984,-0.06566517800093,-0.07658319920301,9.96682929992676,1.29829585552216,1.88352990150452,0.86877077817917
2,848419514,-0.32551473379135,0.36403605341911,53.68124389648438,-0.05378797650337,-0.07108285278082,10.00895786285400,1.31637954711914,2.06877207756042,0.89164429903030
3,848427847,-0.31442373991013,0.38039058446884,53.68874740600586,-0.06959787011147,-0.04896240308881,10.00339603424072,1.32616424560547,1.95896399021149,0.91139292716980
4,848436180,-0.31422734260559,0.40108439326286,53.68000793457031,-0.05600842833519,-0.07272116839886,9.99980926513672,1.31807029247284,2.05235338211060,0.86213678121567
5,848444513,-0.30399700999260,0.41586777567863,53.68691253662109,-0.05722030624747,-0.05970722809434,9.98513793945312,1.22122263908386,1.77044296264648,0.83767515420914
6,848452846,-0.30382192134857,0.42621797323227,53.67555999755859,-0.04137475788593,-0.07084771245718,9.97972583770752,1.34250605106354,1.93106997013092,0.90652620792389
7,848461179,-0.29264935851097,0.44283035397530,53.68218612670898,-0.07006739825010,-0.07422015815973,10.04557991027832,1.33454000949860,1.99000835418701,0.80647695064545
8,848469512,-0.29404291510582,0.44864717125893,53.66528320312500,-0.06724896281958,-0.05404182896018,9.99060916900635,1.37705957889557,1.91290915012360,0.83119469881058
9,848477845,-0.28297764062881,0.46520590782166,53.67233657836914,-0.05726990103722,-0.08325009047985,9.98707199096680,1.32132315635681,1.98350250720978,0.85724443197250
10,848486178,-0.28298607468605,0.47272118926048,53.65623092651367,-0.03451365604997,-0.05021952837706,10.01089763641357,1.39186465740204,2.10153293609619,0.88672643899918
11,848494511,-0.27152130007744,0.48812744021416,53.66295242309570,-0.05235661566257,-0.06263969838619,10.02003002166748,1.36881208419800,1.84408402442932,0.81656903028488
12,848502844,-0.26757869124413,0.48951020836830,53.64442825317383,-0.04388613253832,-0.06074124202132,9.99627780914307,1.44237589836121,1.83921754360199,0.89873945713043
13,848511177,-0.25683245062828,0.50553894042969,53.65182113647461,-0.04495022445917,-0.06963717937469,10.01828479766846,1.28187716007233,1.91972291469574,0.89656221866608
14,848519510,-0.25289845466614,0.50792771577835,53.64065551757812,-0.05304429680109,-0.07337800413370,9.99447441101074,1.41317570209503,2.09825396537781,0.90803736448288
15,848527843,-0.24078243970871,0.52376109361649,53.64842605590820,-0.03421258926392,-0.06571707874537,10.01289463043213,1.44562911987305,1.89664447307587,0.94131034612656
16,848536176,-0.23827444016933,0.52341765165329,53.63486480712891,-0.05357564613223,-0.08739634603262,10.00191593170166,1.28502774238586,1.81806015968323,0.88854509592056
17,848544509,-0.22767552733421,0.53892928361893,53.64213943481445,-0.03605908900499,-0.07095819711685,10.00197982788086,1.26543295383453,1.85742914676666,0.88185977935791
18,848552842,-0.22575493156910,0.53904873132706,53.63290405273438,-0.06617805361748,-0.07265322655439,10.00181961059570,1.36194717884064,1.82787024974823,0.91992253065109
19,848561175,-0.21479482948780,0.55553519725800,53.64011764526367,-0.03240578249097,-0.06342378258705,10.02582168579102,1.30825996398926,1.97538268566132,0.87350946664810
20,848569508,-0.21357184648514,0.55720943212509,53.62156677246094,-0.04433250799775,-0.05793230980635,10.00560188293457,1.21463990211487,1.92476904392242,0.89625495672226
21,848577841,-0.20283837616444,0.57330089807510,53.62831878662109,-0.07086092233658,-0.07077597081661,9.98902797698975,1.28051972389221,1.92771458625793,0.81782412528992
22,848586174,-0.20074227452278,0.57655769586563,53.61110687255859,-0.04086029902101,-0.05977256596088,10.01300716400146,1.24928307533264,1.96727597713470,0.85861480236053
23,848594507,-0.19001816213131,0.59069144725800,53.61865997314453,-0.05288595333695,-0.07978421449661,10.00391674041748,1.27808630466461,1.69357478618622,0.91349321603775
24,848602840,-0.18686610460281,0.59351915121078,53.60197067260742,-0.05519194528461,-0.06708304584026,9.99286556243896,1.35720860958099,1.87861216068268,0.89033794403076
25,848611173,-0.17573311924934,0.60834395885468,53.60888671875000,-0.04122840985656,-0.06344473361969,9.96185874938965,1.32775235176086,1.77687239646912,0.83808505535126
26,848619506,-0.17218849062920,0.61327427625656,53.59827804565430,-0.03862389549613,-0.07429385930300,10.00226497650146,1.36244678497314,2.09509086608887,0.92088294029236
27,848627839,-0.16086946427822,0.63045716285706,53.60654830932617,-0.04344456642866,-0.07050125300884,9.99675750732422,1.34727036952972,2.06090855598450,0.99960833787918
28,848636172,-0.15880554914474,0.63403987884521,53.59135437011719,-0.03763291239738,-0.06473512947559,10.01878070831299,1.18856465816498,1.93301677703857,0.87307405471802
29,848644505,-0.14787466824055,0.65131783485413,53.59817123413086,-0.03653986752033,-0.08335940539837,9.99148750305176,1.30218923091888,2.07194805145264,0.82561087608337
30,848652838,-0.14409366250038,0.65523153543472,53.58629226684570,-0.05624121427536,-0.06094748154283,10.02597427368164,1.40013813972473,1.98498809337616,0.86900138854980
31,848661171,-0.13275703787804,0.67193084955215,53.59279632568359,-0.06250655651093,-0.04260817542672,9.99837589263916,1.35303354263306,2.00450611114502,0.79003268480301
32,848669504,-0.12848715484142,0.67675709724426,53.57965850830078,-0.04522362723947,-0.04442574456334,9.99675464630127,1.37194955348969,2.00500535964966,0.94255256652832
33,848677837,-0.11717780679464,0.69277304410934,53.58712387084961,-0.04277116805315,-0.07358578592539,9.98971176147461,1.34735989570618,1.92132365703583,0.90177464485168
34,848686170,-0.11237733066082,0.69809544086456,53.57114791870117,-0.05668931454420,-0.06230985745788,10.00967216491699,1.39539957046509,2.05550408363342,0.87363749742508
35,848694503,-0.10179523378611,0.71413558721542,53.57900238037109,-0.05079987645149,-0.07669880986214,10.02086925506592,1.26018190383911,1.92499935626984,0.95045453310013
36,848702836,-0.09779520332813,0.71774363517761,53.56648635864258,-0.05894333124161,-0.06199587136507,10.01156139373779,1.30439233779907,1.80668735504150,0.90854972600937
37,848711169,-0.08688066154718,0.73366326093674,53.57362365722656,-0.05212406069040,-0.07141630351543,9.98061943054199,1.30001211166382,1.90983593463898,0.86221355199814
38,848719502,-0.08349142968655,0.73799782991409,53.56129074096680,-0.05152249708772,-0.08040191978216,9.99539756774902,1.22926557064056,1.85271596908569,0.88334530591965
39,848727835,-0.07220921665430,0.75377291440964,53.56836700439453,-0.05450513958931,-0.06918602436781,10.02644729614258,1.34429907798767,1.89323794841766,0.85762870311737
40,848736168,-0.06756825745106,0.75824302434921,53.55763626098633,-0.04797190427780,-0.06362368911505,10.01920890808105,1.39335036277771,1.84229111671448,0.85819220542908
41,848744501,-0.05648508295417,0.77358055114746,53.56507492065430,-0.04484121501446,-0.07109646499157,9.98639297485352,1.31929957866669,1.84272658824921,0.89866262674332
42,848752834,-0.05235511437058,0.77927017211914,53.55218505859375,-0.04970993846655,-0.08368552476168,10.00848102569580,1.32639479637146,1.97868704795837,0.87842744588852
43,848761167,-0.04173238202929,0.79639297723770,53.55912399291992,-0.05814586579800,-0.06704736500978,10.01560020446777,1.26462590694427,2.05738639831543,0.83996748924255
44,848769500,-0.03799041360617,0.80172002315521,53.54735183715820,-0.05578775331378,-0.07425820827484,10.02125358581543,1.29018890857697,1.91317832469940,0.86706745624542
45,848777833,-0.02620071358979,0.81777858734131,53.55461883544922,-0.06222157925367,-0.08332229405642,10.01946640014648,1.40490221977234,1.92922580242157,0.87924712896347
46,848786166,-0.02154212631285,0.82422554492950,53.54196929931641,-0.02626355737448,-0.08728691935539,9.99626731872559,1.41498136520386,2.02114248275757,0.89360380172729
47,848794499,-0.01036389451474,0.84116381406784,53.54961013793945,-0.05833682417870,-0.06499893218279,9.99016094207764,1.32954525947571,2.03629326820374,0.92407190799713
48,848802832,-0.00652370182797,0.84666812419891,53.53567123413086,-0.06729398667812,-0.07365353405476,10.01581668853760,1.32484495639801,1.91130876541138,0.83945530653000
49,848811165,0.00545473489910,0.86307621002197,53.54280471801758,-0.06798000633717,-0.08109969645739,9.99761390686035,1.42648243904114,1.97337210178375,0.86448049545288
50,848819498,0.00892117246985,0.87002140283585,53.52930068969727,-0.06836394965649,-0.08696258813143,9.94829368591309,1.28541207313538,2.04951024055481,0.90888279676437
51,848827831,0.01995402015746,0.88540434837341,53.53706359863281,-0.06331662833691,-0.06587266921997,10.02879142761230,1.31233263015747,1.84956550598145,0.93964546918869
52,848836164,0.02337218262255,0.89212316274643,53.52287673950195,-0.05663757398725,-0.07161806523800,10.00887107849121,1.28087830543518,1.99505472183228,0.84356647729874
53,848844497,0.03473006188869,0.90850651264191,53.53065872192383,-0.06505424529314,-0.08067688345909,10.00890064239502,1.35211145877838,1.97074651718140,0.94264233112335
54,848852830,0.03876441717148,0.91407161951065,53.51694488525391,-0.04707743227482,-0.08113034069538,9.96349048614502,1.35691416263580,1.84099769592285,0.90077579021454
55,848861163,0.04967410862446,0.92798358201981,53.52383804321289,-0.05619091913104,-0.07472574710846,10.01644325256348,1.29942286014557,1.67528629302979,0.83731645345688
56,848869496,0.05279444158077,0.93417477607727,53.50999450683594,-0.03635562211275,-0.05680377408862,10.00564002990723,1.25153708457947,1.91622650623322,0.79288864135742
57,848877829,0.06363207101822,0.94949001073837,53.51746368408203,-0.05927040800452,-0.05661321803927,10.00531578063965,1.28965127468109,1.84455811977386,0.90349090099335
58,848886162,0.06774768978357,0.95756715536118,53.50457382202148,-0.04960938915610,-0.06749930977821,10.03131866455078,1.34465754032135,2.14620351791382,0.93818527460098
59,848894495,0.07907141000032,0.97410923242569,53.51150512695312,-0.06560350954533,-0.05980499461293,10.03285217285156,1.34981894493103,1.99150645732880,0.84086394309998
60,848902828,0.08210600167513,0.98148548603058,53.49628067016602,-0.05372865125537,-0.05080503225327,10.02570056915283,1.20401000976562,2.05616998672485,0.85878127813339
61,848911161,0.09269729256630,0.99801307916641,53.50358963012695,-0.05134881287813,-0.07656729966402,10.02063941955566,1.26084792613983,1.99054634571075,0.88923662900925
62,848919494,0.09647956490517,1.00390517711639,53.48765945434570,-0.06137694045901,-0.08209805935621,10.00595474243164,1.28342700004578,1.87726747989655,0.87869638204575
63,848927827,0.10757239907980,1.01849949359894,53.49497604370117,-0.07294938713312,-0.06923917680979,9.99464988708496,1.32050347328186,1.75914716720581,0.88800704479218
64,848936160,0.11219692975283,1.02639281749725,53.48074340820312,-0.06622692942619,-0.05470522120595,9.99648761749268,1.38800966739655,2.10287737846375,0.84706270694733
65,848944493,0.12377291172743,1.04247319698334,53.48823928833008,-0.02768890559673,-0.07658502459526,10.01226711273193,1.37848126888275,1.93938183784485,0.91038119792938
66,848952826,0.12818004190922,1.04875850677490,53.47279357910156,-0.03945634141564,-0.07281374931335,9.99925422668457,1.35610723495483,1.91603457927704,0.83977556228638
67,848961159,0.14001883566380,1.06450223922729,53.47917556762695,-0.04039054363966,-0.07267542928457,9.99748802185059,1.41240727901459,1.89897537231445,0.77817314863205
68,848969492,0.14429105818272,1.07023668289185,53.46504974365234,-0.06133739650249,-0.06134389340878,9.99515914916992,1.33888185024261,1.86248803138733,0.89903414249420
69,848977825,0.15498046576977,1.08506035804749,53.47210693359375,-0.03920157626271,-0.06647367030382,10.02691459655762,1.27174675464630,1.79038369655609,0.85951125621796
70,848986158,0.15878911316395,1.09144008159637,53.45887374877930,-0.04897164553404,-0.08132530003786,10.01234340667725,1.27724111080170,1.94126462936401,0.87158846855164
71,848994491,0.16972458362579,1.10821914672852,53.46614456176758,-0.05297758057714,-0.06701042503119,9.98832035064697,1.30207419395447,2.02490782737732,0.88766139745712
72,849002824,0.17457450926304,1.11366117000580,53.45314025878906,-0.04868238419294,-0.07235183566809,9.99042701721191,1.40436446666718,1.83094406127930,0.88851946592331
73,849011157,0.18470604717731,1.12910282611847,53.45993804931641,-0.04884778335690,-0.10469877719879,10.02214431762695,1.20847952365875,1.86592018604279,0.83038783073425
74,849019490,0.18836782872677,1.13646996021271,53.44549942016602,-0.04751141741872,-0.07379619777203,10.01995277404785,1.27523040771484,2.06548070907593,0.81650501489639
75,849027823,0.19992913305759,1.15218448638916,53.45266723632812,-0.07554709911346,-0.06459424644709,9.99729537963867,1.37863504886627,1.89985918998718,0.87631428241730
76,849036156,0.20451018214226,1.15996789932251,53.43838882446289,-0.06401532143354,-0.04967705532908,10.01938343048096,1.38142704963684,2.10963964462280,0.86816895008087
77,849044489,0.21552957594395,1.17599546909332,53.44468688964844,-0.05230157822371,-0.07368684560061,9.99815845489502,1.31608510017395,1.93871593475342,0.77201300859451
78,849052822,0.21970796585083,1.18354189395905,53.43108749389648,-0.05853579938412,-0.06827417761087,9.99068832397461,1.32943022251129,2.08000421524048,0.81696605682373
79,849061155,0.23047117888927,1.20058441162109,53.43890380859375,-0.05654646828771,-0.07161842286587,10.00919437408447,1.28013539314270,2.06167674064636,0.95424550771713
80,849069488,0.23413103818893,1.20700216293335,53.42464447021484,-0.04125791043043,-0.07174475491047,10.00600719451904,1.26622676849365,1.94433796405792,0.83206558227539
81,849077821,0.24510870873928,1.22261559963226,53.43157196044922,-0.04572596400976,-0.06257916986942,10.00217819213867,1.31004011631012,1.89184176921844,0.84944492578506
82,849086154,0.24972796440125,1.22914433479309,53.41879653930664,-0.04807041212916,-0.06279125064611,9.98573398590088,1.37945461273193,1.96512401103973,0.83494716882706
83,849094487,0.26057073473930,1.24481868743896,53.42569732666016,-0.05867443978786,-0.08073472231627,9.99139118194580,1.29372382164001,1.90008974075317,0.84588456153870
84,849102820,0.26520580053329,1.25161850452423,53.41277313232422,-0.03797945752740,-0.04196574166417,10.02430057525635,1.38288712501526,2.00285387039185,0.84286212921143
85,849111153,0.27628785371780,1.26618385314941,53.41925048828125,-0.05429568886757,-0.09099748730659,10.02119255065918,1.32303941249847,1.76834273338318,0.79986852407455
86,849119486,0.28002777695656,1.27248489856720,53.40443038940430,-0.06551214307547,-0.08021586388350,10.00432872772217,1.27462840080261,1.94753992557526,0.82064163684845
87,849127819,0.29126924276352,1.28798079490662,53.41159057617188,-0.06618200242519,-0.05822333693504,10.00219631195068,1.34230124950409,1.88212144374847,0.88439559936523
88,849136152,0.29582491517067,1.29481554031372,53.39759445190430,-0.06668978929520,-0.07138750702143,9.98052406311035,1.37303817272186,2.00952625274658,0.84758788347244
89,849144485,0.30695962905884,1.31291091442108,53.40501785278320,-0.03890478238463,-0.06955480575562,9.99782276153564,1.32905864715576,2.19563937187195,0.91088056564331
90,849152818,0.31149446964264,1.32046890258789,53.39178085327148,-0.07690099626780,-0.07637196779251,9.99339103698730,1.36999011039734,2.09997010231018,0.87297147512436
91,849161151,0.32213249802589,1.33593261241913,53.39872360229492,-0.06378605216742,-0.06325007230043,10.00644493103027,1.27215647697449,1.88072502613068,0.85730838775635
92,849169484,0.32533073425293,1.34257042407990,53.38470840454102,-0.07334577292204,-0.04696598276496,9.99315261840820,1.21229612827301,1.98587179183960,0.84237539768219
93,849177817,0.33600276708603,1.35845327377319,53.39135742187500,-0.04992053657770,-0.08161615580320,10.02021121978760,1.27781748771667,1.93285024166107,0.82413804531097
94,849186150,0.34036535024643,1.36537027359009,53.37871170043945,-0.03876081481576,-0.08069260418415,9.98030662536621,1.35189378261566,2.02278184890747,0.84560281038284
95,849194483,0.35143822431564,1.38017189502716,53.38581848144531,-0.04895365983248,-0.05830003321171,9.98520374298096,1.32376945018768,1.80362653732300,0.88174450397491
96,849202816,0.35494020581245,1.38616836071014,53.37080001831055,-0.05436815321445,-0.06502135097980,10.01277732849121,1.25371444225311,1.92119586467743,0.78615218400955
97,849211149,0.36618903279305,1.40237736701965,53.37758636474609,-0.04443347081542,-0.07434926182032,10.01335144042969,1.34674537181854,1.97524189949036,0.84106910228729
98,849219482,0.36985310912132,1.40833508968353,53.36417007446289,-0.06532859802246,-0.05205125361681,10.01060009002686,1.27204132080078,1.92530679702759,0.88475406169891
99,849227815,0.38026699423790,1.42496097087860,53.37074661254883,-0.05735104903579,-0.06319171190262,10.01115989685059,1.24906539916992,2.02645754814148,0.81779849529266
100,849236148,0.38484993577003,1.43159162998199,53.35636901855469,-0.02566140517592,-0.07272884994745,10.01424217224121,1.38132452964783,2.00789976119995,0.84785681962967
101,849244481,0.39489981532097,1.44749164581299,53.36259460449219,-0.04836885258555,-0.06709458678961,9.99892997741699,1.20640492439270,1.94114935398102,0.78036326169968
102,849252814,0.39884433150291,1.45486831665039,53.34903335571289,-0.04471782594919,-0.05498169362545,9.97508239746094,1.30793976783752,2.11184263229370,0.86701631546021
103,849261147,0.40963676571846,1.47186577320099,53.35575866699219,-0.06631301343441,-0.07732420414686,10.02999305725098,1.29500448703766,2.07559847831726,0.83932733535767
104,849269480,0.41344109177589,1.47832226753235,53.34234619140625,-0.06044742092490,-0.06180113181472,9.98599624633789,1.29095745086670,2.00810456275940,0.96458077430725
105,849277813,0.42421534657478,1.49393558502197,53.34866333007812,-0.05329175665975,-0.05756505578756,10.01374244689941,1.29459464550018,1.90956676006317,0.79516828060150
106,849286146,0.42735001444817,1.50040793418884,53.33583450317383,-0.05407433584332,-0.05960840731859,10.00656032562256,1.21406352519989,2.01566123962402,0.85508006811142
107,849294479,0.43862232565880,1.51755070686340,53.34255981445312,-0.05754401907325,-0.07589600980282,10.01792049407959,1.35416054725647,2.09653782844543,0.84331035614014
108,849302812,0.44321104884148,1.52265286445618,53.32941436767578,-0.06777625530958,-0.07008700817823,10.01393699645996,1.39388823509216,1.85658395290375,0.81700450181961
109,849311145,0.45454156398773,1.53851306438446,53.33604812622070,-0.05958789587021,-0.07746058702469,10.01265716552734,1.36142230033875,1.94558048248291,0.83686828613281
110,849319478,0.45844984054565,1.54319572448730,53.32346343994141,-0.05483035743237,-0.07204487919807,10.00550365447998,1.31470191478729,1.81248915195465,0.92774772644043
111,849327811,0.46894365549088,1.55846130847931,53.33054733276367,-0.03834778815508,-0.06238575652242,10.03893852233887,1.26162922382355,1.87480819225311,0.89339888095856
112,849336144,0.47236195206642,1.56394314765930,53.31739044189453,-0.05078334361315,-0.06929872184992,10.05163955688477,1.26142418384552,1.92111873626709,0.92731207609177
113,849344477,0.48363304138184,1.57916498184204,53.32371520996094,-0.03935889527202,-0.07408062368631,10.00645732879639,1.35815632343292,1.87149131298065,0.80486321449280
114,849352810,0.48806190490723,1.58592379093170,53.31002044677734,-0.04737377911806,-0.07964508980513,9.99911022186279,1.38803541660309,2.08361554145813,0.88005393743515
115,849361143,0.49860551953316,1.60235893726349,53.31698608398438,-0.04495798423886,-0.05552115663886,10.00794887542725,1.27110648155212,2.02060461044312,0.88205188512802
116,849369476,0.50247287750244,1.60836935043335,53.30370712280273,-0.05400459840894,-0.07346657663584,10.01737213134766,1.32545995712280,2.00521039962769,0.86186772584915
117,849377809,0.51477879285812,1.62429678440094,53.31074142456055,-0.07106892019510,-0.08080157637596,10.00059604644775,1.48362779617310,1.96340787410736,0.89291220903397
118,849386142,0.51931041479111,1.63066387176514,53.29842758178711,-0.05072427913547,-0.06139789521694,9.97349452972412,1.41044783592224,2.05531191825867,0.99552291631699
119,849394475,0.53104603290558,1.64706826210022,53.30482864379883,-0.05173632130027,-0.08042339235544,10.01073360443115,1.41654396057129,2.02203893661499,0.81896394491196
120,849402808,0.53556883335114,1.65378403663635,53.29187774658203,-0.04913751408458,-0.07113519310951,10.01257801055908,1.41938734054565,2.10641241073608,0.88192379474640
121,849411141,0.54573225975037,1.67006254196167,53.29918289184570,-0.05091113969684,-0.06880056113005,10.02545261383057,1.22756230831146,2.01015424728394,0.93051403760910
122,849419474,0.54945456981659,1.67512047290802,53.28576278686523,-0.04967015981674,-0.05990924686193,10.01442241668701,1.32964789867401,1.91997921466827,0.86457014083862
123,849427807,0.56066381931305,1.69022059440613,53.29307556152344,-0.04914505407214,-0.05961278453469,10.02375030517578,1.35430145263672,1.86983895301819,0.93287044763565
124,849436140,0.56483834981918,1.69550657272339,53.28026199340820,-0.05718586966395,-0.07620160281658,10.01119804382324,1.38688278198242,1.95923268795013,0.89465391635895
125,849444473,0.57525408267975,1.71037983894348,53.28669738769531,-0.06581108272076,-0.07949135452509,10.01294231414795,1.26247441768646,1.84635078907013,0.83146369457245
126,849452806,0.57852625846863,1.71496748924255,53.27278518676758,-0.05816526710987,-0.06255630403757,10.03677463531494,1.29175162315369,1.88149368762970,0.77419024705887
127,849461139,0.58991789817810,1.73070991039276,53.27952194213867,-0.05543425679207,-0.06011029705405,9.99112606048584,1.38073539733887,1.95416116714478,0.87170368432999
128,849469472,0.59306806325912,1.73586535453796,53.26576995849609,-0.03906308114529,-0.07083169370890,10.00868129730225,1.28217172622681,1.96056485176086,0.79596233367920
129,849477805,0.60386860370636,1.75110971927643,53.27299118041992,-0.05604550242424,-0.05419791117311,10.00225448608398,1.30855453014374,1.89650368690491,0.93174344301224
130,849486138,0.60773980617523,1.75514495372772,53.25996017456055,-0.05977489054203,-0.05896874889731,10.02439308166504,1.37197542190552,1.84081840515137,0.85169899463654
131,849494471,0.61963623762131,1.77202033996582,53.26706695556641,-0.06709754467010,-0.08903578668833,9.99021816253662,1.44338798522949,2.09524440765381,0.91862899065018
132,849502804,0.62319236993790,1.77838027477264,53.25381469726562,-0.05706288293004,-0.07259940356016,9.98850059509277,1.34264695644379,2.13015675544739,0.88504874706268
133,849511137,0.63402915000916,1.79514539241791,53.26042175292969,-0.04415049403906,-0.07801562547684,9.99666404724121,1.31977343559265,2.08410215377808,0.86063826084137
134,849519470,0.63707542419434,1.79875099658966,53.24733734130859,-0.04828132316470,-0.05978931114078,9.98334312438965,1.29162347316742,1.81182277202606,0.83581811189651
135,849527803,0.64787298440933,1.81553030014038,53.25390243530273,-0.05433993041515,-0.05687915161252,10.02533721923828,1.31658446788788,2.08903312683105,0.85883253812790
136,849536136,0.65112841129303,1.81958997249603,53.24159622192383,-0.05858696624637,-0.08120889216661,9.99850940704346,1.31731450557709,1.88077628612518,0.97813081741333
137,849544469,0.66237628459930,1.83592414855957,53.24814224243164,-0.05422508716583,-0.05892162024975,10.01288223266602,1.37192392349243,2.03940534591675,0.86061263084412
138,849552802,0.66588497161865,1.84079027175903,53.23470687866211,-0.05034951120615,-0.07338172197342,10.01729202270508,1.36175525188446,1.98856115341187,0.85456776618958
139,849561135,0.67744767665863,1.85801124572754,53.24147033691406,-0.04249027371407,-0.07333996146917,10.02328014373779,1.41005074977875,2.14932894706726,0.88939028978348
140,849569468,0.67995536327362,1.86110591888428,53.22771453857422,-0.05593983083963,-0.06406530737877,10.00616836547852,1.25192141532898,1.78941059112549,0.84526979923248
141,849577801,0.68989992141724,1.87592124938965,53.23435211181641,-0.03293770179152,-0.06276535242796,10.00722885131836,1.21903276443481,1.86402475833893,0.88125771284103
142,849586134,0.69279694557190,1.88074231147766,53.22237777709961,-0.03001685068011,-0.08529801666737,9.99532222747803,1.30381584167480,2.01596856117249,0.89567869901657
143,849594467,0.70258843898773,1.89716899394989,53.22869110107422,-0.05735334381461,-0.06779143959284,10.01403522491455,1.20368981361389,2.05876994132996,0.84047996997833
144,849602800,0.70474004745483,1.90105533599854,53.21607589721680,-0.05873046815395,-0.08440286666155,10.01096725463867,1.22592294216156,1.91986393928528,0.89050441980362
145,849611133,0.71558576822281,1.91738438606262,53.22272109985352,-0.06895773857832,-0.07126695662737,10.01948451995850,1.33227312564850,2.05162310600281,0.88428020477295
146,849619466,0.71836340427399,1.92036080360413,53.21059799194336,-0.04493219032884,-0.07686851918697,10.02635765075684,1.31137216091156,1.82270896434784,0.91665667295456
147,849627799,0.72950446605682,1.93644082546234,53.21726989746094,-0.05176471918821,-0.06654863804579,10.00024604797363,1.36797952651978,2.02516365051270,0.89199006557465
148,849636132,0.73288404941559,1.94076967239380,53.20494079589844,-0.04816323518753,-0.08081878721714,10.01201438903809,1.39277398586273,2.00116348266602,0.94700956344604
149,849644465,0.74391299486160,1.95521259307861,53.21072769165039,-0.05074496194720,-0.05670039728284,10.01136875152588,1.36172962188721,1.83356940746307,0.79301679134369
150,849652798,0.74682646989822,1.95977020263672,53.19898223876953,-0.06276200711727,-0.06194319203496,10.01301193237305,1.34963977336884,2.04263281822205,0.83884054422379
151,849661131,0.75746721029282,1.97516798973083,53.20552062988281,-0.05727386102080,-0.06520544737577,10.02637386322021,1.31336987018585,1.95180475711823,0.88205176591873
152,849669464,0.76021289825439,1.98029720783234,53.19292831420898,-0.05587416887283,-0.06754011660814,10.01201820373535,1.33803641796112,2.12705731391907,0.88325566053391
153,849677797,0.77008086442947,1.99603855609894,53.19926071166992,-0.04445927962661,-0.07139056921005,10.01100444793701,1.22407877445221,1.99504172801971,0.85974186658859
154,849686130,0.77271848917007,1.99709296226501,53.18575668334961,-0.05222052708268,-0.05174404010177,10.04508686065674,1.33726811408997,1.65432107448578,0.85436284542084
155,849694463,0.78311407566071,2.01364326477051,53.19168853759766,-0.05378516390920,-0.08961533755064,10.00966739654541,1.29013776779175,2.09703755378723,0.81535232067108
156,849702796,0.78671056032181,2.01709103584290,53.17913436889648,-0.04551644623280,-0.07503929734230,10.00978374481201,1.46244454383850,1.95872044563293,0.89357817173004
157,849711129,0.79803460836411,2.03315305709839,53.18560028076172,-0.03785996884108,-0.06544357538223,10.02287197113037,1.40289175510406,2.04283785820007,0.88269209861755
158,849719462,0.79963952302933,2.03740501403809,53.17199325561523,-0.03925683349371,-0.07823187112808,10.01975345611572,1.23598921298981,2.07290863990784,0.80787289142609
159,849727795,0.81095236539841,2.05174756050110,53.17845916748047,-0.06180911511183,-0.05209025368094,10.01807498931885,1.40391623973846,1.84120237827301,0.88922381401062
160,849736128,0.81405502557755,2.05593228340149,53.16632843017578,-0.07500533014536,-0.08180990070105,9.99475097656250,1.42384409904480,2.08417916297913,0.91701531410217
161,849744461,0.82445675134659,2.07129478454590,53.17314529418945,-0.05417595803738,-0.07288035750389,9.99564647674561,1.29592669010162,1.96771109104156,0.93389511108398
162,849752794,0.82644611597061,2.07418060302734,53.15882110595703,-0.06815497577190,-0.06942471116781,10.03542995452881,1.30827271938324,1.94002199172974,0.74767953157425
163,849761127,0.83705204725266,2.08935904502869,53.16493606567383,-0.06958495080471,-0.08149005472660,10.00109577178955,1.32551121711731,1.94975566864014,0.85454213619232
164,849769460,0.83878219127655,2.09196376800537,53.15056991577148,-0.06125924736261,-0.06134237349033,10.00469970703125,1.28834486007690,1.92173373699188,0.81968116760254
165,849777793,0.84890866279602,2.10743832588196,53.15654373168945,-0.05894807353616,-0.06864957511425,10.00889301300049,1.27051723003387,1.98950886726379,0.84106898307800
166,849786126,0.85003137588501,2.10961031913757,53.14341354370117,-0.05176255851984,-0.06763252615929,9.98923778533936,1.22374570369720,1.88930594921112,0.89900839328766
167,849794459,0.86069577932358,2.12391042709351,53.14992141723633,-0.04670316725969,-0.08360221982002,10.01038265228271,1.33621776103973,1.85385572910309,0.91217410564423
168,849802792,0.86206692457199,2.12453293800354,53.13570785522461,-0.04947853460908,-0.06421654671431,9.98045444488525,1.27156734466553,1.72009837627411,0.81443017721176
169,849811125,0.87214136123657,2.13928246498108,53.14160156250000,-0.04587576165795,-0.07728141546249,10.03628253936768,1.26974880695343,1.91082191467285,0.84071040153503
170,849819458,0.87336075305939,2.14067602157593,53.12817001342773,-0.03257473930717,-0.06556563824415,10.01107120513916,1.26705944538116,1.83280098438263,0.78128540515900
171,849827791,0.88410162925720,2.15541529655457,53.13410949707031,-0.06003666669130,-0.07177572697401,10.02845668792725,1.35317444801331,1.91499698162079,0.85090488195419
172,849836124,0.88652211427689,2.15836620330811,53.12183380126953,-0.04572606086731,-0.08114637434483,9.97649383544922,1.41738939285278,2.04140305519104,0.89793264865875
173,849844457,0.89662122726440,2.17416119575500,53.12749099731445,-0.05229846388102,-0.06053968891501,9.98117542266846,1.28165948390961,2.04483580589294,0.81737589836121
174,849852790,0.89897650480270,2.17561364173889,53.11360549926758,-0.07080648094416,-0.06562635302544,10.03200340270996,1.42599570751190,1.88072526454926,0.81074178218842
175,849861123,0.90928375720978,2.18897604942322,53.12005233764648,-0.07282064110041,-0.07273925095797,9.97732734680176,1.30530154705048,1.75941634178162,0.92295783758163
176,849869456,0.91212600469589,2.19149661064148,53.10700225830078,-0.07323296368122,-0.05500130355358,10.01538562774658,1.49687027931213,2.02685451507568,0.86417305469513
177,849877789,0.92255908250809,2.20581841468811,53.11250686645508,-0.06042973697186,-0.07998804748058,9.98046875000000,1.32761132717133,1.87690842151642,0.80830842256546
178,849886122,0.92307448387146,2.20656323432922,53.09846115112305,-0.04194728285074,-0.04274879768491,10.00964355468750,1.23145532608032,1.83080303668976,0.82795447111130
179,849894455,0.93386125564575,2.22040057182312,53.10449981689453,-0.07162878662348,-0.05912701040506,9.99421310424805,1.37112998962402,1.82521903514862,0.88089913129807
180,849902788,0.93495845794678,2.22130227088928,53.09088516235352,-0.06317766010761,-0.06684044748545,9.98779869079590,1.30837512016296,1.86922454833984,0.91622120141983
181,849911121,0.94565784931183,2.23711848258972,53.09743881225586,-0.04035051539540,-0.06180639564991,9.99267864227295,1.36090993881226,2.07083415985107,0.94188672304153
182,849919454,0.94622397422791,2.23915171623230,53.08402633666992,-0.03682447969913,-0.08246430009604,10.03055477142334,1.26174437999725,2.02399826049805,0.82527786493301
183,849927787,0.95638847351074,2.25385332107544,53.09050369262695,-0.04479104280472,-0.05595098435879,9.99819374084473,1.29876983165741,1.94035518169403,0.93929958343506
184,849936120,0.95755815505981,2.25509667396545,53.07728958129883,-0.07734548300505,-0.05302323028445,10.00574207305908,1.34641230106354,1.95346999168396,0.88130903244019
185,849944453,0.96806108951569,2.26959753036499,53.08306121826172,-0.04796692728996,-0.05876547098160,10.01691913604736,1.34823095798492,1.92029941082001,0.85899907350540
186,849952786,0.96888923645020,2.27087259292603,53.06972885131836,-0.03834214806557,-0.06556547433138,9.98672294616699,1.31872344017029,1.97575414180756,0.82278048992157
187,849961119,0.97870516777039,2.28491258621216,53.07500839233398,-0.05747633054852,-0.05533049628139,10.05159378051758,1.27036356925964,1.86937797069550,0.80533713102341
188,849969452,0.97983419895172,2.28577256202698,53.06261825561523,-0.04174378886819,-0.07385792583227,10.00931835174561,1.36480331420898,1.94929456710815,0.92785012722015
189,849977785,0.99004423618317,2.29986953735352,53.06855392456055,-0.07409900426865,-0.05981185659766,10.01643085479736,1.31913304328918,1.88513076305389,0.88842970132828
190,849986118,0.99045246839523,2.30229687690735,53.05551528930664,-0.05611813440919,-0.08189218491316,10.02947902679443,1.29583692550659,2.15685939788818,0.84331035614014
191,849994451,1.00074124336243,2.31660461425781,53.06118774414062,-0.04614973068237,-0.08349722623825,9.98996257781982,1.33169698715210,1.91403651237488,0.86200875043869
192,850002784,1.00117933750153,2.31834053993225,53.04809570312500,-0.07364176958799,-0.06553699076176,10.01183795928955,1.31964528560638,2.09488558769226,0.78774011135101
193,850011117,1.01242399215698,2.33422756195068,53.05419921875000,-0.03318244963884,-0.07487967610359,9.98531341552734,1.44751179218292,2.10881996154785,0.91409522294998
194,850019450,1.01197755336761,2.33449697494507,53.04093933105469,-0.08344597369432,-0.05579856410623,10.01323032379150,1.22520577907562,1.94348013401031,0.87162685394287
195,850027783,1.02251636981964,2.34948873519897,53.04689788818359,-0.01798429898918,-0.08334931731224,9.96313571929932,1.36785149574280,2.00792551040649,0.90231269598007
196,850036116,1.02285969257355,2.34993982315063,53.03272628784180,-0.06229303032160,-0.04358285292983,10.06027698516846,1.33632028102875,1.98597419261932,0.84772878885269
197,850044449,1.03260350227356,2.36328363418579,53.03821945190430,-0.04645454511046,-0.08830362558365,10.00077056884766,1.27822709083557,1.81622838973999,0.85428589582443
198,850052782,1.03259527683258,2.36186528205872,53.02499389648438,-0.05486658588052,-0.06621471792459,10.04553127288818,1.30869531631470,1.78486406803131,0.86398088932037
199,850061115,1.04212152957916,2.37458896636963,53.03080749511719,-0.04767655581236,-0.06560388952494,9.97088432312012,1.25307393074036,1.74689078330994,0.89921331405640
200,850069448,1.04113554954529,2.37409400939941,53.01704025268555,-0.07574205100536,-0.09252120554447,10.01830673217773,1.20776236057281,1.91863429546356,0.84204244613647
201,850077781,1.05192983150482,2.38961291313171,53.02313995361328,-0.03514250740409,-0.07841327041388,10.03681373596191,1.40745103359222,2.08845663070679,0.93307548761368
202,850086114,1.05029487609863,2.38942408561707,53.01082611083984,-0.07119143009186,-0.07746367901564,10.03311157226562,1.14664697647095,1.97931456565857,0.88333261013031
203,850094447,1.06006288528442,2.40580248832703,53.01701354980469,-0.03887545689940,-0.08752869814634,9.99341106414795,1.28875470161438,2.19859790802002,0.94711190462112
204,850102780,1.05806469917297,2.40760779380798,53.00442504882812,-0.05820595473051,-0.06698612123728,10.08534145355225,1.12157046794891,2.23986244201660,0.84949606657028
205,850111113,1.06815946102142,2.42124271392822,53.01034927368164,-0.05639249831438,-0.08288501948118,9.96336174011230,1.33275985717773,1.87434732913971,0.92382866144180
206,850119446,1.06777000427246,2.41959357261658,52.99732589721680,-0.04996052756906,-0.05512817949057,10.06565093994141,1.32950663566589,1.84957838058472,0.91109824180603
207,850127779,1.07646119594574,2.43333435058594,53.00290298461914,-0.06918083131313,-0.06211557239294,9.96956348419189,1.16998147964478,1.89391672611237,0.88901895284653
208,850136112,1.07621610164642,2.43333840370178,52.99043273925781,-0.05536295473576,-0.08948758244514,9.98828125000000,1.36303603649139,2.06996345520020,0.87813287973404
209,850144445,1.08460772037506,2.44657850265503,52.99557495117188,-0.04867027327418,-0.06646433472633,10.01553153991699,1.14113974571228,1.83759069442749,0.84176057577133
210,850152778,1.08379721641541,2.44376349449158,52.98167419433594,-0.04662683233619,-0.07850535213947,9.99434757232666,1.31150007247925,1.75549721717834,0.86829692125320
211,850161111,1.09334659576416,2.45823264122009,52.98702621459961,-0.03105178661644,-0.08578933030367,9.96462154388428,1.28355491161346,1.99209582805634,0.86911654472351
212,850169444,1.09247910976410,2.45845293998718,52.97349166870117,-0.09420874714851,-0.06007276847959,10.05908679962158,1.32297527790070,2.14606308937073,0.88192379474640
213,850177777,1.10232925415039,2.47193217277527,52.97822570800781,-0.04087931290269,-0.08611093461514,9.99396896362305,1.32504999637604,1.87859916687012,0.80226343870163
214,850186110,1.10221350193024,2.47025275230408,52.96493530273438,-0.06061745062470,-0.06966968625784,10.06758213043213,1.43265533447266,1.93889522552490,0.85190379619598
215,850194443,1.11179435253143,2.48375391960144,52.96994781494141,-0.01809371821582,-0.06174306944013,10.01872634887695,1.29615724086761,1.88971590995789,0.84045433998108
216,850202776,1.10947942733765,2.48062157630920,52.95637130737305,-0.07738012075424,-0.07712040096521,10.00494194030762,1.18017578125000,1.79166448116302,0.93737846612930
217,850211109,1.11961829662323,2.49492049217224,52.96083831787109,-0.02725395932794,-0.03678604215384,10.00103187561035,1.37010538578033,1.98909926414490,0.77833974361420
218,850219442,1.11909151077271,2.49132204055786,52.94763946533203,-0.06516876071692,-0.04906746372581,10.02701854705811,1.40878307819366,1.76274609565735,0.95997041463852
219,850227775,1.12875080108643,2.50718164443970,52.95222091674805,-0.03749830648303,-0.07365066558123,10.03007602691650,1.31662297248840,2.18376708030701,0.79381078481674
220,850236108,1.12677288055420,2.50422692298889,52.93817901611328,-0.05834473669529,-0.07093828171492,9.99036598205566,1.25000035762787,1.86305153369904,0.93973511457443
221,850244441,1.13633859157562,2.51678204536438,52.94363784790039,-0.01328291092068,-0.06178530678153,9.93613243103027,1.30573701858521,1.79599332809448,0.91179001331329
222,850252774,1.13298285007477,2.51400828361511,52.92933654785156,-0.09035914391279,-0.08519711345434,10.02435302734375,1.10405039787292,1.90928530693054,0.85689854621887
223,850261107,1.14316773414612,2.52827930450439,52.93395996093750,-0.03784383833408,-0.07091231644154,9.97221660614014,1.38911116123199,2.00761795043945,0.81309825181961
224,850269440,1.14154422283173,2.52727890014648,52.92017745971680,-0.08145567774773,-0.05946495011449,10.03713512420654,1.32966053485870,2.14462876319885,0.88530486822128
225,850277773,1.15135836601257,2.54013991355896,52.92531204223633,-0.04659085720778,-0.07932143658400,9.97995567321777,1.34513163566589,1.84740114212036,0.88412654399872
226,850286106,1.15048968791962,2.53493356704712,52.91182327270508,-0.02722409367561,-0.06798429042101,10.03974151611328,1.43521690368652,1.66282486915588,0.90594977140427
227,850294439,1.15924608707428,2.54913377761841,52.91670608520508,-0.06093630939722,-0.09255677461624,10.00033855438232,1.22546184062958,2.01427793502808,0.85513132810593
228,850302772,1.15658366680145,2.54558944702148,52.90199661254883,-0.09669824689627,-0.07615289837122,10.05815887451172,1.24090731143951,1.88825595378876,0.87815850973129
229,850311105,1.16559672355652,2.55847358703613,52.90760421752930,-0.02266953326762,-0.08271552622318,10.00478649139404,1.25463640689850,1.86502349376678,0.94969898462296
230,850319438,1.16350650787354,2.55478072166443,52.89303588867188,-0.03184436261654,-0.05819036811590,9.97393226623535,1.32853364944458,1.89481294155121,0.86286669969559
231,850327771,1.17320466041565,2.56874823570251,52.89766693115234,-0.07119724899530,-0.05647464096546,10.02662277221680,1.34897375106812,1.99727010726929,0.83666342496872
232,850336104,1.17032694816589,2.56581759452820,52.88266372680664,-0.05542480573058,-0.07968520373106,10.01065349578857,1.24777185916901,2.01286888122559,0.87723624706268
233,850344437,1.17856740951538,2.57957720756531,52.88780212402344,-0.06380761414766,-0.07712720334530,9.98269844055176,1.17579591274261,1.98177337646484,0.90502780675888
234,850352770,1.17598927021027,2.57559704780579,52.87226104736328,-0.06688340753317,-0.07457929104567,10.03960704803467,1.30499398708344,1.90659546852112,0.78807324171066
235,850361103,1.18520808219910,2.58859777450562,52.87683868408203,-0.02053237333894,-0.07512904703617,9.93830013275146,1.30130553245544,1.89647781848907,0.84396350383759
236,850369436,-0.38168671727180,0.26412522792816,52.20647811889648,-0.06589292734861,-0.06973069161177,10.02528667449951,1.34175050258636,1.78410828113556,0.90702575445175
237,850377769,-0.40047892928123,0.23672728240490,52.19793319702148,-0.05502286180854,-0.07433436810970,10.01364326477051,1.28744816780090,1.94148218631744,0.93433040380478
238,850386102,-0.40040788054466,0.23648302257061,52.20938873291016,-0.02444231510162,-0.06814532727003,10.01020622253418,1.34669411182404,1.92611384391785,0.87603247165680
239,850394435,-0.40023389458656,0.23814150691032,52.20919418334961,-0.08265703916550,-0.04244640469551,10.05121803283691,1.33952212333679,2.14713883399963,0.84929126501083
240,850402768,-0.40080970525742,0.23735438287258,52.22055053710938,-0.05213361233473,-0.05933732166886,9.98092460632324,1.26700818538666,1.86220622062683,0.82557249069214
241,850411101,-0.40110880136490,0.23688758909702,52.22039031982422,-0.06729166209698,-0.05367629602551,10.05521965026855,1.28306829929352,1.89209794998169,0.85005968809128
242,850419434,-0.40253177285194,0.23647174239159,52.23129653930664,-0.05665910243988,-0.06392113119364,10.04203128814697,1.16350102424622,1.90436732769012,0.94406396150589
243,850427767,-0.40197572112083,0.23663559556007,52.23151016235352,-0.04940212890506,-0.08105790615082,9.99768733978271,1.38437259197235,1.96709644794464,0.89616525173187
244,850436100,-0.40172493457794,0.23567250370979,52.24293518066406,-0.04429539665580,-0.06537079066038,10.01963138580322,1.36444461345673,1.83820545673370,0.84601253271103
245,850444433,-0.40134757757187,0.23664866387844,52.24283218383789,-0.09080244600773,-0.09835985302925,10.02746009826660,1.36429095268250,2.06499409675598,0.85864043235779
246,850452766,-0.40166857838631,0.23621238768101,52.25288772583008,-0.00511412136257,-0.06164841353893,10.00810527801514,1.29761707782745,1.90039706230164,0.86189347505569
247,850461099,-0.40099394321442,0.23675157129765,52.25334548950195,-0.10276148468256,-0.08124558627605,9.99143600463867,1.39887022972107,2.01192116737366,0.92518627643585
248,850469432,-0.40071803331375,0.23634973168373,52.26325607299805,-0.03446570783854,-0.06386145949364,9.97733783721924,1.36692917346954,1.90403413772583,0.85282593965530
249,850477765,-0.40017384290695,0.23637753725052,52.26274871826172,-0.10065671801567,-0.09776296466589,10.02608776092529,1.38560211658478,1.95195841789246,0.81127965450287
250,850486098,-0.40021023154259,0.23544652760029,52.27190780639648,-0.05528814345598,-0.02406272664666,10.02408981323242,1.33024966716766,1.83871793746948,0.83996766805649
251,850494431,-0.39961487054825,0.23484322428703,52.27182006835938,-0.05035730078816,-0.06559832394123,10.00292015075684,1.38918805122375,1.87601196765900,0.86089438199997
252,850502764,-0.39915195107460,0.23591466248035,52.28216934204102,-0.05292458087206,-0.08126582950354,10.01852893829346,1.38808667659760,2.07700729370117,0.89040207862854
253,850511097,-0.39981859922409,0.23611970245838,52.28183364868164,-0.04029812291265,-0.07926303893328,10.02885246276855,1.23921668529510,1.97293663024902,0.83171987533569
254,850519430,-0.40098401904106,0.23521851003170,52.29133987426758,-0.03379396349192,-0.07286491245031,9.97784614562988,1.19428932666779,1.84086918830872,0.83499836921692
255,850527763,-0.40072184801102,0.23496846854687,52.29155731201172,-0.04796528443694,-0.05542152374983,10.06628799438477,1.35079228878021,1.91863405704498,0.89790689945221
256,850536096,-0.40111309289932,0.23495069146156,52.30229568481445,-0.06579000502825,-0.08581039309502,10.03191089630127,1.28465628623962,1.94721972942352,0.88000267744064
257,850544429,-0.40104120969772,0.23394249379635,52.30224227905273,-0.05963286384940,-0.05904829129577,10.02026653289795,1.32763719558716,1.82790863513947,0.86327666044235
258,850552762,-0.40110391378403,0.23456948995590,52.31187057495117,-0.05898344144225,-0.05456990748644,10.00197601318359,1.32502436637878,2.02226948738098,0.88781493902206
259,850561095,-0.40110966563225,0.23397243022919,52.31280136108398,-0.02822708338499,-0.08043752610683,9.98200321197510,1.31746816635132,1.87542295455933,0.98151195049286
260,850569428,-0.40147912502289,0.23329044878483,52.32245254516602,-0.06048779189587,-0.07051750272512,10.01066017150879,1.28829371929169,1.86681687831879,0.88054060935974
261,850577761,-0.40155014395714,0.23284275829792,52.32229995727539,-0.04976642876863,-0.06202360242605,10.00580310821533,1.30950224399567,1.89529979228973,0.85269796848297
262,850586094,-0.40145370364189,0.23119817674160,52.33179092407227,-0.05902958661318,-0.05350290611386,10.02151012420654,1.34277510643005,1.74896550178528,0.86266183853149
263,850594427,-0.40157926082611,0.22995372116566,52.33216476440430,-0.04984233155847,-0.07685796171427,10.00165557861328,1.30389261245728,1.79860615730286,0.91573458909988
264,850602760,-0.40137189626694,0.23034976422787,52.34162902832031,-0.07938382774591,-0.07387901842594,10.04186534881592,1.35668349266052,1.99501585960388,0.86668324470520
265,850611093,-0.40176075696945,0.22974051535130,52.34194946289062,-0.04296722263098,-0.07131616771221,10.00802230834961,1.27090156078339,1.87455224990845,0.91086786985397
266,850619426,-0.40129619836807,0.23202328383923,52.35005950927734,-0.17404100298882,-0.08255527913570,10.09459972381592,1.38652420043945,2.22011351585388,0.83246260881424
267,850627759,-0.40663978457451,0.23441281914711,52.34943389892578,0.00300374673679,-0.15021388232708,9.94100856781006,0.67903333902359,2.23471379280090,0.79837006330490
268,850636092,-0.40418985486031,0.21854420006275,52.35870361328125,0.13691811263561,-0.05401351675391,10.00706005096436,1.62668335437775,0.03936908021569,0.94964784383774
269,850644425,-0.40211102366447,0.21779529750347,52.35882186889648,-0.21299318969250,-0.06593675166368,9.92593955993652,1.56715571880341,1.85895323753357,0.88489502668381
270,850652758,-0.40791791677475,0.24005065858364,52.36646270751953,-0.19161051511765,-0.04259970039129,10.11430931091309,0.63602715730667,4.61404657363892,0.86330223083496
271,850661091,-0.40269097685814,0.23615203797817,52.36650848388672,0.17441786825657,0.03474773839116,9.92543125152588,1.94663059711456,1.48101508617401,0.87239521741867
272,850669424,-0.39855170249939,0.22608380019665,52.37509918212891,-0.09492356330156,-0.09831879287958,10.04274368286133,1.82365667819977,0.73799723386765,0.87249767780304
273,850677757,-0.39949846267700,0.23451572656631,52.37502670288086,-0.16036380827427,-0.10134995728731,10.11353778839111,1.20627677440643,2.95977592468262,0.86955195665359
274,850686090,-0.39829713106155,0.23062755167484,52.38435363769531,0.07853967696428,-0.02495206892490,9.98854255676270,1.47330510616302,1.47497022151947,0.88530474901199
275,850694423,-0.39802470803261,0.22995598614216,52.38469314575195,-0.05424676835537,-0.15807580947876,9.91037845611572,1.35122776031494,1.86848175525665,0.91094470024109
276,850702756,-0.39833819866180,0.22973634302616,52.39351654052734,-0.11347283422947,-0.06131599470973,10.10303783416748,1.29446661472321,1.91830110549927,0.83348727226257
277,850711089,-0.39927771687508,0.23002801835537,52.39297866821289,-0.06771799921989,-0.03424850478768,9.98955440521240,1.20645618438721,1.98313093185425,0.80528599023819
278,850719422,-0.40031737089157,0.23165255784988,52.40117263793945,-0.03504437953234,-0.08508823066950,10.02839374542236,1.20479118824005,2.13830208778381,0.83545947074890
279,850727755,-0.39993354678154,0.23035331070423,52.40121459960938,-0.08914536237717,-0.02136298269033,10.04849147796631,1.36447024345398,1.79179263114929,0.87429064512253
280,850736088,-0.40067929029465,0.23079329729080,52.40998077392578,-0.04785586893559,-0.05734435468912,9.98971080780029,1.23939597606659,1.99534904956818,0.85059756040573
281,850744421,-0.40127155184746,0.23031798005104,52.41027450561523,-0.08226425200701,-0.06036971881986,10.01321601867676,1.24682426452637,1.88999772071838,0.90466922521591
282,850752754,-0.40295329689980,0.23036096990108,52.41865539550781,-0.07890083640814,-0.06060998514295,10.04878044128418,1.12646293640137,1.94683575630188,0.86212390661240
283,850761087,-0.40352755784988,0.22991532087326,52.41864776611328,-0.04597727209330,-0.10953070223331,9.95147514343262,1.25000035762787,1.89389109611511,0.86860430240631
284,850769420,-0.40283891558647,0.22972044348717,52.42693710327148,-0.02815309353173,-0.04747025668621,10.06195545196533,1.41083204746246,1.91758394241333,0.88107842206955
285,850777753,-0.40254986286163,0.22927370667458,52.42670822143555,-0.07505192607641,-0.07429555803537,10.00483608245850,1.35448074340820,1.89460825920105,0.84332317113876
286,850786086,-0.40405392646790,0.22672431170940,52.43425750732422,-0.04176249355078,-0.08832752704620,10.00501346588135,1.14613449573517,1.63362455368042,0.88305073976517
287,850794419,-0.40581196546555,0.22751256823540,52.43465805053711,-0.07210066169500,-0.06851907819510,9.95198917388916,1.10784125328064,2.04255604743958,0.92098551988602
288,850802752,-0.40615859627724,0.22808168828487,52.44326400756836,-0.05103140324354,-0.03288363292813,10.05317974090576,1.28627014160156,2.00741338729858,0.95725518465042
289,850811085,-0.40620824694633,0.22764313220978,52.44335174560547,-0.07591034471989,-0.05134911462665,9.99920463562012,1.31362593173981,1.89481294155121,0.88112962245941
290,850819418,-0.40694200992584,0.22683987021446,52.45174407958984,-0.04352610558271,-0.09985232353210,9.97557258605957,1.23796164989471,1.84209907054901,0.94019603729248
291,850827751,-0.40816217660904,0.22619390487671,52.45202636718750,-0.05365875735879,-0.07333513349295,9.98640537261963,1.17269659042358,1.87022340297699,0.90384960174561
292,850836084,-0.40814760327339,0.22519089281559,52.46013259887695,-0.06148218363523,-0.06911224126816,10.02632522583008,1.32802128791809,1.81999373435974,0.85764139890671
293,850844417,-0.40817379951477,0.22503335773945,52.46025848388672,-0.07058282941580,-0.07076917588711,10.05728912353516,1.31570088863373,1.92782986164093,0.88689297437668
294,850852750,-0.40848955512047,0.22640940546989,52.46759414672852,-0.07837016135454,-0.08403109759092,9.98043727874756,1.28834486007690,2.10313367843628,0.91353160142899
295,850861083,-0.40894278883934,0.22819931805134,52.46787643432617,-0.04326475411654,-0.10722810029984,9.95382785797119,1.26526629924774,2.16243052482605,0.90431064367294
296,850869416,-0.40793266892433,0.22852127254009,52.47578811645508,-0.01557819731534,-0.07368813455105,10.01528644561768,1.44904839992523,1.97662496566772,0.90105766057968
297,850877749,-0.40749189257622,0.22759290039539,52.47616577148438,-0.06810382753611,-0.05202659219503,10.06516933441162,1.37179577350616,1.83574628829956,0.91665655374527
298,850886082,-0.40770137310028,0.22812637686729,52.48350524902344,-0.07881031185389,-0.07059880346060,10.02153015136719,1.30104947090149,2.00190615653992,0.88087362051010
299,850894415,-0.40842345356941,0.22793427109718,52.48382568359375,-0.00367841590196,-0.07309260219336,9.96767139434814,1.23265945911407,1.92526853084564,0.90971517562866
300,850902748,-0.40626919269562,0.22758004069328,52.49031829833984,-0.07344533503056,-0.03898118808866,10.03366756439209,1.58511114120483,1.89601683616638,0.87160116434097
301,850911081,-0.40714010596275,0.22698028385639,52.49030685424805,-0.05334392935038,-0.06657318025827,10.00981616973877,1.21544671058655,1.87519264221191,0.86770790815353
302,850919414,-0.40811446309090,0.22714036703110,52.49770355224609,-0.07892681658268,-0.09091384708881,9.98733425140381,1.20909440517426,1.95618450641632,0.93732726573944
303,850927747,-0.40790632367134,0.22561097145081,52.49818420410156,-0.03259519487619,-0.06694468110800,10.02336025238037,1.34372282028198,1.76448798179626,0.92749148607254
304,850936080,-0.40727004408836,0.22565110027790,52.50590896606445,-0.04929479956627,-0.09613640606403,9.98353290557861,1.40255868434906,1.94099545478821,0.93799328804016
305,850944413,-0.40685927867889,0.22553183138371,52.50544738769531,-0.08178730309010,-0.05384893342853,10.02270126342773,1.36836373806000,1.93479669094086,0.81683790683746
306,850952746,-0.40701100230217,0.22641327977180,52.51194381713867,-0.03098572418094,-0.06195909902453,10.01507377624512,1.30809330940247,2.04327297210693,0.77977406978607
307,850961079,-0.40703743696213,0.22269457578659,52.51165008544922,-0.02573383226991,-0.07064393907785,9.95938777923584,1.31634104251862,1.50125026702881,0.83410191535950
308,850969412,-0.40713724493980,0.22204630076885,52.51875686645508,-0.07473534345627,-0.06835576891899,10.03075790405273,1.31357479095459,1.86043870449066,0.87247204780579
309,850977745,-0.40733638405800,0.22159184515476,52.51921844482422,-0.04804157465696,-0.06960375607014,10.02984523773193,1.29549109935760,1.89355814456940,0.92485320568085
310,850986078,-0.40812912583351,0.22461530566216,52.52659988403320,-0.05267728492618,-0.06590637564659,10.03138828277588,1.23017477989197,2.29854464530945,0.91468441486359
311,850994411,-0.40929028391838,0.22528703510761,52.52686691284180,-0.07072125375271,-0.07528878748417,9.98475837707520,1.17925381660461,2.02834010124207,0.90418249368668
312,851002744,-0.40951931476593,0.22665883600712,52.53385925292969,-0.03793279454112,-0.04616423696280,10.00829219818115,1.29900038242340,2.10031604766846,0.86632472276688
313,851011077,-0.40946480631828,0.22550208866596,52.53263854980469,-0.09769868105650,-0.06010673567653,10.03742790222168,1.32586956024170,1.81138730049133,0.72360211610794
314,851019410,-0.40963706374168,0.22615629434586,52.53859329223633,-0.02656065672636,-0.06475517153740,10.01308059692383,1.30486607551575,2.01522564888000,0.77062988281250
315,851027743,-0.40933758020401,0.22617371380329,52.53904342651367,-0.07563322782516,-0.06819259375334,10.01296901702881,1.35401964187622,1.94839787483215,0.92598026990891
316,851036076,-0.40932855010033,0.22701796889305,52.54574966430664,-0.03381244093180,-0.10058512538671,9.99335479736328,1.32517790794373,2.03676724433899,0.94990384578705
317,851044409,-0.40885818004608,0.22569714486599,52.54566955566406,-0.05688893422484,-0.07135254144669,10.00272274017334,1.37681639194489,1.78994858264923,0.85969060659409
318,851052742,-0.40892848372459,0.22699600458145,52.55161285400391,-0.03836717456579,-0.06673899292946,10.03393077850342,1.31541919708252,2.09191465377808,0.86560755968094
319,851061075,-0.40978091955185,0.22504097223282,52.55126571655273,-0.04347455501556,-0.06880289316177,9.99349498748779,1.21744465827942,1.71338737010956,0.82692998647690
320,851069408,-0.40954455733299,0.22494916617870,52.55817031860352,-0.07577104866505,-0.07675924897194,9.99507331848145,1.35245716571808,1.92414116859436,0.98584067821503
321,851077741,-0.40943488478661,0.22441218793392,52.55800247192383,-0.05719714984298,-0.06840240955353,10.02425098419189,1.33324658870697,1.88415765762329,0.84990602731705
322,851086074,-0.40901616215706,0.22410933673382,52.56408309936523,-0.06737305223942,-0.06350433081388,10.00680446624756,1.37405014038086,1.89855289459229,0.86286681890488
323,851094407,-0.40970110893250,0.22488942742348,52.56405639648438,-0.05850467458367,-0.08206841349602,10.01104068756104,1.23724448680878,2.04112148284912,0.86683696508408
324,851102740,-0.41046079993248,0.22369472682476,52.56982040405273,-0.06789422035217,-0.06729913502932,10.00592327117920,1.23376083374023,1.79099857807159,0.90082705020905
325,851111073,-0.40931949019432,0.22390294075012,52.57030105590820,-0.06467825919390,-0.05528298765421,10.02787494659424,1.45634877681732,1.97283422946930,0.92846488952637
326,851119406,-0.40792649984360,0.22481223940849,52.57553482055664,-0.05289830639958,-0.05190004780889,10.02914237976074,1.49184989929199,2.04414391517639,0.86875796318054
327,851127739,-0.40713760256767,0.22416771948338,52.57551193237305,-0.03627425804734,-0.06834580004215,10.00823783874512,1.41282999515533,1.87163209915161,0.86563307046890
328,851136072,-0.40643346309662,0.22552926838398,52.58168411254883,-0.05335130542517,-0.05911475047469,10.02668952941895,1.40875744819641,2.09716558456421,0.87956726551056
329,851144405,-0.40627512335777,0.22576929628849,52.58217620849609,-0.02455568872392,-0.09782353788614,9.98444461822510,1.33798515796661,1.97557461261749,0.93271666765213
330,851152738,-0.40532588958740,0.22547212243080,52.58805084228516,-0.03056505881250,-0.05464297533035,10.05331516265869,1.43744540214539,1.89952623844147,0.87910622358322
331,851161071,-0.40677785873413,0.22524119913578,52.58764266967773,-0.04764661937952,-0.08063904941082,10.03543186187744,1.14503324031830,1.92201542854309,0.82180720567703
332,851169404,-0.40742197632790,0.22640471160412,52.59321594238281,-0.05489282310009,-0.09198546409607,10.00084781646729,1.24705457687378,2.07352328300476,0.85134029388428
333,851177737,-0.40768980979919,0.22781549394131,52.59329605102539,-0.05975819379091,-0.08884410560131,10.02085304260254,1.28601396083832,2.11801552772522,0.88133466243744
334,851186070,-0.40792709589005,0.22716422379017,52.59916305541992,-0.05738871544600,-0.06189351901412,10.01232624053955,1.29615724086761,1.85549545288086,0.89529436826706
335,851194403,-0.40758100152016,0.22578854858875,52.59941864013672,-0.06372686475515,-0.04402619227767,9.99983501434326,1.36006474494934,1.78367292881012,0.90069895982742
336,851202736,-0.40886268019676,0.22616723179817,52.60511016845703,-0.07600708305836,-0.05858260393143,10.05348777770996,1.17023766040802,1.98018538951874,0.90648788213730
337,851211069,-0.40959718823433,0.22545939683914,52.60481643676758,-0.04150389879942,-0.10475754737854,9.99024963378906,1.23196792602539,1.86315369606018,0.83448612689972
338,851219402,-0.40906739234924,0.22706454992294,52.61014556884766,-0.05851469561458,-0.07438636571169,10.05513572692871,1.38688266277313,2.12613511085510,0.94178414344788
339,851227735,-0.40933734178543,0.22754170000553,52.60983276367188,-0.02640676498413,-0.06090810522437,10.00059223175049,1.28601396083832,2.00659370422363,0.83405077457428
340,851236068,-0.40870305895805,0.22721678018570,52.61480712890625,-0.04621856287122,-0.06531542539597,9.94592189788818,1.40109884738922,1.89450585842133,0.84993159770966
341,851244401,-0.40717837214470,0.22519822418690,52.61449813842773,-0.05126545578241,-0.08313320577145,10.09090614318848,1.50135290622711,1.70616412162781,0.83151489496231
342,851252734,-0.40834447741508,0.22549119591713,52.61900711059570,-0.06743976473808,-0.10751049965620,9.95679283142090,1.18501698970795,1.97001636028290,0.80236589908600
343,851261067,-0.40816646814346,0.22748392820358,52.61926269531250,-0.07115219533443,-0.05364916101098,10.02501296997070,1.33936846256256,2.18676424026489,0.90126258134842
344,851269400,-0.40966346859932,0.22692796587944,52.62494277954102,-0.01618861407042,-0.04515317827463,9.99704456329346,1.14526367187500,1.86789238452911,0.86460846662521
345,851277733,-0.40853515267372,0.22641855478287,52.62565231323242,-0.05685647204518,-0.08597835153341,9.99257946014404,1.45332622528076,1.88710319995880,0.95471948385239
346,851286066,-0.40822106599808,0.22876721620560,52.63097763061523,-0.04777540639043,-0.04873443767428,10.03555202484131,1.36201131343842,2.21604108810425,0.85702675580978
347,851294399,-0.40861767530441,0.23105838894844,52.63150405883789,-0.05115498229861,-0.09254921972752,9.98155593872070,1.27120900154114,2.22241926193237,0.93609791994095
348,851302732,-0.40966036915779,0.23075468838215,52.63732528686523,-0.09667778015137,-0.05216982960701,10.03188228607178,1.19825959205627,1.89716958999634,0.93522697687149
349,851311065,-0.40978580713272,0.22899271547794,52.63743972778320,-0.03829478845000,-0.07362898439169,10.00081443786621,1.30412316322327,1.73692679405212,0.88189810514450
350,851319398,-0.40893498063087,0.22804908454418,52.64222717285156,-0.01428244914860,-0.04397228360176,10.02363204956055,1.42563712596893,1.82150495052338,0.88842970132828
351,851327731,-0.40919777750969,0.22644096612930,52.64248275756836,-0.02693520672619,-0.07925398647785,9.97917366027832,1.28716647624969,1.75442147254944,0.90021234750748
352,851336064,-0.40843585133553,0.22566828131676,52.64668273925781,-0.08392891287804,-0.07718461006880,10.02538585662842,1.41439247131348,1.84273934364319,0.82803136110306
353,851344397,-0.40972098708153,0.22473435103893,52.64592742919922,-0.04876089841127,-0.07031493633986,10.01592540740967,1.16539657115936,1.83687353134155,0.77949237823486
354,851352730,-0.41008761525154,0.22501927614212,52.65074920654297,-0.09007924050093,-0.07665275782347,9.97755336761475,1.27917504310608,1.96860778331757,0.86291807889938
355,851361063,-0.41101843118668,0.22383944690228,52.65110015869141,-0.06070245057344,-0.06767685711384,10.02456474304199,1.20724999904633,1.80603396892548,0.91250717639923
356,851369396,-0.41142731904984,0.22445501387119,52.65613174438477,-0.02780033648014,-0.05543043464422,9.98863887786865,1.27423131465912,2.00772070884705,0.84980356693268
357,851377729,-0.41005641222000,0.22401483356953,52.65635299682617,-0.03402396664023,-0.05549448728561,10.03825759887695,1.48278248310089,1.89453136920929,0.89726668596268
358,851386062,-0.41079923510551,0.22487990558147,52.66058349609375,-0.04121118411422,-0.06351339817047,10.02194023132324,1.23353040218353,2.03848338127136,0.76120382547379
359,851394395,-0.41076719760895,0.22461242973804,52.66037750244141,-0.04080168530345,-0.06778924167156,9.98766613006592,1.32333397865295,1.91612422466278,0.84401470422745
360,851402728,-0.41022846102715,0.22530576586723,52.66509246826172,-0.03496244549751,-0.07548403739929,10.04274368286133,1.38770234584808,2.01852965354919,0.94893068075180
361,851411061,-0.40964806079865,0.22307033836842,52.66586685180664,-0.05405705422163,-0.07140841335058,10.00406742095947,1.38739514350891,1.67896199226379,0.96242928504944
362,851419394,-0.40886041522026,0.22415034472942,52.67054748535156,-0.06429409980774,-0.05821219831705,10.03011417388916,1.41810667514801,2.06402087211609,0.86015164852142
363,851427727,-0.40934002399445,0.22285813093185,52.67099380493164,-0.04107871279120,-0.08288118243217,9.97941303253174,1.26055324077606,1.79233050346375,0.92400795221329
364,851436060,-0.40962031483650,0.22198246419430,52.67596435546875,-0.04117036610842,-0.06850725412369,10.03042411804199,1.28849852085114,1.82895886898041,0.90938228368759
365,851444393,-0.40939429402351,0.22215849161148,52.67553710937500,-0.08622565120459,-0.06122330576181,9.99796676635742,1.34577202796936,1.97070813179016,0.82029592990875
366,851452726,-0.40950584411621,0.22265334427357,52.68007659912109,-0.06245785579085,-0.07324529439211,10.00173950195312,1.30929732322693,1.99304366111755,0.86852747201920
367,851461059,-0.40941396355629,0.22163541615009,52.67980957031250,-0.07110062241554,-0.06202073767781,10.02446365356445,1.32996785640717,1.82552647590637,0.83776479959488
368,851469392,-0.40925723314285,0.22231367230415,52.68468093872070,-0.03765749931335,-0.06656364351511,10.01207160949707,1.34034168720245,2.01586604118347,0.88248729705811
369,851477725,-0.40991666913033,0.22232337296009,52.68410491943359,-0.03952283039689,-0.07365792244673,10.01471805572510,1.24113786220551,1.94965314865112,0.80241721868515
370,851486058,-0.40966483950615,0.22305907309055,52.68780136108398,-0.04901473969221,-0.08327402174473,10.00378799438477,1.35266220569611,2.02388334274292,0.74650132656097
371,851494391,-0.40937572717667,0.22096022963524,52.68826293945312,-0.04698263108730,-0.05954748392105,10.00083446502686,1.35360980033875,1.69502186775208,0.92272716760635
372,851502724,-0.41019108891487,0.22146157920361,52.69286727905273,-0.05631573125720,-0.08995299786329,9.98224258422852,1.22320783138275,1.99519538879395,0.82119244337082
373,851511057,-0.41008839011192,0.22149917483330,52.69228363037109,-0.07805611193180,-0.05979453399777,10.03166389465332,1.33168411254883,1.95249629020691,0.80221217870712
374,851519390,-0.41067126393318,0.22005300223827,52.69670104980469,-0.04082144424319,-0.07530340552330,9.99475479125977,1.25230550765991,1.76003086566925,0.87892681360245
375,851527723,-0.41134300827980,0.22031763195992,52.69682312011719,-0.07972251623869,-0.09158969670534,9.99964427947998,1.23924243450165,1.98080015182495,0.88497185707092
376,851536056,-0.41147029399872,0.22089467942715,52.70175552368164,-0.00966388545930,-0.05529153719544,10.02138710021973,1.30627465248108,2.00226473808289,0.93215316534042
377,851544389,-0.41035974025726,0.21980154514313,52.70183563232422,-0.03252980858088,-0.06683009117842,9.99628639221191,1.45250642299652,1.81607472896576,0.87949031591415
378,851552722,-0.41033196449280,0.21733842790127,52.70564270019531,-0.03344613313675,-0.04212688654661,10.05572319030762,1.32481932640076,1.63959252834320,0.82155090570450
379,851561055,-0.41060101985931,0.21722131967545,52.70607757568359,-0.06996013224125,-0.09200416505337,9.97660541534424,1.28711533546448,1.93346500396729,0.92211246490479
380,851569388,-0.40983256697655,0.21463236212730,52.70977783203125,-0.19841046631336,-0.07299511879683,10.06894683837891,1.41390573978424,1.62386548519135,0.80897432565689
381,851577721,-0.40735739469528,0.23271451890469,52.70917892456055,-0.68873637914658,-0.02674672938883,9.91154766082764,1.61587417125702,4.11874389648438,0.81645375490189
382,851586054,-0.40381893515587,0.22661986947060,52.71287155151367,-1.03245615959167,0.00452095549554,10.57425498962402,1.74596858024597,1.19495522975922,0.76279193162918
383,851594387,-0.40506097674370,0.24178072810173,52.71351242065430,-0.08228614926338,-0.05246740579605,9.50888538360596,1.17051935195923,3.76713657379150,0.96255731582642
384,851602720,-0.39920550584793,0.22435896098614,52.71886062622070,-0.26443964242935,-0.03594784066081,10.03137874603271,2.02262806892395,-0.17687909305096,0.91342914104462
385,851611053,-0.40070751309395,0.22335155308247,52.71974563598633,-0.31467190384865,-0.06650809198618,10.07661151885986,1.13852715492249,1.82601308822632,0.97544121742249
386,851619386,-0.40369784832001,0.21924860775471,52.72331619262695,0.63612616062164,-0.10595154017210,10.01016521453857,0.95989346504211,1.41736364364624,0.87242084741592
387,851627719,-0.40883588790894,0.21042761206627,52.72344970703125,-0.29112049937248,-0.08961770683527,9.97429656982422,0.70326441526413,0.88986408710480,0.87808167934418
388,851636052,-0.41338843107224,0.21278768777847,52.72644042968750,0.57418668270111,-0.12324693799019,9.98329067230225,0.77470254898071,2.19831609725952,0.88863462209702
389,851644385,-0.41276535391808,0.21148034930229,52.72682952880859,0.09952392429113,-0.07008915394545,10.06439781188965,1.39246666431427,1.79120373725891,0.91696399450302
390,851652718,-0.41009140014648,0.21005232632160,52.73056411743164,0.01626122370362,-0.07553760707378,9.97669506072998,1.64251279830933,1.75180864334106,0.95374596118927
391,851661051,-0.41101253032684,0.22212353348732,52.72988891601562,-0.88953018188477,-0.08630260080099,9.90776443481445,1.20765995979309,3.39724135398865,0.79967635869980
392,851669384,-0.41100642085075,0.20969007909298,52.73302078247070,-0.54190617799759,-0.00246762088500,10.11898994445801,1.32307755947113,0.42296785116196,0.80587500333786
393,851677717,-0.41114094853401,0.22267349064350,52.73358154296875,0.33224165439606,-0.03201990947127,9.85284805297852,1.30243253707886,3.50587153434753,0.95013439655304
394,851686050,-0.40655645728111,0.21848672628403,52.73765945434570,-0.14107041060925,-0.01822667382658,10.11204242706299,1.87070989608765,1.41229200363159,0.86330217123032
395,851694383,-0.40913414955139,0.20415252447128,52.73796844482422,0.14804923534393,-0.07456846535206,10.06764793395996,1.00884222984314,0.22730071842670,0.89467954635620
396,851702716,-0.41244068741798,0.20087628066540,52.74179840087891,0.49840313196182,-0.17529818415642,9.93044948577881,0.92390537261963,1.52484083175659,0.77096283435822
397,851711049,-0.41458639502525,0.20691756904125,52.74148178100586,0.08849076926708,-0.10874878615141,10.06099796295166,1.06117212772369,2.67292213439941,0.83809781074524
398,851719382,-0.41488164663315,0.20578971505165,52.74585342407227,-0.05310590565205,-0.06922735273838,10.04796314239502,1.28496372699738,1.78851389884949,0.81261157989502
399,851727715,-0.41260826587677,0.21707308292389,52.74609375000000,-0.00443967338651,-0.09954703599215,9.94562625885010,1.59261620044708,3.30162358283997,0.91135436296463
400,851736048,-0.40967407822609,0.21485882997513,52.75040435791016,-0.77793961763382,-0.04326404631138,10.02255630493164,1.67294251918793,1.65905952453613,0.86786144971848
401,851744381,-0.40994033217430,0.21737080812454,52.75000000000000,-0.73070859909058,-0.07567825913429,10.04005146026611,1.28790950775146,2.24926280975342,0.82449668645859
402,851752714,-0.40717568993568,0.20920930802822,52.75423431396484,0.25651249289513,-0.10470939427614,9.98829078674316,1.65265583992004,0.93079566955566,0.89362943172455
403,851761047,-0.40528243780136,0.21341244876385,52.75470733642578,-0.45074349641800,-0.00368313025683,9.99269676208496,1.54523003101349,2.45230698585510,0.93148732185364
404,851769380,-0.40566587448120,0.20693461596966,52.75857925415039,0.48906376957893,-0.07401701807976,9.95423889160156,1.27387285232544,1.13140642642975,0.93809574842453
405,851777713,-0.40505248308182,0.20535100996494,52.75907135009766,0.31536015868187,-0.10282152891159,9.96121978759766,1.39264595508575,1.75757193565369,0.92854148149490
406,851786046,-0.40269681811333,0.20567211508751,52.76340484619141,0.09992194175720,-0.00084003910888,10.05449104309082,1.60352814197540,1.95636403560638,0.89675444364548
407,851794379,-0.40511849522591,0.19860398769379,52.76321411132812,-0.23322775959969,-0.06684244424105,9.99097156524658,1.02853953838348,1.10133528709412,0.84462934732437
408,851802712,-0.40783262252808,0.21001614630222,52.76813125610352,0.01193404383957,-0.07713218033314,10.07941436767578,0.99467760324478,3.28756141662598,0.85797441005707
409,851811045,-0.40818464756012,0.21690511703491,52.76793670654297,-0.04759380221367,-0.00656443787739,10.02306079864502,1.27740764617920,2.77532815933228,0.85369682312012
410,851819378,-0.40466487407684,0.20238228142262,52.77318572998047,0.40297275781631,-0.11893969774246,10.03679847717285,1.74107623100281,0.17653328180313,0.92014014720917
411,851827711,-0.40366998314857,0.20323975384235,52.77346038818359,-0.31264457106590,-0.11695663630962,10.03561973571777,1.43798327445984,2.04988169670105,0.90489977598190
412,851836044,-0.40603342652321,0.20927529036999,52.77737808227539,-0.23604360222816,-0.09512659907341,10.01551723480225,1.03770959377289,2.64689826965332,0.85095620155334
413,851844377,-0.40585166215897,0.21324101090431,52.77698898315430,0.57822191715240,-0.08040663599968,10.01499271392822,1.34080278873444,2.42415714263916,0.82511132955551
414,851852710,-0.40286535024643,0.20623190701008,52.78091049194336,0.36177593469620,-0.04739993065596,10.03403472900391,1.67819344997406,1.08422493934631,0.88415217399597
415,851861043,-0.40263882279396,0.20318628847599,52.78044509887695,-0.13869510591030,-0.06106597930193,10.02716541290283,1.34725761413574,1.58334410190582,0.81156146526337
416,851869376,-0.40565454959869,0.20561616122723,52.78427505493164,-0.35407996177673,-0.04489119723439,9.96212673187256,0.95820295810699,2.22024202346802,0.89432108402252
417,851877709,-0.40729990601540,0.21171964704990,52.78498840332031,0.11068749427795,-0.03408807888627,10.02740669250488,1.12108373641968,2.67896723747253,0.96104604005814
418,851886042,-0.40600144863129,0.21550135314465,52.78910064697266,-0.42987376451492,-0.02095484361053,10.02617549896240,1.47604584693909,2.38148331642151,0.91376215219498
419,851894375,-0.40503668785095,0.21093715727329,52.78844833374023,-0.68447089195251,-0.02250391058624,10.00216197967529,1.43585729598999,1.40076577663422,0.78684371709824
420,851902708,-0.40583816170692,0.20089170336723,52.79181671142578,0.56472373008728,-0.12272156029940,10.02516174316406,1.22315645217896,0.71389436721802,0.81691479682922
421,851911041,-0.40772053599358,0.20689831674099,52.79181671142578,0.46640843153000,-0.14996786415577,10.01856231689453,1.09170424938202,2.66992521286011,0.87541764974594
422,851919374,-0.40755203366280,0.21784071624279,52.79669189453125,-0.22236455976963,-0.05533167719841,10.01077842712402,1.34185314178467,3.24061059951782,0.88356310129166
423,851927707,-0.40543660521507,0.20665501058102,52.79664993286133,-0.05651999264956,-0.08766201883554,10.01723957061768,1.57299566268921,0.60728794336319,0.85433715581894
424,851936040,-0.40537789463997,0.21118636429310,52.80139923095703,0.00419107172638,-0.11532227694988,9.97181606292725,1.32625389099121,2.47033929824829,0.85154521465302
425,851944373,-0.40525248646736,0.20533792674541,52.80110931396484,0.10189391672611,-0.08488948643208,9.96471405029297,1.33534693717957,1.24749004840851,0.83023422956467
426,851952706,-0.40518760681152,0.20758314430714,52.80640792846680,-0.08809830993414,-0.05082713067532,10.05043220520020,1.32761132717133,2.19875144958496,0.84468060731888
427,851961039,-0.40627083182335,0.21076877415180,52.80616378784180,-0.17498090863228,-0.02052507176995,10.02122592926025,1.18983244895935,2.33079314231873,0.84398895502090
428,851969372,-0.40764734148979,0.21074794232845,52.81184005737305,-0.67448902130127,-0.00043343228754,9.99130249023438,1.15384447574615,1.92478168010712,0.98199862241745
429,851977705,-0.40807989239693,0.20833317935467,52.81234741210938,0.22006393969059,-0.07867437601089,10.00833034515381,1.26647019386292,1.65808641910553,0.92931008338928
430,851986038,-0.40598621964455,0.20824514329433,52.81714248657227,0.23574517667294,-0.07768583297729,10.01248359680176,1.57140779495239,1.91320407390594,0.89952075481415
431,851994371,-0.40636253356934,0.21319893002510,52.81739425659180,0.46383336186409,-0.07794779539108,10.06136989593506,1.27446186542511,2.54328846931458,0.90431052446365
432,852002704,-0.40614020824432,0.21100704371929,52.82114028930664,0.21318277716637,-0.12676785886288,9.95616149902344,1.34556686878204,1.66915154457092,0.85159641504288
433,852011037,-0.40448901057243,0.21141470968723,52.82091903686523,-0.12208628654480,-0.11352198570967,10.00723838806152,1.51789963245392,1.99632215499878,0.84521859884262
434,852019370,-0.40420168638229,0.21090853214264,52.82427215576172,-0.05480923876166,-0.08584798127413,9.98765182495117,1.35455763339996,1.87345063686371,0.82549560070038
435,852027703,-0.40510562062263,0.20780728757381,52.82401275634766,0.02196799404919,-0.08207602053881,10.04539394378662,1.21060574054718,1.57711982727051,0.83896875381470
436,852036036,-0.40576896071434,0.21025530993938,52.82711410522461,-0.05488025024533,-0.08551587164402,10.02002429962158,1.24100959300995,2.22705531120300,0.82813388109207
437,852044369,-0.40553885698318,0.21357011795044,52.82656478881836,0.00832418352365,-0.06241612881422,10.01518058776855,1.34764194488525,2.34654593467712,0.80672037601471
438,852052702,-0.40492358803749,0.21433839201927,52.82959365844727,-0.05730237066746,-0.02200656756759,10.05412387847900,1.39449024200439,2.02741813659668,0.83476793766022
439,852061035,-0.40577307343483,0.21319371461868,52.82933425903320,-0.06488673388958,-0.03987437859178,10.00903987884521,1.21721398830414,1.81054210662842,0.83779036998749
440,852069368,-0.40719768404961,0.21211953461170,52.83306121826172,-0.05842252075672,-0.04676233977079,9.97757434844971,1.14900338649750,1.80687940120697,0.82219123840332
441,852077701,-0.40716287493706,0.21432006359100,52.83283615112305,-0.15410229563713,-0.07005248218775,10.03121185302734,1.32348752021790,2.21250629425049,0.84542346000671
442,852086034,-0.40716552734375,0.21480502188206,52.83709335327148,-0.00658308388665,-0.08094775676727,10.03256893157959,1.31949186325073,1.99140441417694,0.94022178649902
443,852094367,-0.40600100159645,0.21119666099548,52.83733749389648,-0.02979595772922,-0.12223183363676,9.95802021026611,1.45837199687958,1.51521003246307,0.89708727598190
444,852102700,-0.40519541501999,0.21028113365173,52.84032058715820,-0.03973319754004,-0.10712207108736,10.02258396148682,1.41774785518646,1.82342612743378,0.84672975540161
445,852111033,-0.40485778450966,0.20901218056679,52.84067535400391,-0.03855519741774,-0.09902942180634,10.00955867767334,1.36014163494110,1.79673635959625,0.91330122947693
446,852119366,-0.40418276190758,0.21023239195347,52.84468078613281,-0.02626970596611,-0.06948153674603,9.97741794586182,1.40161108970642,2.07928681373596,0.93169224262238
447,852127699,-0.40455219149590,0.21007685363293,52.84444808959961,-0.09414175897837,-0.04998621344566,10.02700519561768,1.27482068538666,1.92934107780457,0.84129959344864
448,852136032,-0.40614467859268,0.21104861795902,52.84794235229492,-0.01616409979761,-0.07137280702591,9.96515178680420,1.12912654876709,2.05116200447083,0.85963928699493
449,852144365,-0.40499234199524,0.21304742991924,52.84812927246094,-0.08457413315773,-0.00456385128200,10.01207542419434,1.45657896995544,2.18799352645874,0.89437216520309
450,852152698,-0.40477561950684,0.21150992810726,52.85220718383789,-0.05324800685048,-0.03319802507758,10.13047599792480,1.34623301029205,1.74865806102753,0.92954051494598
451,852161031,-0.40373647212982,0.21011275053024,52.85193252563477,-0.02234582602978,-0.05641104653478,9.96464824676514,1.44349038600922,1.78134202957153,0.83894306421280
452,852169364,-0.40479916334152,0.21067354083061,52.85532379150391,-0.05806336551905,-0.08833459764719,10.01917457580566,1.19398200511932,2.00198316574097,0.82800573110580
453,852177697,-0.40498298406601,0.20988635718822,52.85498809814453,0.00119738851208,-0.10395393520594,9.98978424072266,1.29654157161713,1.85434257984161,0.82959395647049
454,852186030,-0.40643966197968,0.20977838337421,52.85940933227539,0.09303753823042,-0.07759085297585,10.02555084228516,1.14577603340149,1.92063236236572,0.92718410491943
455,852194363,-0.40983718633652,0.20720610022545,52.86168289184570,0.63575267791748,-0.12438540160656,10.06282520294189,0.90976637601852,1.63762044906616,1.14149844646454
456,852202696,-0.40668720006943,0.20283178985119,52.86537551879883,0.26182556152344,-0.20512750744820,10.00257587432861,1.69888985157013,1.41721010208130,0.77152645587921
457,852211029,-0.41170433163643,0.20545193552971,52.86590194702148,0.32338577508926,-0.06419277191162,10.02204132080078,0.71602034568787,2.26117348670959,0.93663567304611
458,852219362,-0.41146326065063,0.20287340879440,52.87107849121094,0.75456494092941,-0.14419387280941,10.02074813842773,1.35117626190186,1.63741552829742,0.98110193014145
459,852227695,-0.40545955300331,0.20970365405083,52.86947250366211,-0.27682885527611,-0.02542588487267,10.02394771575928,2.03909778594971,2.76866817474365,0.68292671442032
460,852236028,-0.41042011976242,0.20656789839268,52.87501525878906,-0.12627577781677,-0.04970694705844,9.97956562042236,0.72708564996719,1.57276511192322,0.95958608388901
461,852244361,-0.40687677264214,0.21451604366302,52.87331390380859,0.21183452010155,-0.09056049585342,10.00171661376953,1.74440646171570,2.90368103981018,0.67408984899521
462,852252694,-0.40669938921928,0.20663118362427,52.87811279296875,0.27099218964577,0.10152357816696,10.06628227233887,1.34310805797577,1.00433421134949,0.94178426265717
463,852261027,-0.40662282705307,0.20654645562172,52.87859725952148,0.24133270978928,-0.26238772273064,9.90982246398926,1.32722723484039,1.93879270553589,0.93000155687332
464,852269360,-0.40721711516380,0.20682530105114,52.88224029541016,-0.18550360202789,0.05091973394156,10.10339832305908,1.25156271457672,1.98922729492188,0.90300416946411
465,852277693,-0.41440120339394,0.20754809677601,52.88383865356445,0.41569331288338,-0.18955089151859,9.95854377746582,0.45588216185570,2.03336024284363,1.06219661235809
466,852286026,-0.40828949213028,0.20646885037422,52.88434600830078,0.06595393270254,-0.09764423221350,10.01774501800537,2.05510687828064,1.82924079895020,0.62480807304382
467,852294359,-0.41334384679794,0.20793287456036,52.88531875610352,0.25507268309593,-0.05624137818813,10.06157970428467,0.71348452568054,2.12288212776184,0.98950350284576
468,852302692,-0.40884837508202,0.20839580893517,52.88857269287109,0.86447560787201,-0.23919655382633,9.95195293426514,1.86143791675568,2.01683926582336,0.82572615146637
469,852311025,-0.40143120288849,0.18933421373367,52.88827514648438,0.30521157383919,0.12331827729940,10.20615768432617,2.20897197723389,-0.33858180046082,0.81955307722092
470,852319358,-0.41171482205391,0.20309978723526,52.89247512817383,0.25971657037735,-0.43673980236053,9.79435062408447,0.08567961305380,3.61985468864441,1.06465566158295
471,852327691,-0.40891367197037,0.20165111124516,52.89236068725586,1.25221657752991,0.16151201725006,10.07293319702148,1.65657520294189,1.77422142028809,0.85449093580246
472,852336024,-0.40890422463417,0.20034550130367,52.89542007446289,0.44856902956963,-0.15662969648838,10.07585334777832,1.32228362560272,1.82452774047852,0.90541201829910
473,852344357,-0.40990352630615,0.22889848053455,52.89525985717773,0.51861566305161,-0.11250682920218,9.87987422943115,1.20010375976562,5.37468576431274,0.87587869167328
474,852352690,-0.40452787280083,0.19810771942139,52.89799880981445,0.32785943150520,0.24581420421600,9.64231109619141,1.96812093257904,-1.70771384239197,0.81074178218842
475,852361023,-0.40434536337852,0.17735859751701,52.89700317382812,1.12971961498260,-0.45467033982277,10.37544345855713,1.34090518951416,-0.54031944274902,0.73264390230179
476,852369356,-0.41431078314781,0.21964763104916,52.89968490600586,-0.32775479555130,0.00462691625580,9.94072628021240,0.12860907614231,7.07152652740479,0.87828648090363
477,852377689,-0.41037416458130,0.19114995002747,52.90033340454102,0.44439122080803,-0.04104680567980,10.21069526672363,1.79107534885406,-1.47185802459717,0.92390537261963
478,852386022,-0.41596740484238,0.20355944335461,52.90273284912109,-0.22460421919823,-0.06544022262096,10.23692512512207,0.65152370929718,3.48888969421387,0.82549566030502
479,852394355,-0.41599804162979,0.19179394841194,52.90302658081055,1.50264799594879,-0.17955242097378,9.80910968780518,1.31626427173615,0.53592664003372,0.89601153135300
480,852402688,-0.41684687137604,0.21097016334534,52.90466690063477,-0.75568020343781,-0.02554012462497,10.18303298950195,1.22100496292114,4.30905771255493,0.78815001249313
481,852411021,-0.41137942671776,0.19838666915894,52.90550994873047,1.28993189334869,-0.13518130779266,10.05485439300537,1.97526741027832,0.43621045351028,0.95776754617691
482,852419354,-0.41181439161301,0.19438321888447,52.90799713134766,-0.63188511133194,-0.12082001566887,9.75510025024414,1.27120876312256,1.53086030483246,0.91921794414520
483,852427687,-0.41518422961235,0.19876709580421,52.90946578979492,1.32671153545380,-0.11020286381245,9.99933052062988,0.91445380449295,2.47302842140198,1.05136179924011
484,852436020,-0.41585710644722,0.22051452100277,52.91102218627930,-0.55983972549438,-0.07481541484594,9.86337280273438,1.24313569068909,4.62357473373413,0.83499854803085
485,852444353,-0.41714343428612,0.21436777710915,52.91497039794922,1.04716157913208,0.06825106590986,10.45356369018555,1.16280949115753,1.20835149288177,1.33877921104431
486,852452686,-0.40488162636757,0.17033782601357,52.91390228271484,-0.36184367537498,-0.16850100457668,9.76482009887695,2.79625511169434,-3.26395797729492,0.45283401012421
487,852461019,-0.43471330404282,0.22627806663513,52.91650772094727,0.15728415548801,-0.15061362087727,10.46027851104736,-2.26190376281738,8.65958499908447,1.23332560062408
488,852469352,-0.41050040721893,0.21066391468048,52.91568756103516,0.64174312353134,0.01484647579491,9.79651546478271,4.23075437545776,0.14495095610619,0.47916552424431
489,852477685,-0.41696077585220,0.21823740005493,52.91771697998047,0.37465119361877,-0.05361589044333,9.85659599304199,0.54312425851822,2.85555195808411,1.12049484252930
490,852486018,-0.40959942340851,0.19991040229797,52.91887664794922,0.69386929273605,-0.25202262401581,10.00822544097900,2.20851063728333,-0.17716082930565,0.81962978839874
491,852494351,-0.41126474738121,0.19521376490593,52.91875457763672,0.17990277707577,-0.08733686059713,9.55176448822021,1.11813807487488,1.38462853431702,0.85172450542450
492,852502684,-0.42209875583649,0.23200710117817,52.91687774658203,-0.50921094417572,-0.15844114124775,10.38947486877441,0.02622897550464,6.44418287277222,0.53561919927597
493,852511017,-0.41186088323593,0.21196481585503,52.91662979125977,0.13888446986675,0.22692011296749,10.22767162322998,2.54800176620483,-0.45620238780975,0.82365137338638
494,852519350,-0.41283437609673,0.18450224399567,52.91668701171875,-0.58280640840530,-0.25964292883873,10.01510238647461,1.20768558979034,-1.26968479156494,0.72037464380264
495,852527683,-0.42582038044930,0.21353170275688,52.91645812988281,-0.99973744153976,-0.07417327165604,9.70645523071289,-0.23930101096630,5.43196010589600,0.86824584007263
496,852536016,-0.42834764719009,0.23714606463909,52.91541290283203,-1.27416586875916,0.08826719969511,10.24291419982910,1.02029180526733,4.84885168075562,0.76650601625443
497,852544349,-0.42199033498764,0.23948727548122,52.91598510742188,-1.15759992599487,0.07423321157694,10.03245162963867,2.08159184455872,2.22910451889038,0.94152802228928
498,852552682,-0.41485595703125,0.22850210964680,52.91684341430664,-1.46670544147491,-0.08702152222395,9.67308807373047,2.17861914634705,0.67808568477631,0.96388930082321
499,852561015,-0.41198208928108,0.21772472560406,52.91603469848633,-1.67674243450165,-0.10574378073215,10.09005165100098,1.66523277759552,0.65531462430954,0.76537901163101
500,852569348,-0.41344496607780,0.21842536330223,52.91439819335938,-1.87884891033173,0.00240642670542,10.03208446502686,1.14726161956787,2.06358551979065,0.67498642206192
501,852577681,-0.41928428411484,0.23797553777695,52.91373062133789,-1.76951813697815,0.06770811229944,9.95157623291016,0.61853259801865,4.29468774795532,0.80710458755493
502,852586014,-0.41779530048370,0.24200049042702,52.91480255126953,-1.36835014820099,0.07899034023285,10.12439155578613,1.49971354007721,2.43857765197754,1.00179839134216
503,852594347,-0.41053453087807,0.23388588428497,52.91521835327148,-1.03559660911560,0.00195658672601,9.92325496673584,2.18973517417908,0.97316163778305,0.91378784179688
504,852602680,-0.41014775633812,0.20136854052544,52.91833114624023,0.52323967218399,-0.01552826538682,10.13354015350342,1.36516201496124,-1.96372830867767,1.21516501903534
505,852611013,-0.42713549733162,0.21634951233864,52.92343521118164,2.34562015533447,-0.41543459892273,10.07133197784424,-0.72256469726562,3.74188113212585,1.49840700626373
506,852619346,-0.42051300406456,0.18046136200428,52.92359161376953,3.22093892097473,-0.17732365429401,10.03210830688477,2.11724734306335,-2.34837722778320,0.85725724697113
507,852627679,-0.42939603328705,0.18970850110054,52.92551803588867,3.24161887168884,-0.48086374998093,9.90522193908691,0.25168547034264,3.05585503578186,1.10958302021027
508,852636012,-0.42890444397926,0.21838696300983,52.92271423339844,2.09306001663208,-0.16131193935871,10.14442253112793,1.38516664505005,5.44363975524902,0.56228363513947
509,852644345,-0.40217158198357,0.19582068920135,52.91479492187500,-1.87994217872620,0.28584709763527,9.89175510406494,4.53026199340820,-0.75240540504456,-0.09957534819841
510,852652678,-0.41138336062431,0.27782520651817,52.91070556640625,-5.44767904281616,-0.00928466487676,9.81442260742188,0.21959087252617,11.84399795532227,0.45050323009491
511,852661011,-0.41636458039284,0.29770162701607,52.91040802001953,-2.47941255569458,0.48974508047104,10.58269214630127,0.72132253646851,4.33282804489136,0.85451656579971
512,852669344,-0.39766073226929,0.25095114111900,52.91179656982422,-1.26882040500641,0.11937325447798,9.35205364227295,3.56375956535339,-3.65882682800293,0.99941611289978
513,852677677,-0.40139800310135,0.19840990006924,52.91363143920898,-1.53017234802246,-0.21624644100666,9.73678588867188,0.86978268623352,-4.35814666748047,1.04682815074921
514,852686010,-0.41728898882866,0.20139425992966,52.91340637207031,-1.50892198085785,-0.14676909148693,10.24784851074219,-0.58739846944809,2.29431819915771,0.84524410963058
515,852694343,-0.42961376905441,0.22326837480068,52.91376113891602,-0.33186522126198,0.07647921890020,10.19391918182373,-0.15966632962227,4.57188510894775,0.93271678686142
516,852702676,-0.42933613061905,0.22050321102142,52.91260910034180,-0.16457290947437,-0.06516232341528,10.10542964935303,1.35102283954620,1.59545958042145,0.72816157341003
517,852711009,-0.42036607861519,0.22399882972240,52.91139984130859,-0.73965090513229,-0.36265659332275,9.72631168365479,2.39741587638855,2.36783123016357,0.73069733381271
518,852719342,-0.40908706188202,0.22572913765907,52.90919494628906,-1.29035544395447,-0.09261433035135,10.22089958190918,2.67394685745239,2.13174486160278,0.60493141412735
519,852727675,-0.41522079706192,0.21019048988819,52.91072082519531,-1.51632404327393,-0.26356795430183,10.35892581939697,0.58241641521454,0.08081290125847,1.04203820228577
520,852736008,-0.41884791851044,0.21327300369740,52.91291427612305,-1.28816998004913,-0.25162118673325,9.65993309020996,0.88568907976151,2.27387833595276,1.13524854183197
521,852744341,-0.41731482744217,0.21898078918457,52.91567611694336,0.02280144393444,-0.06587784737349,9.78426551818848,1.50155782699585,2.63086390495300,1.20755755901337
522,852752674,-0.40893483161926,0.22498585283756,52.91678619384766,-2.37936997413635,0.20990040898323,10.07999515533447,2.32797503471375,2.61787676811218,1.00799679756165
523,852761007,-0.40576818585396,0.21648365259171,52.91702651977539,-0.86820173263550,0.27365428209305,9.95884609222412,1.69865906238556,0.92859280109406,0.89181077480316
524,852769340,-0.41382727026939,0.18730261921883,52.91609191894531,-1.58525371551514,0.08521767705679,9.53677463531494,0.35173463821411,-1.61980569362640,0.73446249961853
525,852777673,-0.40655851364136,0.23584483563900,52.91266250610352,-1.04000222682953,0.31287786364555,10.31506824493408,2.19255328178406,7.77627801895142,0.49955448508263
526,852786006,-0.40642383694649,0.20938818156719,52.91282272338867,-0.91684180498123,0.25542479753494,10.37904357910156,1.33324658870697,-1.30836224555969,0.86870676279068
527,852794339,-0.41400697827339,0.21095137298107,52.91215896606445,-1.65775465965271,0.00631268788129,9.96498966217041,0.40790665149689,2.13645768165588,0.79104441404343
528,852802672,-0.41744938492775,0.24819813668728,52.91141510009766,-1.06556451320648,-0.13039693236351,9.92079353332520,0.90195399522781,6.32433414459229,0.81509619951248
529,852811005,-0.41030573844910,0.18001405894756,52.91188812255859,-0.15934486687183,-0.28724443912506,10.56072998046875,2.17541694641113,-6.23382568359375,0.86793828010559
530,852819338,-0.42117679119110,0.22019824385643,52.91168975830078,-1.76189327239990,-0.40647009015083,9.40271568298340,0.01019446551800,6.67107343673706,0.88015633821487
531,852827671,-0.41622287034988,0.19728904962540,52.91212844848633,0.85196030139923,-0.34261596202850,10.52137851715088,1.91371631622314,-0.80114918947220,0.90277361869812
532,852836004,-0.41161382198334,0.19000878930092,52.91252136230469,0.74078589677811,-0.30543050169945,10.22186470031738,1.87127351760864,0.96983170509338,0.91209739446640
533,852844337,-0.40642526745796,0.19980110228062,52.91476440429688,1.08841967582703,-0.17929394543171,9.66337966918945,1.94176387786865,3.12257957458496,1.14721024036407
534,852852670,-0.41363328695297,0.20953769981861,52.91749572753906,1.13869309425354,-0.09463033825159,9.95343208312988,0.45316705107689,3.02342724800110,1.20553386211395
535,852861003,-0.40122416615486,0.19447161257267,52.92004394531250,1.17488420009613,0.03503483533859,10.24351310729980,2.80837035179138,0.13688246905804,1.16421818733215
536,852869336,-0.39594501256943,0.16955687105656,52.92117309570312,1.26495420932770,0.13069823384285,9.98210811614990,1.95198416709900,-1.11955988407135,0.98473936319351
537,852877669,-0.39652910828590,0.16674590110779,52.92128372192383,1.85286831855774,0.11455039680004,9.82290649414062,1.25010263919830,1.61064875125885,0.88095033168793
538,852886002,-0.40838566422462,0.17537285387516,52.92044448852539,1.83115947246552,0.02411275729537,10.00973510742188,-0.10446765273809,2.92599081993103,0.72690641880035
539,852894335,-0.41381105780602,0.17999391257763,52.91920852661133,1.90629100799561,-0.05445273593068,9.87244033813477,0.66848027706146,2.50391936302185,0.72577935457230
540,852902668,-0.40945547819138,0.17854152619839,52.91897964477539,1.90605127811432,-0.01170938275754,10.10554027557373,1.83894836902618,1.73685026168823,0.75531262159348
541,852911001,-0.41000157594681,0.18027201294899,52.91800308227539,1.61076128482819,-0.21534304320812,10.05487728118896,1.25399613380432,2.15743613243103,0.75418561697006
542,852919334,-0.41655057668686,0.20251542329788,52.91666793823242,0.31286635994911,-0.34826251864433,9.81470203399658,0.53359580039978,4.60180234909058,0.70864343643188
543,852927667,-0.41372057795525,0.20049434900284,52.91555404663086,0.04411973431706,-0.14608179032803,10.14169406890869,1.65816318988800,1.70583128929138,0.73543596267700
544,852936000,-0.41393768787384,0.19843922555447,52.91578292846680,-0.22109028697014,-0.27418881654739,9.94295883178711,1.29421043395996,1.68728637695312,0.76755613088608
545,852944333,-0.41473531723022,0.20092447102070,52.91500473022461,-0.39462530612946,-0.18556508421898,10.07104492187500,1.22397613525391,2.24723887443542,0.77867269515991
546,852952666,-0.41726425290108,0.20381747186184,52.91546249389648,-0.45972716808319,-0.04696846753359,10.17288589477539,1.01798665523529,2.27836084365845,0.79399013519287
547,852960999,-0.41736593842506,0.20833998918533,52.91635894775391,-0.55610328912735,-0.05958988890052,9.95331668853760,1.30735063552856,2.49070286750793,0.98161441087723
548,852969332,-0.41150993108749,0.23971439898014,52.91707229614258,-2.49002265930176,0.19598864018917,10.10442066192627,2.02426719665527,5.69061183929443,0.83661216497421
549,852977665,-0.41389402747154,0.18862068653107,52.91696166992188,-3.57387280464172,0.11145728826523,9.88157272338867,1.03297078609467,-4.18317651748657,0.81281656026840
550,852985998,-0.42342379689217,0.26422578096390,52.91461181640625,-3.27247357368469,0.08661071956158,9.62068557739258,0.17573930323124,11.02213954925537,0.65408521890640
551,852994331,-0.40555623173714,0.20293159782887,52.91776657104492,1.06025922298431,0.04741998761892,10.44989776611328,3.46178936958313,-5.46132564544678,0.98156309127808
552,853002664,-0.40468725562096,0.17329588532448,52.92108154296875,0.39257603883743,-0.19503287971020,9.72254753112793,1.42187190055847,-1.67410790920258,1.09288251399994
553,853010997,-0.41019421815872,0.17336733639240,52.92269897460938,0.92631202936172,-0.25356099009514,10.07489395141602,0.65792721509933,1.95505762100220,1.06391286849976
554,853019330,-0.42726364731789,0.17730285227299,52.92551803588867,1.42107987403870,-0.20017492771149,10.09950256347656,-0.73101741075516,2.36327195167542,1.05791914463043
555,853027663,-0.42037695646286,0.18220673501492,52.92387008666992,1.22982561588287,-0.07878009974957,10.17843723297119,2.14606285095215,2.53878045082092,0.67726600170135
556,853035996,-0.41640302538872,0.18393366038799,52.92319107055664,1.51264321804047,-0.06026112288237,10.01631546020508,1.79686415195465,2.11425018310547,0.60992616415024
557,853044329,-0.41233035922050,0.19558221101761,52.92140197753906,0.00816600583494,-0.03413022309542,10.01162910461426,1.80844175815582,3.34793400764465,0.66627740859985
558,853052662,-0.41355571150780,0.20171175897121,52.92232513427734,-0.12936691939831,-0.00102802796755,9.93878078460693,1.17264533042908,2.65148329734802,0.74406796693802
559,853060995,-0.41188895702362,0.21757674217224,52.92213821411133,-1.46478331089020,0.12466814368963,9.87409305572510,1.51943647861481,3.85343146324158,0.86156052350998
560,853069328,-0.41016021370888,0.20997561514378,52.92429351806641,-0.34100702404976,0.05833209306002,10.13535022735596,1.52514827251434,0.99454951286316,0.93146163225174
561,853077661,-0.41255408525467,0.21499478816986,52.92424011230469,-1.32870733737946,-0.00900355633348,10.04390621185303,1.03235614299774,2.55138254165649,0.86837375164032
562,853085994,-0.41618183255196,0.19645485281944,52.92538452148438,-0.92494845390320,-0.12757095694542,10.05992317199707,0.88233339786530,-0.32380232214928,0.75085562467575
563,853094327,-0.41567736864090,0.20966431498528,52.92482757568359,0.17475275695324,-0.20116809010506,9.93291282653809,1.37878859043121,3.53309941291809,0.81443017721176
564,853102660,-0.41682365536690,0.18986526131630,52.92590713500977,0.86811876296997,-0.32732111215591,10.05214214324951,1.18204581737518,-0.47833299636841,0.80510658025742
565,853110993,-0.41787984967232,0.20209111273289,52.92699813842773,-0.18042847514153,-0.19743022322655,9.92789173126221,1.19080567359924,3.41401886940002,1.01155722141266
566,853119326,-0.42074102163315,0.19038996100426,52.93151092529297,1.12503492832184,-0.21934193372726,10.02029609680176,0.97631204128265,0.49545606970787,1.17559087276459
567,853127659,-0.41340595483780,0.18249483406544,52.93291473388672,1.38791596889496,-0.27674019336700,9.82867622375488,2.19770145416260,1.00044071674347,1.03381609916687
568,853135992,-0.41444101929665,0.17498922348022,52.93595123291016,1.71187233924866,0.00641054287553,10.07948589324951,1.19764471054077,1.01219761371613,1.03484070301056
569,853144325,-0.41278183460236,0.16162902116776,52.93655014038086,1.34260249137878,-0.01796567067504,10.10437583923340,1.51795089244843,0.34540799260139,0.93105179071426
570,853152658,-0.41312563419342,0.17702056467533,52.93803024291992,-0.06636991351843,0.07344571501017,9.93744373321533,1.27971279621124,3.77802276611328,0.76005119085312
571,853160991,-0.41690224409103,0.18889574706554,52.93695449829102,0.07119210809469,0.17766384780407,10.06006336212158,0.86673450469971,3.37408661842346,0.75223886966705
572,853169324,-0.41611996293068,0.19198332726955,52.93824005126953,0.19754061102867,0.06242283061147,9.85944080352783,1.41329109668732,2.30259180068970,0.72424256801605
573,853177657,-0.41097205877304,0.18921981751919,52.93775177001953,-0.06198731809855,0.09643156081438,10.13574123382568,1.93669223785400,1.61728274822235,0.80992215871811
574,853185990,-0.41584831476212,0.18950331211090,52.93896865844727,-0.03067789599299,-0.07731323689222,10.05189037322998,0.73292565345764,1.96548259258270,0.79119807481766
575,853194323,-0.41575330495834,0.19291515648365,52.93883132934570,0.07913061976433,-0.19348096847534,9.72721004486084,1.33055710792542,2.35758566856384,0.85615587234497
576,853202656,-0.42217588424683,0.15326994657516,52.94347381591797,4.49154520034790,-0.35602748394012,10.77621650695801,0.54555761814117,-2.82577538490295,1.18317282199860
577,853210989,-0.41419842839241,0.17586815357208,52.94090652465820,3.44105982780457,-0.46429386734962,9.68187999725342,2.27736163139343,4.66140699386597,0.58367151021957
578,853219322,-0.41600590944290,0.17881189286709,52.94272994995117,0.01317344419658,-0.26303294301033,9.96386432647705,1.10576653480530,2.32454299926758,0.85082811117172
579,853227655,-0.43162375688553,0.23606142401695,52.94230651855469,0.24879631400108,-0.18794868886471,10.58119201660156,-0.55568802356720,8.81836700439453,0.86929595470428
580,853235988,-0.41553002595901,0.19751106202602,52.94573593139648,0.89517468214035,0.05391175299883,9.62757587432861,3.25349450111389,-2.65436506271362,1.06806242465973
581,853244321,-0.39845305681229,0.20292082428932,52.94237518310547,-1.38289105892181,-0.17742608487606,9.87508010864258,3.36978340148926,2.60002422332764,0.47212162613869
582,853252654,-0.42274111509323,0.24342250823975,52.94636535644531,-2.01393342018127,-0.04930102452636,9.85961246490479,-1.59311568737030,6.82814025878906,1.12410628795624
583,853260987,-0.41686573624611,0.24539108574390,52.94759750366211,-1.46256399154663,0.35305076837540,9.93900299072266,2.02285861968994,2.18294763565063,1.01839637756348
584,853269320,-0.40786761045456,0.21990071237087,52.95063400268555,-1.41989886760712,0.30839332938194,10.10113048553467,2.40077114105225,-1.10603535175323,0.98204982280731
585,853277653,-0.41119179129601,0.20179076492786,52.95086669921875,-1.79960525035858,-0.02824657596648,9.87967109680176,0.91862887144089,-0.22513629496098,0.88256400823593
586,853285986,-0.41781410574913,0.19704276323318,52.94970703125000,-1.70630347728729,-0.05551321431994,9.89100837707520,0.52591145038605,1.37166786193848,0.57767784595490
587,853294319,-0.42125916481018,0.19806048274040,52.94914245605469,-0.37329751253128,0.09203536808491,10.30566120147705,0.90592420101166,2.07098770141602,0.80385148525238
588,853302652,-0.42225214838982,0.21170549094677,52.95079803466797,-1.08099305629730,-0.20697595179081,9.84095478057861,1.19884860515594,3.56939482688904,0.81571090221405
589,853310985,-0.42051354050636,0.21632248163223,52.95088958740234,-2.21101188659668,-0.21574477851391,10.17346477508545,1.52699255943298,2.50087141990662,0.88607317209244
590,853319318,-0.42597019672394,0.21243104338646,52.95464324951172,1.14265620708466,-0.25660803914070,10.28187561035156,0.66394656896591,1.44840800762177,1.02848815917969
591,853327651,-0.41504883766174,0.18945965170860,52.95531463623047,1.16873466968536,-0.31273305416107,9.73430633544922,2.62986445426941,-0.80819308757782,0.93074446916580
592,853335984,-0.41226473450661,0.19888070225716,52.95890426635742,0.26190856099129,-0.21519251167774,9.97667884826660,1.65488457679749,3.05639314651489,1.05079841613770
593,853344317,-0.41617843508720,0.18748591840267,52.96039199829102,-0.10283642262220,-0.08697141706944,10.17967605590820,0.84788233041763,0.57819014787674,1.03768384456635
594,853352650,-0.41632956266403,0.19263631105423,52.96264648437500,-0.04189505428076,0.00222003180534,9.88799953460693,1.30376458168030,2.54725861549377,0.93986308574677
595,853360983,-0.41608768701553,0.19784307479858,52.96311950683594,0.02780348062515,0.17070513963699,10.03306388854980,1.34825646877289,2.57156705856323,0.93233257532120
596,853369316,-0.41425782442093,0.20095184445381,52.96593856811523,0.03979905694723,0.14188280701637,10.04882431030273,1.53816044330597,2.30125951766968,1.00202882289886
597,853377649,-0.41228717565536,0.20176012814045,52.96620941162109,0.09124003350735,0.10246833413839,10.00301647186279,1.55662834644318,2.04583430290222,0.90292745828629
598,853385982,-0.41615727543831,0.20244616270065,52.96804046630859,0.16589093208313,0.06218745931983,9.99888706207275,0.85287714004517,2.01230573654175,0.82516252994537
599,853394315,-0.41495117545128,0.20677573978901,52.96670532226562,-0.07756390422583,-0.02506480552256,9.85560798645020,1.46536469459534,2.46887922286987,0.71407359838486
600,853402648,-0.41656008362770,0.25810053944588,52.96618652343750,-4.33299112319946,0.13336329162121,10.40446472167969,1.12548935413361,8.09153652191162,0.60403490066528
601,853410981,-0.40664774179459,0.19387206435204,52.96306610107422,-3.41154479980469,-0.13240161538124,9.42559051513672,2.50942683219910,-5.75617218017578,0.44228103756905
602,853419314,-0.42470845580101,0.22101891040802,52.96253204345703,-3.68780612945557,-0.13970828056335,9.78423595428467,-0.84833061695099,5.15819406509399,0.55470180511475
603,853427647,-0.42675697803497,0.22256346046925,52.96143722534180,-1.50058615207672,-0.08857075870037,11.00622081756592,1.07423543930054,2.13430619239807,0.73989278078079
604,853435980,-0.42215025424957,0.26482880115509,52.96397018432617,-3.79902267456055,0.07092373073101,9.73897266387939,1.86876344680786,6.94629955291748,1.04869818687439
605,853444313,-0.40327295660973,0.23949615657330,52.96736145019531,0.49145737290382,-0.06416141986847,10.03216743469238,3.58309841156006,-1.09461140632629,1.25571227073669
606,853452646,-0.40856206417084,0.18972434103489,52.97108078002930,-0.45349848270416,-0.25874125957489,10.03769111633301,0.68131309747696,-4.11196851730347,1.12720561027527
607,853460979,-0.41317453980446,0.19691115617752,52.97147369384766,0.58227336406708,-0.35716938972473,9.67414474487305,0.76486665010452,2.81075263023376,0.92659497261047
608,853469312,-0.41469621658325,0.16718964278698,52.97340774536133,-0.13222166895866,-0.06806509196758,10.11920166015625,1.13583779335022,-1.70179712772369,0.89962321519852
609,853477645,-0.41684100031853,0.17576485872269,52.97330856323242,0.72836071252823,0.05365447327495,10.40229034423828,1.06224787235260,2.97719383239746,0.86627340316772
610,853485978,-0.41428637504578,0.18630687892437,52.97423171997070,0.12992312014103,0.11889827996492,9.73725032806396,1.62512075901031,3.13282585144043,0.85638642311096
611,853494311,-0.41556224226952,0.20740799605846,52.97582626342773,0.63591748476028,0.01605420187116,9.68275165557861,1.16508924961090,4.47900819778442,1.08153557777405
612,853502644,-0.40900456905365,0.20617315173149,52.97869873046875,1.14786481857300,-0.00030793203041,10.08870506286621,2.10362005233765,1.72427320480347,1.03642868995667
613,853510977,-0.40300530195236,0.18725071847439,52.98070526123047,1.75221717357635,-0.02377100661397,10.60223388671875,2.03784275054932,-0.32515987753868,1.09477794170380
614,853519310,-0.40055847167969,0.16132810711861,52.98173141479492,2.05564546585083,-0.11871987581253,9.34431838989258,1.61098194122314,-1.22450137138367,0.83558762073517
615,853527643,-0.40316063165665,0.15583322942257,52.97953033447266,1.78358829021454,-0.22454868257046,10.03085803985596,1.00799703598022,1.29121375083923,0.60139673948288
616,853535976,-0.41658812761307,0.16766950488091,52.97886276245117,1.57246994972229,-0.09551433473825,10.19243049621582,-0.29406425356865,3.32598304748535,0.52442592382431
617,853544309,-0.42768353223801,0.22159039974213,52.97594451904297,-0.30314892530441,-0.05229678004980,9.83765411376953,-0.01069394312799,8.42037200927734,0.56822621822357
618,853552642,-0.42936453223228,0.21301169693470,52.97800827026367,-3.57622838020325,0.19809798896313,9.62865638732910,1.11693429946899,0.88002824783325,0.80648982524872
619,853560975,-0.42409980297089,0.23423013091087,52.97758483886719,-0.39805117249489,-0.12182196229696,10.54000568389893,1.95054960250854,4.49517059326172,0.83702200651169
620,853569308,-0.40736702084541,0.16860462725163,52.98166275024414,-0.31527990102768,-0.32643416523933,10.13341522216797,3.32467675209045,-5.98393344879150,0.96860235929489
621,853577641,-0.40709057450294,0.19510160386562,52.98236083984375,-0.40684545040131,-0.22645094990730,9.93086147308350,1.35166323184967,5.12830352783203,0.97841262817383
622,853585974,-0.42605498433113,0.17928947508335,52.98627853393555,0.47994831204414,-0.34787133336067,10.47246360778809,-0.95865100622177,-0.00703110685572,0.94675332307816
623,853594307,-0.42647162079811,0.18610957264900,52.98636245727539,0.03911755979061,-0.14005415141582,9.75662326812744,1.26939034461975,2.76649117469788,0.88615006208420
624,853602640,-0.42129334807396,0.20350028574467,52.99096298217773,0.59971487522125,-0.05957615748048,9.91843223571777,1.94020152091980,3.98006820678711,1.01434934139252
625,853610973,-0.41512975096703,0.19650256633759,52.99225616455078,0.80266052484512,-0.04375420138240,10.15167140960693,2.05905175209045,1.10620200634003,1.01898562908173
626,853619306,-0.40543889999390,0.21477583050728,52.99546813964844,-0.87254142761230,0.13112795352936,9.99956989288330,2.48160958290100,4.09361553192139,0.90023785829544
627,853627639,-0.41144579648972,0.18064305186272,52.99755477905273,-0.14768780767918,0.06607149541378,9.80960750579834,0.59832286834717,-2.14920067787170,1.09014177322388
628,853635972,-0.41737121343613,0.18297962844372,53.00038909912109,-1.11389052867889,0.08694316446781,10.00660991668701,0.60662198066711,2.17695403099060,0.84076172113419
629,853644305,-0.42400175333023,0.18373712897301,52.99985885620117,0.26708811521530,0.10594824701548,10.08799457550049,0.52327316999435,2.03966140747070,0.80700200796127
630,853652638,-0.42163878679276,0.19611541926861,53.00162506103516,0.32264724373817,0.06143932789564,9.66784572601318,1.60176050662994,3.38207793235779,0.72111755609512
631,853660971,-0.41573739051819,0.17912797629833,52.99988555908203,1.04186046123505,-0.07078818231821,10.19716167449951,2.02746915817261,-0.08863805234432,0.64793771505356
632,853669304,-0.42758944630623,0.19051618874073,53.00179290771484,0.51593267917633,-0.18525663018227,10.20815181732178,-0.10431396216154,3.26822257041931,0.72291052341461
633,853677637,-0.43008714914322,0.19397783279419,53.00139617919922,0.00511956587434,-0.29519221186638,10.00179576873779,1.01819145679474,2.36434793472290,0.82657140493393
634,853685970,-0.42773792147636,0.20557120442390,53.00444793701172,-1.44811522960663,-0.16765257716179,9.62509632110596,1.59996759891510,3.29352951049805,0.83371776342392
635,853694303,-0.42757469415665,0.22917595505714,53.00410842895508,-0.68838083744049,-0.13711450994015,10.40395355224609,1.33885610103607,4.78245925903320,0.85069996118546
636,853702636,-0.41033947467804,0.21013365685940,53.00856399536133,-0.97166341543198,-0.21490272879601,10.00622081756592,3.38617634773254,-0.38988709449768,0.92239433526993
637,853710969,-0.40978339314461,0.19120508432388,53.00985336303711,-0.33658429980278,-0.16599708795547,10.17558670043945,1.38555073738098,-0.32431465387344,1.00902163982391
638,853719302,-0.42873549461365,0.18847721815109,53.01640701293945,-0.59431368112564,-0.11803487688303,9.79882526397705,-0.95606404542923,1.56228888034821,1.14359879493713
639,853727635,-0.42536038160324,0.20511908829212,53.01708221435547,0.91192102432251,0.03518462926149,9.83446025848389,1.72427356243134,3.94384908676147,0.96604096889496
640,853735968,-0.41138499975204,0.18412035703659,53.02313232421875,1.07071006298065,0.07443747669458,9.95268917083740,2.99571299552917,-0.62622964382172,1.04144918918610
641,853744301,-0.41142469644547,0.17660242319107,53.02326965332031,0.80725258588791,-0.02279069647193,10.27744770050049,1.31444573402405,1.04562425613403,0.88174438476562
642,853752634,-0.41724711656570,0.17107696831226,53.02359390258789,1.61267995834351,-0.14186233282089,9.88241100311279,0.61883991956711,1.23744928836823,0.90377265214920
643,853760967,-0.42264118790627,0.17788623273373,53.02366256713867,0.95650023221970,-0.01203992869705,9.89146709442139,0.67186141014099,2.76597857475281,0.88602209091187
644,853769300,-0.42397397756577,0.19268001616001,53.02225875854492,0.31229999661446,-0.01643927209079,9.72678756713867,1.15789151191711,3.68798851966858,0.71789008378983
645,853777633,-0.41621372103691,0.19550958275795,53.02050399780273,-0.35462647676468,0.00719412602484,10.13557338714600,2.25077414512634,2.28911852836609,0.66287076473236
646,853785966,-0.41650050878525,0.19544197618961,53.01903152465820,-0.75766479969025,-0.01093284506351,10.28553676605225,1.28475868701935,1.90672349929810,0.69212216138840
647,853794299,-0.41604310274124,0.19517534971237,53.01806259155273,0.50417017936707,-0.22778891026974,9.94116401672363,1.37356328964233,1.91689264774323,0.75418549776077
648,853802632,-0.41804099082947,0.18705762922764,53.01843261718750,-0.56490588188171,-0.06194244325161,10.09584903717041,1.07964003086090,0.93817251920700,0.90571916103363
649,853810965,-0.41573151946068,0.20901812613010,53.01839447021484,-0.17549799382687,-0.04928075894713,10.09972381591797,1.59627926349640,4.58213090896606,0.88453644514084
650,853819298,-0.41483381390572,0.20460245013237,53.01847839355469,0.23351401090622,-0.15782858431339,9.82014274597168,1.42576503753662,1.38104259967804,0.87718504667282
651,853827631,-0.41324526071548,0.19494442641735,53.01874160766602,-1.08614850044250,0.01998920552433,10.19841766357422,1.50867843627930,0.78917455673218,0.89250236749649
652,853835964,-0.41908228397369,0.21774545311928,53.01888656616211,0.11471123248339,-0.21074761450291,10.22411060333252,0.61817401647568,4.64296436309814,0.90815275907516
653,853844297,-0.41834136843681,0.20042106509209,53.02106475830078,0.05373284220695,-0.12317126989365,9.66304016113281,1.40619599819183,-0.13190050423145,1.11670386791229
654,853852630,-0.40930840373039,0.20287214219570,53.02157974243164,-0.41021338105202,0.00645004678518,10.10192394256592,2.40269231796265,2.20236325263977,0.93456101417542
655,853860963,-0.40821930766106,0.18404877185822,53.02312469482422,0.62163287401199,-0.21653948724270,9.91450691223145,1.44856190681458,-0.31176367402077,1.03996360301971
656,853869296,-0.41282284259796,0.16241243481636,53.02330398559570,0.85038006305695,-0.19717526435852,10.02517414093018,0.76648032665253,-0.68670481443405,0.87303555011749
657,853877629,-0.41965866088867,0.16201426088810,53.02338790893555,0.51098346710205,-0.02878300659359,10.12819862365723,0.49991303682327,1.90080666542053,0.87987452745438
658,853885962,-0.42101925611496,0.17089149355888,53.02312088012695,0.91244620084763,-0.08214954286814,9.76493644714355,1.15484333038330,2.98057460784912,0.84416830539703
659,853894295,-0.41762897372246,0.17369563877583,53.02245712280273,1.55056011676788,0.08964276313782,10.10447120666504,1.72632253170013,2.28453350067139,0.79345208406448
660,853902628,-0.41222098469734,0.17942483723164,53.02140426635742,1.17774105072021,0.04992123320699,10.15341377258301,1.96906888484955,2.61490631103516,0.74888342618942
661,853910961,-0.41113421320915,0.18823479115963,53.02090072631836,1.22789967060089,-0.04484610632062,10.09834575653076,1.44902300834656,3.00483202934265,0.81878465414047
662,853919294,-0.41086921095848,0.19120174646378,53.02019882202148,0.28081330657005,-0.07008283585310,9.82451915740967,1.35074102878571,2.29201269149780,0.78758639097214
663,853927627,-0.41006964445114,0.19313098490238,53.01892471313477,-0.22407598793507,-0.10047093033791,10.09132575988770,1.41521191596985,2.18092393875122,0.71991366147995
664,853935960,-0.41231206059456,0.20029893517494,53.01799774169922,-0.15123605728149,-0.15617823600769,10.05724048614502,1.04890286922455,2.79571676254272,0.76630103588104
665,853944293,-0.41367024183273,0.19906492531300,53.01756668090820,-0.24635493755341,-0.17970937490463,10.02099227905273,1.15694379806519,1.80027091503143,0.81758087873459
666,853952626,-0.41467648744583,0.19929321110249,53.01777267456055,-0.21956071257591,-0.23289489746094,10.05097198486328,1.19756805896759,1.96061611175537,0.89698493480682
667,853960959,-0.41767761111259,0.15723212063313,53.02237319946289,2.61803793907166,-0.26972827315331,10.24283313751221,0.95781880617142,-3.10240912437439,1.38813793659210
668,853969292,-0.41516062617302,0.15647442638874,53.02328109741211,2.96116137504578,-0.51758044958115,9.91408157348633,1.62179100513458,1.85009062290192,0.97528749704361
669,853977625,-0.42771074175835,0.19991476833820,53.02484893798828,0.81704342365265,-0.21999262273312,9.85896015167236,-0.18702235817909,7.15976858139038,1.09859478473663
670,853985958,-0.41433089971542,0.20517370104790,53.02359771728516,-0.30346482992172,0.25328490138054,10.10963153839111,2.92752742767334,2.58872795104980,0.72590732574463
671,853994291,-0.40777769684792,0.19777135550976,53.02176666259766,-0.85110867023468,0.06708182394505,10.05996417999268,2.10651469230652,1.06124901771545,0.64440292119980
672,854002624,-0.41389232873917,0.19666314125061,53.02180099487305,0.30417609214783,-0.07733072340488,9.74510383605957,0.58787232637405,1.82037782669067,0.87247204780579
673,854010957,-0.40701571106911,0.21416868269444,53.02149963378906,0.41631948947906,0.13899621367455,10.03229713439941,2.14309191703796,4.04797077178955,0.84977781772614
674,854019290,-0.40507629513741,0.20153880119324,53.02229309082031,-0.82457226514816,0.15526148676872,10.09412288665771,1.55265808105469,0.43966832756996,0.95466816425323
675,854027623,-0.40381920337677,0.17042060196400,53.02292251586914,0.84947586059570,-0.02616054192185,9.86001777648926,1.46951425075531,-1.78732287883759,0.92072933912277
676,854035956,-0.41230061650276,0.20827133953571,53.02086257934570,-1.29485034942627,-0.11334158480167,9.93469429016113,0.30273464322090,6.49886894226074,0.65656965970993
677,854044289,-0.41742840409279,0.20689395070076,53.01919174194336,-0.26429292559624,-0.05725990235806,10.28458786010742,0.70357173681259,1.78582441806793,0.66763496398926
678,854052622,-0.41309097409248,0.24146643280983,53.01710510253906,-0.93562740087509,-0.07815450429916,9.98405838012695,1.84109997749329,6.09997797012329,0.64952570199966
679,854060955,-0.40658089518547,0.22600618004799,53.01639175415039,-1.19788026809692,-0.17342317104340,9.92403221130371,2.09988045692444,0.09331264346838,0.77262777090073
680,854069288,-0.40307042002678,0.21763873100281,53.01723480224609,-0.34976929426193,-0.23996543884277,10.13723850250244,1.74140942096710,0.93935078382492,0.96452957391739
681,854077621,-0.40909627079964,0.20619744062424,53.01902389526367,-1.41930282115936,-0.28544133901596,9.85707569122314,0.59432703256607,0.57232445478439,1.07725775241852
682,854085954,-0.41478246450424,0.18316800892353,53.02161026000977,0.12546801567078,-0.06192216277122,10.08643817901611,0.63746154308319,-0.82676357030869,1.16076040267944
683,854094287,-0.41997325420380,0.18556767702103,53.02367782592773,0.40035638213158,-0.14530077576637,10.14915084838867,0.69601565599442,2.23448348045349,1.12077653408051
684,854102620,-0.41567176580429,0.19168914854527,53.02431869506836,1.31781423091888,-0.05912526696920,9.95955657958984,1.83707845211029,2.67230749130249,0.95169693231583
685,854110953,-0.41318103671074,0.18846023082733,53.02327728271484,-0.31596618890762,0.13161009550095,10.12710762023926,1.61869156360626,1.56269896030426,0.74301779270172
686,854119286,-0.41385614871979,0.20229639112949,53.02293014526367,0.82456088066101,0.02545815706253,10.07789230346680,1.23957502841949,3.60346150398254,0.84132504463196
687,854127619,-0.41028922796249,0.20285484194756,53.02326965332031,0.62251746654510,0.02969508245587,9.72887897491455,1.74596858024597,2.01458501815796,0.91245585680008
688,854135952,-0.40585294365883,0.18003287911415,53.02402496337891,0.79168868064880,0.02933217585087,10.07859992980957,1.85237014293671,-0.79057049751282,0.94152802228928
689,854144285,-0.41181576251984,0.19608682394028,53.02382278442383,0.03591261804104,-0.08902260661125,10.05264186859131,0.60234433412552,3.87446022033691,0.86076635122299
690,854152618,-0.41591650247574,0.20202232897282,53.02379989624023,1.05963325500488,-0.10244433581829,9.83540821075439,0.82838994264603,2.66411089897156,0.87477731704712
691,854160951,-0.41223394870758,0.19282102584839,53.02305603027344,-0.07233738899231,-0.07752566039562,9.96230983734131,1.76087617874146,0.84457814693451,0.77280706167221
692,854169284,-0.41284868121147,0.21290296316147,53.02033233642578,0.10719245672226,-0.14822290837765,10.06486797332764,1.24738776683807,4.36643314361572,0.56028586626053
693,854177617,-0.41198900341988,0.20684772729874,53.01836395263672,-0.89247620105743,-0.11272727698088,9.94970798492432,1.42156445980072,1.22359192371368,0.63005894422531
694,854185950,-0.41891849040985,0.19932872056961,53.01821136474609,-0.29119938611984,-0.16209772229195,10.35080718994141,0.48874524235725,1.04974818229675,0.84365612268448
695,854194283,-0.42617368698120,0.21002154052258,53.01914596557617,-0.79980218410492,-0.18357524275780,9.83367443084717,0.44868451356888,3.22990393638611,0.99370419979095
696,854202616,-0.42471525073051,0.20695978403091,53.02075958251953,-0.14368240535259,-0.03176578134298,10.09093189239502,1.49410402774811,1.58137166500092,1.05976343154907
697,854210949,-0.42465153336525,0.20512469112873,53.02244567871094,-0.83149707317352,-0.10438158363104,10.17719078063965,1.32569038867950,1.72540044784546,1.07303154468536
698,854219282,-0.42210158705711,0.20586885511875,53.02346801757812,-0.29088369011879,-0.16028688848019,9.85054874420166,1.62673437595367,2.03551197052002,0.99444705247879
699,854227615,-0.42064991593361,0.20874477922916,53.02392578125000,-0.21843117475510,-0.00027101649903,10.01561450958252,1.49292552471161,2.29160308837891,0.92744022607803
