sep=,
DeviceTag:,Xsens DOT
FirmwareVersion:,3.0.0
AppVersion:,2023.6.0
StartTime: ,2025-03-06_12:26:07_000 PST
© Movella Technologies B. V. 2005-2025

PacketCounter,SampleTimeFine,Euler_X,Euler_Y,Euler_Z,Acc_X,Acc_Y,Acc_Z,Gyr_X,Gyr_Y,Gyr_Z
0,991011697,-0.91430407762527,-0.56002157926559,11.15640068054199,0.00000000000000,0.00000000000000,0.00000000000000,0.00000000000000,0.00000000000000,0.00000000000000
1,991020030,-0.91530883312225,-0.55985045433044,11.15598869323730,0.08530480414629,-0.16412913799286,9.80184078216553,0.10719557106495,-1.06676888465881,-0.85598927736282
2,991028363,-0.91418850421906,-0.56045377254486,11.15608406066895,0.10867324471474,-0.16248428821564,9.77355194091797,0.36461859941483,-1.16041445732117,-0.80304467678070
3,991036696,-0.91446071863174,-0.56024914979935,11.15576839447021,0.09980355203152,-0.16266250610352,9.78684902191162,0.19597452878952,-1.06290113925934,-0.84359210729599
4,991045029,-0.91427880525589,-0.55936610698700,11.15553474426270,0.11542543023825,-0.15894332528114,9.77321529388428,0.24945706129074,-0.98167836666107,-0.83431965112686
5,991053362,-0.91424334049225,-0.55937123298645,11.15565109252930,0.09536885470152,-0.17161816358566,9.75904560089111,0.23460078239441,-1.08884823322296,-0.79231226444244
6,991061695,-0.91391104459763,-0.55906915664673,11.15616321563721,0.09864486008883,-0.14722695946693,9.81483745574951,0.26966664195061,-1.05257844924927,-0.77074515819550
7,991070028,-0.91416907310486,-0.55977523326874,11.15574836730957,0.10188516229391,-0.15586079657078,9.75702095031738,0.19753696024418,-1.17183840274811,-0.85627102851868
8,991078361,-0.91445541381836,-0.55989766120911,11.15565967559814,0.11093343794346,-0.15340702235699,9.75236511230469,0.19369485974312,-1.10283374786377,-0.82225537300110
9,991086694,-0.91431111097336,-0.56002599000931,11.15544319152832,0.09586240351200,-0.16408622264862,9.78871536254883,0.24702364206314,-1.10267984867096,-0.83145076036453
10,991095027,-0.91410320997238,-0.55980485677719,11.15466117858887,0.09736441820860,-0.18344148993492,9.78806495666504,0.25306862592697,-1.06044209003448,-0.90114718675613
11,991103360,-0.91371047496796,-0.55999958515167,11.15383434295654,0.10794354975224,-0.16191890835762,9.77471065521240,0.27530181407928,-1.10905790328979,-0.90611636638641
12,991111693,-0.91408175230026,-0.55942779779434,11.15315151214600,0.09282243996859,-0.15779887139797,9.76725006103516,0.18268074095249,-1.01840913295746,-0.88467735052109
13,991120026,-0.91417282819748,-0.55945277214050,11.15294647216797,0.09641317278147,-0.14586792886257,9.77458190917969,0.21841260790825,-1.09161460399628,-0.83157896995544
14,991128359,-0.91413289308548,-0.55917257070541,11.15281391143799,0.10538998991251,-0.16552393138409,9.78131961822510,0.23298706114292,-1.05393612384796,-0.82466304302216
15,991136692,-0.91425949335098,-0.55933302640915,11.15263557434082,0.08279409259558,-0.17270508408546,9.76416778564453,0.21472410857677,-1.10649645328522,-0.82809531688690
16,991145025,-0.91409426927567,-0.55933302640915,11.15261173248291,0.11305783689022,-0.14482361078262,9.78196334838867,0.24850931763649,-1.08854103088379,-0.80955076217651
17,991153358,-0.91481471061707,-0.55983972549438,11.15276813507080,0.08451084047556,-0.14333581924438,9.79251384735107,0.14326040446758,-1.14916980266571,-0.78916180133820
18,991161691,-0.91461676359177,-0.56011557579041,11.15313243865967,0.11928796023130,-0.15628962218761,9.80703449249268,0.25370898842812,-1.12101972103119,-0.76759451627731
19,991170024,-0.91464143991470,-0.55971145629883,11.15308570861816,0.09170653671026,-0.15402188897133,9.76177120208740,0.22614806890488,-1.03946399688721,-0.81144618988037
20,991178357,-0.91464430093765,-0.55916029214859,11.15311622619629,0.10562603175640,-0.15028123557568,9.78153419494629,0.22763369977474,-1.02312207221985,-0.80332642793655
21,991186690,-0.91440331935883,-0.55903804302216,11.15297222137451,0.08143511414528,-0.16744805872440,9.76740741729736,0.25806337594986,-1.07240390777588,-0.82361286878586
22,991195023,-0.91440695524216,-0.55927699804306,11.15292835235596,0.09230737388134,-0.16224047541618,9.78582668304443,0.22853021323681,-1.11704957485199,-0.80670750141144
23,991203356,-0.91391581296921,-0.55953496694565,11.15228748321533,0.11207780241966,-0.15322786569595,9.76813793182373,0.28741735219955,-1.11753630638123,-0.88319170475006
24,991211689,-0.91385543346405,-0.55966305732727,11.15190696716309,0.11748537421227,-0.17387814819813,9.76718616485596,0.23634253442287,-1.10224449634552,-0.85381209850311
25,991220022,-0.91384941339493,-0.56016808748245,11.15091514587402,0.10039730370045,-0.15434405207634,9.77542591094971,0.22927302122116,-1.14770972728729,-0.92776042222977
26,991228355,-0.91329962015152,-0.56033849716187,11.15096282958984,0.11069024354219,-0.18043045699596,9.79254913330078,0.29494789242744,-1.10846889019012,-0.79730707406998
27,991236688,-0.91284275054932,-0.56007546186447,11.15091419219971,0.09766491502523,-0.14412978291512,9.78907299041748,0.28442046046257,-1.05590844154358,-0.81183034181595
28,991245021,-0.91245371103287,-0.55998700857162,11.15118312835693,0.10293656587601,-0.14345741271973,9.78071117401123,0.27589091658592,-1.07796239852905,-0.78403896093369
29,991253354,-0.91257143020630,-0.55983889102936,11.15133380889893,0.09405981749296,-0.14383624494076,9.77399539947510,0.21490341424942,-1.07079017162323,-0.78795790672302
30,991261687,-0.91283059120178,-0.55985122919083,11.15133380889893,0.09048352390528,-0.14551058411598,9.78367328643799,0.19730643928051,-1.08987283706665,-0.81154859066010
31,991270020,-0.91323322057724,-0.56024050712585,11.15105724334717,0.09800110012293,-0.15465161204338,9.78001785278320,0.18078525364399,-1.13456964492798,-0.83977544307709
32,991278353,-0.91272139549255,-0.56068485975266,11.15135955810547,0.10355170816183,-0.15731246769428,9.80777072906494,0.29077279567719,-1.14105010032654,-0.77591913938522
33,991286686,-0.91206204891205,-0.56052094697952,11.15144538879395,0.09892381727695,-0.14262053370476,9.78732109069824,0.30916380882263,-1.06838250160217,-0.79520672559738
34,991295019,-0.91200292110443,-0.56007742881775,11.15209102630615,0.10863737761974,-0.15066748857498,9.75458240509033,0.23608639836311,-1.03677463531494,-0.73524379730225
35,991303352,-0.91247528791428,-0.55915594100952,11.15229988098145,0.10069057345390,-0.16493740677834,9.77599811553955,0.17328028380871,-0.97752881050110,-0.77932590246201
36,991311685,-0.91226547956467,-0.55952435731888,11.15293025970459,0.10034008324146,-0.15088921785355,9.75956821441650,0.25404196977615,-1.13285350799561,-0.73188829421997
37,991320018,-0.91227221488953,-0.55940175056458,11.15367507934570,0.08440354466438,-0.15666872262955,9.79364395141602,0.22958037257195,-1.07575941085815,-0.71654540300369
38,991328351,-0.91286313533783,-0.55960863828659,11.15378570556641,0.08726463466883,-0.16367821395397,9.76791572570801,0.15934614837170,-1.11205494403839,-0.79835730791092
39,991336684,-0.91289728879929,-0.55965465307236,11.15402030944824,0.09415280818939,-0.15402188897133,9.77056217193604,0.22537964582443,-1.09366393089294,-0.77825009822845
40,991345017,-0.91297376155853,-0.55933916568756,11.15321922302246,0.08839483559132,-0.15586760640144,9.77523231506348,0.21879678964615,-1.04904377460480,-0.90862649679184
41,991353350,-0.91269981861115,-0.55817830562592,11.15296936035156,0.10386643558741,-0.16184023022652,9.79129791259766,0.26049673557281,-0.94868713617325,-0.83431965112686
42,991361683,-0.91222846508026,-0.55830097198486,11.15351295471191,0.09169952571392,-0.17078156769276,9.76288700103760,0.28700751066208,-1.10352528095245,-0.75553029775620
43,991370016,-0.91200572252274,-0.55848717689514,11.15326404571533,0.10498227924109,-0.14645445346832,9.77084064483643,0.25519460439682,-1.10964703559875,-0.83770078420639
44,991378349,-0.91190922260284,-0.55865544080734,11.15344142913818,0.08607015758753,-0.15254868566990,9.77152061462402,0.24085064232349,-1.10823822021484,-0.78429508209229
45,991386682,-0.91303449869156,-0.55892574787140,11.15362930297852,0.11462433636189,-0.14194846153259,9.76980400085449,0.09502881765366,-1.12045633792877,-0.78470498323441
46,991395015,-0.91272735595703,-0.55841803550720,11.15345478057861,0.10543298721313,-0.14749905467033,9.78886604309082,0.26549157500267,-1.02845001220703,-0.82740390300751
47,991403348,-0.91209197044373,-0.55802148580551,11.15348339080811,0.10094807296991,-0.16725492477417,9.79158401489258,0.30562904477119,-1.03964340686798,-0.80091863870621
48,991411681,-0.91180485486984,-0.55747061967850,11.15250301361084,0.11218518763781,-0.15705497562885,9.78418827056885,0.26223853230476,-1.02050948143005,-0.92671012878418
49,991420014,-0.91146528720856,-0.55737119913101,11.15277194976807,0.09541168808937,-0.15311348438263,9.79018974304199,0.27053752541542,-1.07675826549530,-0.77438229322433
50,991428347,-0.91131991147995,-0.55691915750504,11.15218639373779,0.08596278727055,-0.15603896975517,9.78720664978027,0.24651136994362,-1.03247141838074,-0.87084555625916
51,991436680,-0.91064119338989,-0.55731457471848,11.15189075469971,0.07604186981916,-0.15319958329201,9.80624771118164,0.30929189920425,-1.13510739803314,-0.84295165538788
52,991445013,-0.91040712594986,-0.55778366327286,11.15187168121338,0.11043281853199,-0.16020253300667,9.77246475219727,0.25675708055496,-1.14455926418304,-0.79643613100052
53,991453346,-0.91008847951889,-0.55732125043869,11.15183544158936,0.09230751544237,-0.16629673540592,9.76146316528320,0.26800173521042,-1.03154933452606,-0.80988371372223
54,991461679,-0.90937793254852,-0.55772638320923,11.15238380432129,0.10983905941248,-0.15971583127975,9.77077674865723,0.31538808345795,-1.13828384876251,-0.74441367387772
55,991470012,-0.90924501419067,-0.55882942676544,11.15225219726562,0.07836654782295,-0.15768441557884,9.77415943145752,0.24443662166595,-1.21909666061401,-0.82363849878311
56,991478345,-0.90874165296555,-0.55904817581177,11.15193462371826,0.09823714196682,-0.15833532810211,9.79618358612061,0.28885167837143,-1.11520528793335,-0.84932947158813
57,991486678,-0.90847057104111,-0.55931419134140,11.15146350860596,0.08024766296148,-0.15700457990170,9.77750015258789,0.26228979229927,-1.11779248714447,-0.86362230777740
58,991495011,-0.90890461206436,-0.55975043773651,11.15145492553711,0.09667782485485,-0.16454400122166,9.76978969573975,0.17599542438984,-1.14156246185303,-0.80778324604034
59,991503344,-0.90953177213669,-0.55990767478943,11.15095710754395,0.09212146699429,-0.15159735083580,9.77744293212891,0.15319873392582,-1.10462665557861,-0.86848902702332
60,991511677,-0.90968930721283,-0.55986028909683,11.15086936950684,0.09968917071819,-0.14013133943081,9.81046772003174,0.21042093634605,-1.08341801166534,-0.83654814958572
61,991520010,-0.90993809700012,-0.55876761674881,11.15079021453857,0.09457489103079,-0.14118281006813,9.79944515228271,0.19956049323082,-0.95629459619522,-0.81288051605225
62,991528343,-0.91017979383469,-0.55843162536621,11.15007972717285,0.07715056091547,-0.16049548983574,9.77248573303223,0.19822855293751,-1.04717373847961,-0.89164429903030
63,991536676,-0.91023689508438,-0.55873000621796,11.14927005767822,0.08304450660944,-0.14829273521900,9.79481697082520,0.22233153879642,-1.12114787101746,-0.90445154905319
64,991545009,-0.90990245342255,-0.55911213159561,11.14795112609863,0.08576974272728,-0.15283478796482,9.78713512420654,0.26802736520767,-1.13188016414642,-0.96200662851334
65,991553342,-0.91020864248276,-0.55891329050064,11.14772415161133,0.08179275691509,-0.14796370267868,9.78478908538818,0.19141517579556,-1.06428408622742,-0.83411467075348
66,991561675,-0.91108185052872,-0.55882143974304,11.14695549011230,0.11644113063812,-0.15008810162544,9.76528263092041,0.12294832617044,-1.07468366622925,-0.90030187368393
67,991570008,-0.91079366207123,-0.55915212631226,11.14619445800781,0.10875182598829,-0.14646875858307,9.77531814575195,0.26300695538521,-1.12578403949738,-0.89948225021362
68,991578341,-0.91048419475555,-0.55925118923187,11.14504241943359,0.11718502640724,-0.16521637141705,9.78971672058105,0.26508170366287,-1.09863293170929,-0.93334430456161
69,991586674,-0.91101557016373,-0.55920976400375,11.14521884918213,0.09994667768478,-0.16470851004124,9.77339458465576,0.16526304185390,-1.08410978317261,-0.78426957130432
70,991595007,-0.91106647253036,-0.55938196182251,11.14540100097656,0.09712129831314,-0.13772799074650,9.76629161834717,0.22322805225849,-1.10869932174683,-0.79069864749908
71,991603340,-0.91107892990112,-0.55956542491913,11.14530944824219,0.11038975417614,-0.15033099055290,9.80104732513428,0.22878633439541,-1.10985195636749,-0.81854122877121
72,991611673,-0.91052997112274,-0.56079655885696,11.14465618133545,0.09534024447203,-0.14801378548145,9.80176925659180,0.29451245069504,-1.23467028141022,-0.89036357402802
73,991620006,-0.91028290987015,-0.56194335222244,11.14486789703369,0.10013271868229,-0.15807101130486,9.78874397277832,0.25842198729515,-1.22680652141571,-0.78306561708450
74,991628339,-0.91011077165604,-0.56271106004715,11.14447498321533,0.11688468605280,-0.15903665125370,9.76727104187012,0.24914963543415,-1.17821633815765,-0.85739797353745
75,991636672,-0.91006094217300,-0.56255632638931,11.14484214782715,0.09291536360979,-0.13857890665531,9.75259399414062,0.23475445806980,-1.07137930393219,-0.76211315393448
76,991645005,-0.91030424833298,-0.56187427043915,11.14484214782715,0.11068309098482,-0.14174073934555,9.79164123535156,0.20104613900185,-1.00585830211639,-0.80983245372772
77,991653338,-0.91027903556824,-0.56238245964050,11.14447879791260,0.11677724123001,-0.15429365634918,9.76724338531494,0.23147583007812,-1.14770984649658,-0.85071283578873
78,991661671,-0.90916329622269,-0.56230497360229,11.14443206787109,0.10836557298899,-0.15067464113235,9.75891685485840,0.36251825094223,-1.07929408550262,-0.81797772645950
79,991670004,-0.90913885831833,-0.56193476915359,11.14477825164795,0.09880936890841,-0.14926552772522,9.79606914520264,0.23214180767536,-1.04335725307465,-0.76446956396103
80,991678337,-0.90934073925018,-0.56231468915939,11.14496612548828,0.09831588715315,-0.14422306418419,9.77532577514648,0.20586158335209,-1.13413417339325,-0.78852134943008
81,991686670,-0.91000092029572,-0.56267005205154,11.14483737945557,0.09842311590910,-0.15479467809200,9.75230026245117,0.14851132035255,-1.13136792182922,-0.82238346338272
82,991695003,-0.91058975458145,-0.56143224239349,11.14457416534424,0.09561215341091,-0.16307105123997,9.77408218383789,0.15834720432758,-0.93798047304153,-0.83693230152130
83,991703336,-0.91097128391266,-0.56101322174072,11.14474773406982,0.08372396975756,-0.15649677813053,9.77646350860596,0.18434564769268,-1.03948974609375,-0.78585749864578
84,991711669,-0.91209471225739,-0.56097096204758,11.14484500885010,0.11015374958515,-0.15101768076420,9.75354576110840,0.09402985125780,-1.08264970779419,-0.80191767215729
85,991720002,-0.91184401512146,-0.56104642152786,11.14529418945312,0.09802963584661,-0.14782753586769,9.76362419128418,0.26026621460915,-1.09701919555664,-0.75296878814697
86,991728335,-0.91174411773682,-0.56009751558304,11.14493465423584,0.11486750841141,-0.15201936662197,9.74815940856934,0.23997977375984,-0.97325128316879,-0.85265940427780
87,991736668,-0.91144263744354,-0.55897194147110,11.14504814147949,0.10549743473530,-0.14757795631886,9.75756645202637,0.26487678289413,-0.95416855812073,-0.79008382558823
88,991745001,-0.91119611263275,-0.55873197317123,11.14462280273438,0.10782910883427,-0.16420066356659,9.80342864990234,0.25947222113609,-1.05831611156464,-0.86177819967270
89,991753334,-0.91177392005920,-0.55929005146027,11.14395046234131,0.09453907608986,-0.15935070812702,9.77709293365479,0.15786051750183,-1.15319108963013,-0.88800704479218
90,991761667,-0.91184991598129,-0.55837291479111,11.14423370361328,0.11676287651062,-0.16407139599323,9.76390838623047,0.22017997503281,-0.97850221395493,-0.77837818861008
91,991770000,-0.91153216362000,-0.55787968635559,11.14469337463379,0.08174268901348,-0.16666840016842,9.77588367462158,0.26892387866974,-1.03049910068512,-0.74904996156693
92,991778333,-0.91126334667206,-0.55718743801117,11.14401817321777,0.08782976120710,-0.16021652519703,9.75608444213867,0.26057362556458,-1.00388574600220,-0.89085024595261
93,991786666,-0.91201448440552,-0.55661374330521,11.14396667480469,0.09839450567961,-0.15985888242722,9.77004718780518,0.13893160223961,-1.01894700527191,-0.81098508834839
94,991794999,-0.91651618480682,-0.56152373552322,11.15050983428955,0.09144909679890,-0.15532398223877,9.79449558258057,0.28029656410217,-1.08052361011505,-0.77673876285553
95,991803332,-0.91665345430374,-0.56131726503372,11.15033721923828,0.08776544779539,-0.14973075687885,9.75639152526855,0.21223953366280,-1.06287527084351,-0.82725006341934
96,991811665,-0.91712516546249,-0.56065034866333,11.15022659301758,0.08341645449400,-0.16706895828247,9.77723503112793,0.17179466784000,-1.00724124908447,-0.82730126380920
97,991819998,-0.91788738965988,-0.56054997444153,11.15059566497803,0.09210716187954,-0.16290599107742,9.78450965881348,0.13844493031502,-1.07601547241211,-0.76290714740753
98,991828331,-0.91763520240784,-0.56031948328018,11.15124893188477,0.09075526893139,-0.16375003755093,9.78519630432129,0.26164939999580,-1.06203019618988,-0.73511576652527
99,991836664,-0.91805958747864,-0.56148618459702,11.15172004699707,0.10067626088858,-0.16771270334721,9.76073360443115,0.17845436930656,-1.22765183448792,-0.75117576122284
100,991844997,-0.91733175516129,-0.56158381700516,11.15105724334717,0.10346587002277,-0.15171895921230,9.76966094970703,0.31510630249977,-1.09791564941406,-0.88813513517380
101,991853330,-0.91702461242676,-0.56169468164444,11.15153598785400,0.11429527401924,-0.15291348099709,9.78161334991455,0.26724609732628,-1.10143756866455,-0.74970299005508
102,991861663,-0.91806709766388,-0.56170839071274,11.15216922760010,0.10884484648705,-0.14644041657448,9.80470943450928,0.10568433254957,-1.09153771400452,-0.73442405462265
103,991869996,-0.91848075389862,-0.56165093183517,11.15220069885254,0.09285105764866,-0.16173292696476,9.79456710815430,0.17983755469322,-1.07998585700989,-0.80227625370026
104,991878329,-0.91874730587006,-0.56136047840118,11.15229320526123,0.10439579933882,-0.16391482949257,9.79881572723389,0.19797241687775,-1.05444848537445,-0.80040645599365
105,991886662,-0.91884166002274,-0.56158256530762,11.15301704406738,0.10126280039549,-0.16407907009125,9.77878761291504,0.21807959675789,-1.11397588253021,-0.72123277187347
106,991894995,-0.91880750656128,-0.56206864118576,11.15305423736572,0.09901680797338,-0.16327793896198,9.77313709259033,0.23372986912727,-1.14650595188141,-0.80335205793381
107,991903328,-0.91875457763672,-0.56234329938889,11.15341854095459,0.09489677101374,-0.14355756342411,9.80718421936035,0.23554849624634,-1.12163448333740,-0.76400852203369
108,991911661,-0.91899323463440,-0.56187689304352,11.15252590179443,0.09745033085346,-0.15633969008923,9.79117584228516,0.19986785948277,-1.02944886684418,-0.91964071989059
109,991919994,-0.92004156112671,-0.56135326623917,11.15262603759766,0.09363786876202,-0.15736970305443,9.77685642242432,0.10509521514177,-1.02496647834778,-0.79382365942001
110,991928327,-0.92051976919174,-0.56134891510010,11.15298461914062,0.10544010996819,-0.16117529571056,9.79915142059326,0.17189711332321,-1.08848953247070,-0.77171844244003
111,991936660,-0.92013651132584,-0.56194216012955,11.15284061431885,0.08551223576069,-0.16692589223385,9.77766418457031,0.27532741427422,-1.15813481807709,-0.82602059841156
112,991944993,-0.92042934894562,-0.56134903430939,11.15310096740723,0.11224967986345,-0.15293547511101,9.77298069000244,0.19523169100285,-1.01794791221619,-0.76979738473892
113,991953326,-0.92058974504471,-0.56123393774033,11.15425968170166,0.10494650900364,-0.14766329526901,9.76333713531494,0.21126621961594,-1.07447886466980,-0.66741734743118
114,991961659,-0.92091941833496,-0.56185913085938,11.15433311462402,0.11838664114475,-0.15369996428490,9.77426052093506,0.18990392982960,-1.16287338733673,-0.81295734643936
115,991969992,-0.92014706134796,-0.56232142448425,11.15367698669434,0.09910263866186,-0.14448742568493,9.77744293212891,0.32133057713509,-1.14294552803040,-0.88721317052841
116,991978325,-0.91973340511322,-0.56309032440186,11.15393257141113,0.09240757673979,-0.16935786604881,9.78100490570068,0.27940008044243,-1.18036794662476,-0.77517640590668
117,991986658,-0.91988968849182,-0.56330132484436,11.15348529815674,0.09780088812113,-0.15395095944405,9.75713539123535,0.20983183383942,-1.11103022098541,-0.86218804121017
118,991994991,-0.92021679878235,-0.56318140029907,11.15342521667480,0.09838735312223,-0.16005201637745,9.81433677673340,0.18951973319054,-1.07409441471100,-0.81139492988586
119,992003324,-0.92013418674469,-0.56274348497391,11.15278816223145,0.10639853775501,-0.14799232780933,9.74966144561768,0.23869904875755,-1.03367519378662,-0.88098877668381
120,992011657,-0.92088580131531,-0.56183534860611,11.15373897552490,0.10518971085548,-0.15766295790672,9.76611232757568,0.14041723310947,-0.98083311319351,-0.69175076484680
121,992019990,-0.92133682966232,-0.56263750791550,11.15378952026367,0.10446012020111,-0.14686216413975,9.78747081756592,0.17681506276131,-1.18303179740906,-0.80122601985931
122,992028323,-0.92116618156433,-0.56239116191864,11.15355014801025,0.11608348786831,-0.14254900813103,9.76792907714844,0.24802263081074,-1.05795741081238,-0.84110736846924
123,992036656,-0.92087757587433,-0.56278300285339,11.15367126464844,0.10629831999540,-0.13160485029221,9.77535438537598,0.26459506154060,-1.13521027565002,-0.79420781135559
124,992044989,-0.92068701982498,-0.56265163421631,11.15348052978516,0.11458862572908,-0.15213412046432,9.74761581420898,0.25227457284927,-1.07122576236725,-0.83250105381012
125,992053322,-0.91984701156616,-0.56250005960464,11.15301227569580,0.10167776793242,-0.15116134285927,9.79325771331787,0.33062857389450,-1.06897163391113,-0.86398100852966
126,992061655,-0.91956770420074,-0.56287950277328,11.15309715270996,0.09787950664759,-0.15767726302147,9.79870128631592,0.26218733191490,-1.13254606723785,-0.80481201410294
127,992069988,-0.91996371746063,-0.56230026483536,11.15335941314697,0.08262237906456,-0.15383565425873,9.79153251647949,0.18260386586189,-1.01828110218048,-0.77540689706802
128,992078321,-0.92020982503891,-0.56188112497330,11.15361309051514,0.09137035906315,-0.17760482430458,9.78988933563232,0.20020087063313,-1.03800415992737,-0.78823971748352
129,992086654,-0.92001765966415,-0.56170606613159,11.15367031097412,0.10235010087490,-0.16329970955849,9.80239200592041,0.25171110033989,-1.06592357158661,-0.79979169368744
130,992094987,-0.92078614234924,-0.56144797801971,11.15391731262207,0.09648465365171,-0.17343470454216,9.79885196685791,0.13795827329159,-1.05841863155365,-0.78652340173721
131,992103320,-0.92099934816360,-0.56078070402145,11.15391826629639,0.12755665183067,-0.13542477786541,9.78285026550293,0.20422227680683,-1.00716447830200,-0.80445337295532
132,992111653,-0.92104023694992,-0.55948954820633,11.15362930297852,0.10339448601007,-0.13487453758717,9.77784442901611,0.22384279966354,-0.93178188800812,-0.84740859270096
133,992119986,-0.92118728160858,-0.56001204252243,11.15438365936279,0.11454562842846,-0.16334232687950,9.76514720916748,0.21341779828072,-1.15165448188782,-0.71669906377792
134,992128319,-0.92072510719299,-0.56045895814896,11.15443420410156,0.10296517610550,-0.14770621061325,9.77192115783691,0.28388255834579,-1.14117825031281,-0.81093394756317
135,992136652,-0.92064422369003,-0.56012153625488,11.15474128723145,0.10029716044664,-0.14676202833652,9.78802204132080,0.24054329097271,-1.04812169075012,-0.77018153667450
136,992144985,-0.92101067304611,-0.56043046712875,11.15548896789551,0.08905289322138,-0.15068179368973,9.81430149078369,0.18575443327427,-1.12621939182281,-0.74128878116608
137,992153318,-0.92108035087585,-0.56128525733948,11.15539836883545,0.08480410277843,-0.17151802778244,9.80111885070801,0.22043609619141,-1.18969166278839,-0.82112830877304
138,992161651,-0.92090713977814,-0.56173628568649,11.15499114990234,0.11266443133354,-0.15018823742867,9.76516819000244,0.24968755245209,-1.14040970802307,-0.86031812429428
139,992169984,-0.92041045427322,-0.56213116645813,11.15492248535156,0.08675683289766,-0.17599570751190,9.77841567993164,0.28944087028503,-1.13490271568298,-0.81608235836029
140,992178317,-0.92008358240128,-0.56196218729019,11.15498638153076,0.09031902998686,-0.15064632892609,9.79996681213379,0.26815545558929,-1.06822884082794,-0.80819320678711
141,992186650,-0.92010045051575,-0.56222736835480,11.15554618835449,0.08749364316463,-0.16640402376652,9.76769351959229,0.22763369977474,-1.12037932872772,-0.74085330963135
142,992194983,-0.92032539844513,-0.56271517276764,11.15425395965576,0.10018271952868,-0.15184770524502,9.78681278228760,0.20160964131355,-1.14417517185211,-0.96374845504761
143,992203316,-0.91946703195572,-0.56345707178116,11.15426063537598,0.09144909679890,-0.15330688655376,9.78430938720703,0.33280578255653,-1.17588543891907,-0.80783450603485
144,992211649,-0.91919291019440,-0.56374090909958,11.15497779846191,0.08662092685699,-0.17144648730755,9.79086112976074,0.26262274384499,-1.12237739562988,-0.73040264844894
145,992219982,-0.91942524909973,-0.56288236379623,11.15569686889648,0.08767965435982,-0.15462349355221,9.79911708831787,0.20235243439674,-0.98726224899292,-0.71815907955170
146,992228315,-0.91936612129211,-0.56283259391785,11.15516185760498,0.08883838355541,-0.14958772063255,9.76331615447998,0.23577901721001,-1.07957589626312,-0.86124014854431
147,992236648,-0.91839206218719,-0.56282442808151,11.15495586395264,0.07938930392265,-0.14762721955776,9.78654861450195,0.34615078568459,-1.08659434318542,-0.83250105381012
148,992244981,-0.91871821880341,-0.56244695186615,11.15492439270020,0.09702122211456,-0.15801374614239,9.79302883148193,0.18998077511787,-1.04238414764404,-0.81889986991882
149,992253314,-0.91834306716919,-0.56194263696671,11.15470218658447,0.09411710500717,-0.14820690453053,9.80340766906738,0.27389302849770,-1.02693879604340,-0.83188629150391
150,992261647,-0.91798007488251,-0.56217789649963,11.15489292144775,0.08529756963253,-0.16847062110901,9.79634094238281,0.27356001734734,-1.11610186100006,-0.78734314441681
151,992269980,-0.91747522354126,-0.56150859594345,11.15524959564209,0.10206391662359,-0.16350683569908,9.78501033782959,0.29077282547951,-1.00824046134949,-0.76270228624344
152,992278313,-0.91739153862000,-0.56113302707672,11.15592098236084,0.09060506522655,-0.17420034110546,9.76322269439697,0.24023586511612,-1.04307556152344,-0.73047947883606
153,992286646,-0.91784733533859,-0.56036502122879,11.15621662139893,0.07851675897837,-0.15761289000511,9.79779243469238,0.17555995285511,-0.99609911441803,-0.77141106128693
154,992294979,-0.91806721687317,-0.56064885854721,11.15653133392334,0.10407386720181,-0.16440810263157,9.76798629760742,0.20365877449512,-1.12260794639587,-0.76762014627457
155,992303312,-0.91797316074371,-0.56083261966705,11.15659713745117,0.10623402148485,-0.15083199739456,9.78057575225830,0.24161906540394,-1.10923731327057,-0.80007350444794
156,992311645,-0.91779494285583,-0.56032389402390,11.15680980682373,0.08926755189896,-0.17275574803352,9.76599121093750,0.25030225515366,-1.02780950069427,-0.79215860366821
157,992319978,-0.91812843084335,-0.55992192029953,11.15680885314941,0.09947458654642,-0.14282082021236,9.77066230773926,0.18975025415421,-1.03936147689819,-0.80663061141968
158,992328311,-0.91872787475586,-0.56052917242050,11.15713691711426,0.08992554247379,-0.14663328230381,9.80363655090332,0.15742507576942,-1.16090106964111,-0.77712303400040
159,992336644,-0.91916567087173,-0.56042242050171,11.15770912170410,0.08698572218418,-0.13781382143497,9.79795742034912,0.17773717641830,-1.07488858699799,-0.73777955770493
160,992344977,-0.91991049051285,-0.55973243713379,11.15794467926025,0.09271515160799,-0.14799232780933,9.77152729034424,0.13913652300835,-1.00580680370331,-0.77743041515350
161,992353310,-0.92010235786438,-0.55917549133301,11.15847206115723,0.08223623782396,-0.15621809661388,9.77614116668701,0.20732159912586,-1.02225124835968,-0.74251818656921
162,992361643,-0.92008709907532,-0.55979835987091,11.16037654876709,0.11094779521227,-0.16895754635334,9.80514526367188,0.23314075171947,-1.16594707965851,-0.59866869449615
163,992369976,-0.92039382457733,-0.56012010574341,11.16007709503174,0.08823747187853,-0.16842083632946,9.78685569763184,0.19269591569901,-1.12475943565369,-0.84290051460266
164,992378309,-0.92086243629456,-0.56097286939621,11.16029262542725,0.11873003840446,-0.15064603090286,9.80758476257324,0.17422801256180,-1.19061362743378,-0.78711253404617
165,992386642,-0.92049598693848,-0.56061434745789,11.15991497039795,0.10870882123709,-0.14841404557228,9.75494098663330,0.27261233329773,-1.04392087459564,-0.85142993927002
166,992394975,-0.92057996988297,-0.56020468473434,11.15998172760010,0.09488245844841,-0.16174723207951,9.75198554992676,0.21800276637077,-1.03954088687897,-0.80417174100876
167,992403308,-0.92040878534317,-0.56042110919952,11.16048240661621,0.09684949368238,-0.15471599996090,9.76830863952637,0.25094264745712,-1.11338675022125,-0.74879372119904
168,992411641,-0.92054975032806,-0.56069296598434,11.16006469726562,0.10364469140768,-0.16209772229195,9.76825141906738,0.21321287751198,-1.12084043025970,-0.85711628198624
169,992419974,-0.92107588052750,-0.56077873706818,11.16097259521484,0.09971062839031,-0.15817081928253,9.76999664306641,0.16705603897572,-1.09860730171204,-0.69833362102509
170,992428307,-0.92068570852280,-0.56060826778412,11.16088676452637,0.08933909237385,-0.16722661256790,9.76860141754150,0.27527621388435,-1.06810081005096,-0.81971961259842
171,992436640,-0.92122048139572,-0.55993860960007,11.16052436828613,0.08498292416334,-0.16734790802002,9.77206420898438,0.16554480791092,-1.00498747825623,-0.85012370347977
172,992444973,-0.92111176252365,-0.55912625789642,11.15999794006348,0.10241432487965,-0.16323474049568,9.76302337646484,0.24251554906368,-0.98938822746277,-0.87138342857361
173,992453306,-0.92079329490662,-0.55888742208481,11.16007709503174,0.10370191931725,-0.16693304479122,9.77473926544189,0.26761755347252,-1.05916154384613,-0.79853659868240
174,992461639,-0.92085164785385,-0.55798399448395,11.16054248809814,0.09968905150890,-0.15049530565739,9.79479408264160,0.22169120609760,-0.98121732473373,-0.75926989316940
175,992469972,-0.92047238349915,-0.55757701396942,11.16113758087158,0.09390952438116,-0.16822719573975,9.76729869842529,0.27609583735466,-1.03859317302704,-0.73619151115417
176,992478305,-0.92101097106934,-0.55704170465469,11.16205406188965,0.12380855530500,-0.17427901923656,9.76910209655762,0.16585215926170,-1.02494072914124,-0.69951188564301
177,992486638,-0.92144757509232,-0.55631226301193,11.16236019134521,0.10857300460339,-0.16068862378597,9.78237152099609,0.17732734978199,-1.00117087364197,-0.76905459165573
178,992494971,-0.92184638977051,-0.55527663230896,11.16246986389160,0.10196377336979,-0.16533796489239,9.77086257934570,0.18245021998882,-0.96338987350464,-0.79323440790176
179,992503304,-0.92150461673737,-0.55461752414703,11.16207504272461,0.10470323264599,-0.13945868611336,9.76830196380615,0.26920560002327,-1.00872695446014,-0.85327416658401
180,992511637,-0.92139071226120,-0.55401712656021,11.16225719451904,0.10059043020010,-0.14451603591442,9.76576900482178,0.24443662166595,-1.01612949371338,-0.78711253404617
181,992519970,-0.92141205072403,-0.55388236045837,11.16260433197021,0.08265110105276,-0.15669018030167,9.75322341918945,0.22617368400097,-1.07176363468170,-0.76480257511139
182,992528303,-0.92205017805099,-0.55434358119965,11.16301536560059,0.09142048656940,-0.16229085624218,9.75010490417480,0.15406961739063,-1.14350903034210,-0.76080679893494
183,992536636,-0.92294597625732,-0.55397021770477,11.16356754302979,0.09416002780199,-0.15262736380100,9.80449485778809,0.12269218266010,-1.04345977306366,-0.73949569463730
184,992544969,-0.92406326532364,-0.55427372455597,11.16363334655762,0.09551191329956,-0.14595375955105,9.79073238372803,0.09559231996536,-1.12470817565918,-0.80867975950241
185,992553302,-0.92378169298172,-0.55430173873901,11.16323661804199,0.08870955556631,-0.16729068756104,9.76264381408691,0.26295572519302,-1.08902752399445,-0.85534894466400
186,992561635,-0.92397624254227,-0.55391883850098,11.16336345672607,0.10124134272337,-0.15753421187401,9.78740692138672,0.20524683594704,-1.04228162765503,-0.79448950290680
187,992569968,-0.92368382215500,-0.55424767732620,11.16403198242188,0.09398120641708,-0.16453684866428,9.80134773254395,0.26595258712769,-1.12865281105042,-0.72748267650604
188,992578301,-0.92344659566879,-0.55360502004623,11.16363430023193,0.09968917071819,-0.14825697243214,9.78173446655273,0.25739747285843,-1.00967478752136,-0.85555380582809
189,992586634,-0.92338842153549,-0.55293500423431,11.16318988800049,0.10416685044765,-0.16002340614796,9.76669883728027,0.23493371903896,-1.00680589675903,-0.85972893238068
190,992594967,-0.92283731698990,-0.55250245332718,11.16325664520264,0.10017547756433,-0.15201909840107,9.75671482086182,0.29574197530746,-1.03508400917053,-0.79825478792191
191,992603300,-0.92313474416733,-0.55236852169037,11.16242790222168,0.11018245667219,-0.14649771153927,9.78825092315674,0.19302885234356,-1.06968879699707,-0.90539908409119
192,992611633,-0.92309087514877,-0.55312699079514,11.16262340545654,0.10951717942953,-0.15950123965740,9.80076122283936,0.23406289517879,-1.18052172660828,-0.78744572401047
193,992619966,-0.92280828952789,-0.55282574892044,11.16273498535156,0.10234287381172,-0.13883668184280,9.75999736785889,0.26444134116173,-1.05155396461487,-0.79331129789352
194,992628299,-0.92278611660004,-0.55264443159103,11.16284847259521,0.10154898464680,-0.14671941101551,9.78853702545166,0.23168070614338,-1.06523180007935,-0.80386424064636
195,992636632,-0.92306894063950,-0.55271071195602,11.16363430023193,0.09152777493000,-0.15392202138901,9.80925178527832,0.19722959399223,-1.09765970706940,-0.71198606491089
196,992644965,-0.92329710721970,-0.55248045921326,11.16361522674561,0.08893129974604,-0.15347139537334,9.76186370849609,0.20127665996552,-1.05890524387360,-0.81633847951889
197,992653298,-0.92458695173264,-0.55240350961685,11.16394901275635,0.10121987760067,-0.14066065847874,9.75881671905518,0.07530584186316,-1.08034431934357,-0.76731276512146
198,992661631,-0.92393493652344,-0.55245471000671,11.16426658630371,0.08893138170242,-0.15655454993248,9.77631282806396,0.30813923478127,-1.09315156936646,-0.76984858512878
199,992669964,-0.92383611202240,-0.55228555202484,11.16369819641113,0.09812270104885,-0.15701206028461,9.77746391296387,0.24033835530281,-1.06628215312958,-0.87522554397583
200,992678297,-0.92450004816055,-0.55183643102646,11.16397285461426,0.09260070323944,-0.16060993075371,9.78033256530762,0.15009939670563,-1.03480219841003,-0.76710784435272
201,992686630,-0.92451125383377,-0.55149179697037,11.16415214538574,0.09980361908674,-0.17972233891487,9.75626277923584,0.22945231199265,-1.04694330692291,-0.78447431325912
202,992694963,-0.92388254404068,-0.55151903629303,11.16401195526123,0.10157752037048,-0.15527391433716,9.79685592651367,0.30365672707558,-1.08943736553192,-0.82148689031601
203,992703296,-0.92393624782562,-0.55216360092163,11.16453647613525,0.10296524316072,-0.14496695995331,9.79709911346436,0.22463686764240,-1.16717672348022,-0.74415767192841
204,992711629,-0.92465460300446,-0.55143833160400,11.16440296173096,0.09420294314623,-0.14983774721622,9.78067588806152,0.14238953590393,-0.99960833787918,-0.82448375225067
205,992719962,-0.92429149150848,-0.55207371711731,11.16405582427979,0.10164181143045,-0.15324217081070,9.76716518402100,0.27294528484344,-1.16376996040344,-0.84840744733810
206,992728295,-0.92409086227417,-0.55240887403488,11.16344833374023,0.09049061685801,-0.15897193551064,9.77154922485352,0.25301739573479,-1.12588655948639,-0.88429301977158
207,992736628,-0.92373687028885,-0.55250632762909,11.16252231597900,0.09087686985731,-0.16857105493546,9.77465343475342,0.26997402310371,-1.09817183017731,-0.91851359605789
208,992744961,-0.92390775680542,-0.55290573835373,11.16226673126221,0.08581981062889,-0.13923008739948,9.76888751983643,0.20939634740353,-1.13505625724792,-0.84387373924255
209,992753294,-0.92381167411804,-0.55306434631348,11.16237545013428,0.10390942543745,-0.16773445904255,9.77672004699707,0.24064576625824,-1.10618913173676,-0.79377239942551
210,992761627,-0.92380154132843,-0.55254578590393,11.16128349304199,0.10114843398333,-0.15063205361366,9.75762271881104,0.22914493083954,-1.02340388298035,-0.93439441919327
211,992769960,-0.92430776357651,-0.55289888381958,11.16165924072266,0.10915953665972,-0.15693336725235,9.78190612792969,0.16897711157799,-1.13008713722229,-0.76308643817902
212,992778293,-0.92433786392212,-0.55361658334732,11.16182136535645,0.09569788724184,-0.15498064458370,9.75786590576172,0.22701895236969,-1.17509138584137,-0.78969967365265
213,992786626,-0.92463356256485,-0.55383181571960,11.16164112091064,0.09121305495501,-0.15023832023144,9.76733589172363,0.19387413561344,-1.11238777637482,-0.83032381534576
214,992794959,-0.92442405223846,-0.55418360233307,11.16253471374512,0.11256422102451,-0.16175413131714,9.81674098968506,0.25522023439407,-1.13226449489594,-0.70204782485962
215,992803292,-0.92465960979462,-0.55384886264801,11.16312599182129,0.09873069077730,-0.14903663098812,9.78892993927002,0.20102050900459,-1.04732751846313,-0.73534625768661
216,992811625,-0.92392951250076,-0.55393612384796,11.16287612915039,0.10269336402416,-0.15669018030167,9.79562568664551,0.31779581308365,-1.09886348247528,-0.84266990423203
217,992819958,-0.92412543296814,-0.55380713939667,11.16316413879395,0.10867314040661,-0.15917935967445,9.78147029876709,0.20524686574936,-1.07168686389923,-0.77148789167404
218,992828291,-0.92473655939102,-0.55336731672287,11.16333580017090,0.10908085852861,-0.14512403309345,9.76163482666016,0.15739949047565,-1.03621101379395,-0.78900814056396
219,992836624,-0.92473620176315,-0.55271708965302,11.16325759887695,0.11885171383619,-0.15382216870785,9.78455257415771,0.22891440987587,-1.00898301601410,-0.81610792875290
220,992844957,-0.92496877908707,-0.55310165882111,11.16384506225586,0.10066201537848,-0.16939391195774,9.77986717224121,0.20245490968227,-1.13561987876892,-0.73957252502441
221,992853290,-0.92475396394730,-0.55263346433640,11.16421413421631,0.08943914622068,-0.15642552077770,9.76705646514893,0.25475916266441,-1.03198468685150,-0.76131910085678
222,992861623,-0.92437881231308,-0.55269461870193,11.16401576995850,0.08831615000963,-0.16362127661705,9.78157711029053,0.27396988868713,-1.09461152553558,-0.83216810226440
223,992869956,-0.92414796352386,-0.55269318819046,11.16417217254639,0.09005429595709,-0.15897193551064,9.80159091949463,0.25808903574944,-1.08726024627686,-0.78731751441956
224,992878289,-0.92468690872192,-0.55337291955948,11.16443061828613,0.10275053977966,-0.15013071894646,9.79852294921875,0.16493004560471,-1.17009663581848,-0.78931546211243
225,992886622,-0.92464977502823,-0.55308800935745,11.16411685943604,0.09029033780098,-0.16216209530830,9.76255035400391,0.23285900056362,-1.05242478847504,-0.84305411577225
226,992894955,-0.92508488893509,-0.55330038070679,11.16436195373535,0.08722891658545,-0.14901517331600,9.77694225311279,0.17873613536358,-1.11315631866455,-0.78867518901825
227,992903288,-0.92503577470779,-0.55318069458008,11.16398143768311,0.09062652289867,-0.15522384643555,9.76556873321533,0.23431900143623,-1.07253205776215,-0.85222399234772
228,992911621,-0.92421275377274,-0.55333417654037,11.16458702087402,0.10454595088959,-0.16837076842785,9.78405189514160,0.32847693562508,-1.10764908790588,-0.74057155847549
229,992919954,-0.92367798089981,-0.55276370048523,11.16505432128906,0.08730775862932,-0.14759227633476,9.77303791046143,0.29387208819389,-1.01920318603516,-0.74945968389511
230,992928287,-0.92402106523514,-0.55293059349060,11.16500949859619,0.10343725979328,-0.15468737483025,9.78671264648438,0.18951973319054,-1.10772609710693,-0.83034944534302
231,992936620,-0.92452895641327,-0.55232101678848,11.16487789154053,0.08937472105026,-0.15761977434158,9.78017616271973,0.16764517128468,-1.01415729522705,-0.82123070955276
232,992944953,-0.92422586679459,-0.55277305841446,11.16519546508789,0.08101302385330,-0.14693340659142,9.76262283325195,0.26533785462379,-1.14140856266022,-0.78009432554245
233,992953286,-0.92499142885208,-0.55271023511887,11.16504955291748,0.08938907831907,-0.14671911299229,9.76142024993896,0.13759966194630,-1.07967829704285,-0.82527780532837
234,992961619,-0.92430198192596,-0.55203992128372,11.16478824615479,0.09353782236576,-0.16264878213406,9.76983928680420,0.31157153844833,-1.00739490985870,-0.83872532844543
235,992969952,-0.92411065101624,-0.55231714248657,11.16403770446777,0.10688493400812,-0.16339239478111,9.78654861450195,0.25294062495232,-1.11930370330811,-0.89674162864685
236,992978285,-0.92382526397705,-0.55275237560272,11.16350650787354,0.09669221192598,-0.15691940486431,9.76409530639648,0.26182869076729,-1.13900101184845,-0.87391924858093
237,992986618,-0.92366290092468,-0.55318105220795,11.16448974609375,0.10616242885590,-0.15819917619228,9.76921749114990,0.25135248899460,-1.14002549648285,-0.68913811445236
238,992994951,-0.92400956153870,-0.55364733934402,11.16490650177002,0.09363786876202,-0.16160418093204,9.78505325317383,0.18759863078594,-1.14494347572327,-0.75947487354279
239,993003284,-0.92364650964737,-0.55379819869995,11.16473007202148,0.11427389830351,-0.14807131886482,9.76159191131592,0.27279162406921,-1.10593307018280,-0.82919687032700
240,993011617,-0.92338246107101,-0.55306249856949,11.16387271881104,0.08357381820679,-0.14824266731739,9.78398036956787,0.25967711210251,-0.99763613939285,-0.90416979789734
241,993019950,-0.92329454421997,-0.55274045467377,11.16425514221191,0.08137067407370,-0.17461495101452,9.77564811706543,0.24118363857269,-1.04927444458008,-0.76098614931107
242,993028283,-0.92360025644302,-0.55198085308075,11.16458225250244,0.09051207453012,-0.15446564555168,9.79327201843262,0.19318255782127,-0.99704688787460,-0.77937710285187
243,993036616,-0.92260968685150,-0.55288392305374,11.16512870788574,0.09221454709768,-0.12937377393246,9.80806446075439,0.34809744358063,-1.19724786281586,-0.74292808771133
244,993044949,-0.92301642894745,-0.55335426330566,11.16573238372803,0.09950324892998,-0.15563899278641,9.78172016143799,0.18247583508492,-1.14476430416107,-0.74151939153671
245,993053282,-0.92378801107407,-0.55306953191757,11.16530990600586,0.09992521256208,-0.14566764235497,9.77362346649170,0.13537123799324,-1.05186128616333,-0.85788476467133
246,993061615,-0.92357486486435,-0.55327355861664,11.16559600830078,0.09638455510139,-0.14761322736740,9.77345848083496,0.25570687651634,-1.11236202716827,-0.77330648899078
247,993069948,-0.92425781488419,-0.55329751968384,11.16558074951172,0.08788698166609,-0.16061708331108,9.76888084411621,0.14781974256039,-1.09056448936462,-0.80985808372498
248,993078281,-0.92434084415436,-0.55384814739227,11.16555213928223,0.10660596936941,-0.13548199832439,9.79450988769531,0.21833571791649,-1.15426707267761,-0.81318789720535
249,993086614,-0.92426431179047,-0.55397564172745,11.16545963287354,0.07527644932270,-0.16406445205212,9.77810859680176,0.23913447558880,-1.10178351402283,-0.81831079721451
250,993094947,-0.92444592714310,-0.55478060245514,11.16485595703125,0.09011151641607,-0.16058847308159,9.80139064788818,0.20724476873875,-1.18380033969879,-0.88977444171906
251,993103280,-0.92455810308456,-0.55445319414139,11.16528129577637,0.09061937034130,-0.14301393926144,9.81730556488037,0.21644027531147,-1.04819846153259,-0.75529968738556
252,993111613,-0.92440766096115,-0.55486959218979,11.16594123840332,0.10258607566357,-0.16417205333710,9.77335166931152,0.24771524965763,-1.13843750953674,-0.73017215728760
253,993119946,-0.92453497648239,-0.55422228574753,11.16579055786133,0.10750722885132,-0.15782748162746,9.75509738922119,0.21431429684162,-1.01021265983582,-0.82325428724289
254,993128279,-0.92452675104141,-0.55431979894638,11.16630077362061,0.09801540523767,-0.15353576838970,9.77648448944092,0.23006705939770,-1.09963190555573,-0.76042258739471
255,993136612,-0.92439770698547,-0.55419462919235,11.16696357727051,0.08634196966887,-0.16274148225784,9.77867984771729,0.24699805676937,-1.07381260395050,-0.72684234380722
256,993144945,-0.92438679933548,-0.55380326509476,11.16695690155029,0.10236433893442,-0.14703384041786,9.76332283020020,0.23052811622620,-1.04036045074463,-0.82161492109299
257,993153278,-0.92418724298477,-0.55272406339645,11.16691684722900,0.08833061158657,-0.15565353631973,9.76659297943115,0.25337600708008,-0.95857429504395,-0.80960184335709
258,993161611,-0.92413121461868,-0.55277609825134,11.16655445098877,0.11899469792843,-0.15142568945885,9.77660560607910,0.23444707691669,-1.09240877628326,-0.84735727310181
259,993169944,-0.92343324422836,-0.55272245407104,11.16643810272217,0.11486750841141,-0.15985172986984,9.78189182281494,0.31436347961426,-1.08126652240753,-0.81951463222504
260,993178277,-0.92323136329651,-0.55249291658401,11.16579532623291,0.10970315337181,-0.15671879053116,9.79111862182617,0.25230023264885,-1.05926394462585,-0.89133703708649
261,993186610,-0.92396527528763,-0.55260396003723,11.16510581970215,0.08742204308510,-0.16211917996407,9.78126907348633,0.14118567109108,-1.09860742092133,-0.88928776979446
262,993194943,-0.92377936840057,-0.55294251441956,11.16551208496094,0.09217876195908,-0.14252784848213,9.79900836944580,0.25073772668839,-1.13001036643982,-0.76452082395554
263,993203276,-0.92359036207199,-0.55221444368362,11.16590595245361,0.08862372487783,-0.14534576237202,9.77110576629639,0.25276127457619,-1.00012063980103,-0.75745141506195
264,993211609,-0.92426633834839,-0.55196928977966,11.16563987731934,0.09343758970499,-0.16105341911316,9.77784347534180,0.14851132035255,-1.05834174156189,-0.83634316921234
265,993219942,-0.92368435859680,-0.55196774005890,11.16512966156006,0.08014760166407,-0.15812075138092,9.79169845581055,0.29904618859291,-1.08592832088470,-0.86841207742691
266,993228275,-0.92346888780594,-0.55203920602798,11.16495990753174,0.08685696870089,-0.15717656910419,9.78983879089355,0.25401636958122,-1.09550797939301,-0.81982195377350
267,993236608,-0.92298716306686,-0.55220675468445,11.16467189788818,0.08564098924398,-0.14826412498951,9.75739288330078,0.28849309682846,-1.10729038715363,-0.84261864423752
268,993244941,-0.92297190427780,-0.55232691764832,11.16543674468994,0.10017556697130,-0.14715543389320,9.78435230255127,0.23168073594570,-1.10334587097168,-0.71915805339813
269,993253274,-0.92301350831985,-0.55258214473724,11.16509246826172,0.08796565979719,-0.15556718409061,9.79428768157959,0.22304876148701,-1.11874020099640,-0.84886848926544
270,993261607,-0.92242610454559,-0.55272692441940,11.16487026214600,0.08919595181942,-0.15787039697170,9.77625560760498,0.29976338148117,-1.10447299480438,-0.83688098192215
271,993269940,-0.92323499917984,-0.55200219154358,11.16544342041016,0.09074811637402,-0.15995903313160,9.76824378967285,0.13296349346638,-1.00127315521240,-0.73606348037720
272,993278273,-0.92318940162659,-0.55230796337128,11.16566562652588,0.08131352066994,-0.16487303376198,9.78539657592773,0.23542043566704,-1.12422156333923,-0.78557574748993
273,993286606,-0.92300629615784,-0.55250895023346,11.16601085662842,0.08323055505753,-0.16023828089237,9.80541038513184,0.25247949361801,-1.11297690868378,-0.76644188165665
274,993294939,-0.92230457067490,-0.55228799581528,11.16605949401855,0.10397372394800,-0.14187663793564,9.74263000488281,0.31277543306351,-1.06108260154724,-0.80158478021622
275,993303272,-0.92245805263519,-0.55242103338242,11.16685867309570,0.08124193549156,-0.14553864300251,9.74655055999756,0.21144552528858,-1.10485732555389,-0.71267771720886
276,993311605,-0.92181181907654,-0.55177044868469,11.16737842559814,0.10925984382629,-0.14244224131107,9.75725841522217,0.30693534016609,-1.01008450984955,-0.74907541275024
277,993319938,-0.92089927196503,-0.55083608627319,11.16704940795898,0.08908876031637,-0.15386508405209,9.78961658477783,0.33982402086258,-0.97537714242935,-0.84443724155426
278,993328271,-0.92117911577225,-0.55052393674850,11.16843223571777,0.09935308992863,-0.14826458692551,9.79927444458008,0.19771629571915,-1.05206620693207,-0.63450300693512
279,993336604,-0.92140960693359,-0.55025410652161,11.16777992248535,0.08265110105276,-0.14755599200726,9.77617645263672,0.20102049410343,-1.05327010154724,-0.88506132364273
280,993344937,-0.92217969894409,-0.54943382740021,11.16754913330078,0.10607665777206,-0.13835029304028,9.78328704833984,0.13706177473068,-0.98982363939285,-0.83618944883347
281,993353270,-0.92184174060822,-0.54906803369522,11.16757774353027,0.10895917564631,-0.16093154251575,9.79885196685791,0.26864209771156,-1.04269158840179,-0.80212259292603
282,993361603,-0.92133510112762,-0.54878365993500,11.16736316680908,0.10967445373535,-0.17727577686310,9.77230072021484,0.29004281759262,-1.05364167690277,-0.82733982801437
283,993369936,-0.92032390832901,-0.54856109619141,11.16688537597656,0.09358064085245,-0.14478784799576,9.79199886322021,0.34999293088913,-1.06092882156372,-0.86382722854614
284,993378269,-0.92063713073730,-0.54843401908875,11.16757202148438,0.07750815898180,-0.16759800910950,9.78019046783447,0.19364362955093,-1.07373607158661,-0.72271847724915
285,993386602,-0.92064887285233,-0.54887002706528,11.16762065887451,0.08645635098219,-0.16502293944359,9.76348781585693,0.22730071842670,-1.13869369029999,-0.80122601985931
286,993394935,-0.92043542861938,-0.54910725355148,11.16732406616211,0.09338044375181,-0.17054556310177,9.78709888458252,0.25507932901382,-1.11580729484558,-0.84555149078369
287,993403268,-0.92066919803619,-0.54916596412659,11.16763973236084,0.08257951587439,-0.16975100338459,9.79792881011963,0.20176334679127,-1.09643018245697,-0.76977187395096
288,993411601,-0.92066872119904,-0.54989552497864,11.16773414611816,0.08952491730452,-0.16424328088760,9.75683593750000,0.22888879477978,-1.17457914352417,-0.79925376176834
289,993419934,-0.92101067304611,-0.54927581548691,11.16815471649170,0.09502551704645,-0.14516694843769,9.78859424591064,0.19036500155926,-1.01364505290985,-0.75576078891754
290,993428267,-0.92148834466934,-0.54860895872116,11.16814517974854,0.09574080258608,-0.15420098602772,9.76428127288818,0.17187151312828,-1.00783050060272,-0.80478644371033
291,993436600,-0.92173075675964,-0.54829192161560,11.16816139221191,0.08476833999157,-0.16330656409264,9.78661251068115,0.19986787438393,-1.05009400844574,-0.80496579408646
292,993444933,-0.92149657011032,-0.54796028137207,11.16859436035156,0.09770075231791,-0.14456637203693,9.78194236755371,0.25734621286392,-1.04773747920990,-0.75675970315933
293,993453266,-0.92144674062729,-0.54703217744827,11.16883087158203,0.07898884266615,-0.15850700438023,9.80295658111572,0.23670114576817,-0.97670906782150,-0.77725112438202
294,993461599,-0.92151421308517,-0.54723697900772,11.16881370544434,0.09649900346994,-0.13693402707577,9.77262878417969,0.22115331888199,-1.11159372329712,-0.80581104755402
295,993469932,-0.92206937074661,-0.54712224006653,11.16865348815918,0.10020417720079,-0.15277756750584,9.78276443481445,0.16224054992199,-1.07432508468628,-0.82676351070404
296,993478265,-0.92158377170563,-0.54734885692596,11.16855907440186,0.09754332154989,-0.15866436064243,9.79269218444824,0.28849309682846,-1.11471867561340,-0.81523704528809
297,993486598,-0.92180263996124,-0.54762393236160,11.16929912567139,0.09440328180790,-0.15375062823296,9.79883003234863,0.20314647257328,-1.12112212181091,-0.71969592571259
298,993494931,-0.92199581861496,-0.54769790172577,11.16969394683838,0.09707123041153,-0.15021684765816,9.77767181396484,0.20714232325554,-1.09753143787384,-0.76349627971649
299,993503264,-0.92191565036774,-0.54716384410858,11.16922569274902,0.08705732226372,-0.14547482132912,9.76334476470947,0.23752079904079,-1.02325022220612,-0.86246979236603
300,993511597,-0.92194235324860,-0.54740852117538,11.16952514648438,0.09201423823833,-0.15515261888504,9.80380821228027,0.22663475573063,-1.11720335483551,-0.77773779630661
301,993519930,-0.92128163576126,-0.54771775007248,11.16949558258057,0.09267231822014,-0.16083914041519,9.78349399566650,0.30959925055504,-1.12376046180725,-0.80998605489731
302,993528263,-0.92139202356339,-0.54740923643112,11.16959095001221,0.10849431902170,-0.14754168689251,9.75999736785889,0.21562059223652,-1.05096483230591,-0.77297347784042
303,993536596,-0.92202103137970,-0.54690420627594,11.16918182373047,0.08216475695372,-0.14602558314800,9.76277256011963,0.15383911132812,-1.02714383602142,-0.85460621118546
304,993544929,-0.92148792743683,-0.54732269048691,11.16960525512695,0.11308644711971,-0.15252722799778,9.76634120941162,0.29456368088722,-1.13853991031647,-0.76252293586731
305,993553262,-0.92164438962936,-0.54687404632568,11.16952896118164,0.10187079012394,-0.15434405207634,9.75918197631836,0.20998547971249,-1.03249692916870,-0.81546747684479
306,993561595,-0.92180573940277,-0.54718142747879,11.16888904571533,0.11152720451355,-0.15106838941574,9.81769180297852,0.20988303422928,-1.12386298179626,-0.88457477092743
307,993569928,-0.92181962728500,-0.54809349775314,11.16907691955566,0.10493220388889,-0.15023116767406,9.78488159179688,0.22735194861889,-1.19804191589355,-0.78660029172897
308,993578261,-0.92149239778519,-0.54799032211304,11.16870594024658,0.10800793021917,-0.14978052675724,9.78146266937256,0.26887258887291,-1.07373583316803,-0.84371995925903
309,993586594,-0.92187297344208,-0.54875600337982,11.16915416717529,0.08232922106981,-0.16048833727837,9.78606891632080,0.18393579125404,-1.18003487586975,-0.75481307506561
310,993594927,-0.92245024442673,-0.54830694198608,11.16947937011719,0.08815888315439,-0.15803544223309,9.79958248138428,0.16047316789627,-1.03459739685059,-0.76190817356110
311,993603260,-0.92253434658051,-0.54828613996506,11.16970729827881,0.08677829056978,-0.15891471505165,9.80037498474121,0.21910415589809,-1.08500623703003,-0.77899289131165
312,993611593,-0.92231416702271,-0.54790192842484,11.16996383666992,0.09860193729401,-0.15822088718414,9.81230545043945,0.25670588016510,-1.04264044761658,-0.77650845050812
313,993619926,-0.92244523763657,-0.54818087816238,11.16967773437500,0.11138407140970,-0.15914359688759,9.80882930755615,0.21267500519753,-1.12114787101746,-0.84292602539062
314,993628259,-0.92371386289597,-0.54791063070297,11.16967487335205,0.11146990209818,-0.17565236985683,9.78398036956787,0.07720129936934,-1.05465316772461,-0.80732220411301
315,993636592,-0.92306953668594,-0.54817950725555,11.16993427276611,0.09967477619648,-0.16882826387882,9.77106285095215,0.30724275112152,-1.11953413486481,-0.77602165937424
316,993644925,-0.92277127504349,-0.54766255617142,11.17012882232666,0.09899526834488,-0.16709728538990,9.75642108917236,0.26567083597183,-1.02642643451691,-0.79082667827606
317,993653258,-0.92234343290329,-0.54754924774170,11.17056179046631,0.09621996432543,-0.13744160532951,9.76559066772461,0.28075763583183,-1.07504224777222,-0.75491565465927
318,993661591,-0.92232036590576,-0.54862153530121,11.17059707641602,0.09463211148977,-0.14622557163239,9.79160499572754,0.23291023075581,-1.21686828136444,-0.79817789793015
319,993669924,-0.92261195182800,-0.54836314916611,11.17044353485107,0.09849464893341,-0.15155443549156,9.77450275421143,0.19402785599232,-1.05583167076111,-0.82599508762360
320,993678257,-0.92204415798187,-0.54790973663330,11.17039394378662,0.09290827810764,-0.15687614679337,9.78724956512451,0.29702267050743,-1.03382885456085,-0.82092344760895
321,993686590,-0.92177563905716,-0.54766279459000,11.17029476165771,0.09328729659319,-0.14360733330250,9.75969028472900,0.26200801134109,-1.05649757385254,-0.81843876838684
322,993694923,-0.92244523763657,-0.54745835065842,11.17041206359863,0.08975387364626,-0.13700555264950,9.77956676483154,0.14981766045094,-1.06343889236450,-0.78708702325821
323,993703256,-0.92268639802933,-0.54756093025208,11.17052650451660,0.10574048012495,-0.16821341216564,9.77430248260498,0.20014964044094,-1.10088706016541,-0.79313188791275
324,993711589,-0.92256969213486,-0.54778593778610,11.17013740539551,0.08931755274534,-0.16234807670116,9.78906631469727,0.24325838685036,-1.11348927021027,-0.86369913816452
325,993719922,-0.92143404483795,-0.54868280887604,11.17060470581055,0.09003998339176,-0.14965178072453,9.79897975921631,0.36546388268471,-1.19527542591095,-0.75189298391342
326,993728255,-0.92132210731506,-0.54880279302597,11.17033004760742,0.08828753978014,-0.14706245064735,9.79373741149902,0.24264365434647,-1.10257732868195,-0.84110730886459
327,993736588,-0.92095339298248,-0.54938817024231,11.17033863067627,0.10591206699610,-0.14921514689922,9.77632045745850,0.27407231926918,-1.15734076499939,-0.80752706527710
328,993744921,-0.92070269584656,-0.54985100030899,11.16978263854980,0.10169188678265,-0.16429331898689,9.77543354034424,0.25855007767677,-1.14274048805237,-0.87412405014038
329,993753254,-0.92095506191254,-0.55039000511169,11.16983032226562,0.10636992752552,-0.15375751256943,9.76712799072266,0.19940683245659,-1.15265345573425,-0.80248117446899
330,993761587,-0.92059081792831,-0.55086696147919,11.16961002349854,0.10010411590338,-0.15163344144821,9.79555416107178,0.27199757099152,-1.14394438266754,-0.82922238111496
331,993769920,-0.92094427347183,-0.55033737421036,11.16873550415039,0.09345898032188,-0.14332121610641,9.76501846313477,0.18685583770275,-1.02132916450500,-0.91006094217300
332,993778253,-0.92077654600143,-0.55047982931137,11.16857910156250,0.11123386025429,-0.16255551576614,9.77858734130859,0.24871422350407,-1.10411441326141,-0.82978594303131
333,993786586,-0.92090106010437,-0.54948228597641,11.16915702819824,0.09684234112501,-0.15646128356457,9.78826522827148,0.21633782982826,-0.96912735700607,-0.73575598001480
334,993794919,-0.91768515110016,-0.55537503957748,11.15869998931885,0.11347994953394,-0.15608267486095,9.79224300384521,0.16413600742817,-0.98851728439331,-0.73793327808380
335,993803252,-0.91848540306091,-0.55496788024902,11.15905857086182,0.11455993354321,-0.17091003060341,9.76599788665771,0.13426981866360,-1.03956651687622,-0.76298403739929
336,993811585,-0.91889089345932,-0.55505794286728,11.15909576416016,0.10112695395947,-0.15893647074699,9.79596900939941,0.18004247546196,-1.09783899784088,-0.80993497371674
337,993819918,-0.91844499111176,-0.55487972497940,11.15901851654053,0.10519686341286,-0.14375068247318,9.77188491821289,0.28331905603409,-1.06515514850616,-0.81457102298737
338,993828251,-0.91896301507950,-0.55510306358337,11.15938091278076,0.10200669616461,-0.17096009850502,9.78283596038818,0.16679988801479,-1.11471867561340,-0.76403421163559
339,993836584,-0.91792523860931,-0.55568498373032,11.15905094146729,0.10090526938438,-0.15049614012241,9.77263641357422,0.35283604264259,-1.15552210807800,-0.84689611196518
340,993844917,-0.91780549287796,-0.55595272779465,11.15898323059082,0.10113404691219,-0.15264882147312,9.76803684234619,0.24448788166046,-1.11966228485107,-0.80404365062714
341,993853250,-0.91845947504044,-0.55535703897476,11.15874862670898,0.08225054293871,-0.15870012342930,9.76571941375732,0.14989450573921,-1.01497685909271,-0.83324384689331
342,993861583,-0.91860860586166,-0.55570012331009,11.15916156768799,0.08721461147070,-0.15534543991089,9.79863643646240,0.21088200807571,-1.12944698333740,-0.75991028547287
343,993869916,-0.91912990808487,-0.55575776100159,11.15988922119141,0.08893129974604,-0.15766295790672,9.77891635894775,0.16866971552372,-1.09517490863800,-0.71851766109467
344,993878249,-0.91920047998428,-0.55511319637299,11.16055202484131,0.07403192669153,-0.15505932271481,9.78634834289551,0.22038488090038,-1.01087868213654,-0.72512614727020
345,993886582,-0.91875147819519,-0.55473470687866,11.16012382507324,0.08839474618435,-0.16895700991154,9.78692817687988,0.28349837660789,-1.04079604148865,-0.85714203119278
346,993894915,-0.91855531930923,-0.55490905046463,11.16002368927002,0.09644893556833,-0.14748446643353,9.75285148620605,0.25263321399689,-1.10880172252655,-0.81034469604492
347,993903248,-0.91816622018814,-0.55474156141281,11.16029739379883,0.09867347031832,-0.15256299078465,9.78435230255127,0.27525058388710,-1.06717872619629,-0.77353709936142
348,993911581,-0.91827303171158,-0.55493396520615,11.16024017333984,0.09320154041052,-0.15131123363972,9.78164863586426,0.21728557348251,-1.11074852943420,-0.81352096796036
349,993919914,-0.91879737377167,-0.55485481023788,11.15970802307129,0.10280781239271,-0.14088954031467,9.79885864257812,0.16441777348518,-1.07499098777771,-0.86902689933777
350,993928247,-0.91925817728043,-0.55453646183014,11.15982246398926,0.09343043714762,-0.14699092507362,9.77669143676758,0.17384380102158,-1.05014514923096,-0.78624165058136
351,993936580,-0.91900652647018,-0.55503922700882,11.15923023223877,0.10185640305281,-0.16568812727928,9.78263664245605,0.26034307479858,-1.14558374881744,-0.87842732667923
352,993944913,-0.91908305883408,-0.55416816473007,11.16005992889404,0.10433840006590,-0.15201888978481,9.78340721130371,0.21969330310822,-0.98444467782974,-0.70509588718414
353,993953246,-0.91872435808182,-0.55337721109390,11.16050624847412,0.09949604421854,-0.14599667489529,9.76153469085693,0.27402108907700,-0.99335837364197,-0.75135511159897
354,993961579,-0.91799789667130,-0.55383515357971,11.16010475158691,0.10119126737118,-0.16573852300644,9.81199073791504,0.31564417481422,-1.14133191108704,-0.85276174545288
355,993969912,-0.91810131072998,-0.55302125215530,11.15971183776855,0.09421718120575,-0.13433727622032,9.78419589996338,0.21546693146229,-0.98818433284760,-0.85160923004150
356,993978245,-0.91762822866440,-0.55361717939377,11.15953254699707,0.11101203411818,-0.16082420945168,9.82063198089600,0.28534260392189,-1.15928745269775,-0.82525223493576
357,993986578,-0.91701310873032,-0.55464684963226,11.15862083435059,0.09077683091164,-0.15013138949871,9.76731395721436,0.30211988091469,-1.20838987827301,-0.91774523258209
358,993994911,-0.91709733009338,-0.55478966236115,11.15813541412354,0.11797191202641,-0.17244821786880,9.75867366790771,0.21959082782269,-1.10326898097992,-0.86500549316406
359,994003244,-0.91680479049683,-0.55430382490158,11.15789985656738,0.09771499037743,-0.14561757445335,9.77275753021240,0.26415959000587,-1.02811694145203,-0.83270591497421
360,994011577,-0.91707479953766,-0.55470120906830,11.15777969360352,0.08551938831806,-0.15665441751480,9.77492523193359,0.19582080841064,-1.13505625724792,-0.82174301147461
361,994019910,-0.91702342033386,-0.55416244268417,11.15713882446289,0.10732840746641,-0.16304190456867,9.78639793395996,0.23390918970108,-1.02027881145477,-0.88188529014587
362,994028243,-0.91763091087341,-0.55353373289108,11.15740680694580,0.08723606914282,-0.15771304070950,9.78805065155029,0.15727138519287,-1.01226162910461,-0.77013033628464
363,994036576,-0.91786408424377,-0.55329936742783,11.15704441070557,0.09370224177837,-0.16593165695667,9.79360103607178,0.20084120333195,-1.05831611156464,-0.84907341003418
364,994044909,-0.91800028085709,-0.55380755662918,11.15728950500488,0.07481873780489,-0.16729068756104,9.77388763427734,0.21357147395611,-1.14850378036499,-0.78352653980255
365,994053242,-0.91785639524460,-0.55434376001358,11.15800285339355,0.07562700659037,-0.16050264239311,9.77182102203369,0.24666507542133,-1.15406203269958,-0.72010582685471
366,994061575,-0.91803461313248,-0.55456024408340,11.15755176544189,0.08587709814310,-0.14505998790264,9.78153419494629,0.20645076036453,-1.11095333099365,-0.86590200662613
367,994069908,-0.91855621337891,-0.55400419235229,11.15781784057617,0.09681373089552,-0.16915757954121,9.79211997985840,0.16820867359638,-1.02066314220428,-0.77353709936142
368,994078241,-0.91814935207367,-0.55378496646881,11.15829944610596,0.08602724224329,-0.15789900720119,9.79759979248047,0.27742776274681,-1.06167173385620,-0.74369651079178
369,994086574,-0.91842985153198,-0.55375730991364,11.15828514099121,0.11245694011450,-0.14728389680386,9.79182052612305,0.19679415225983,-1.08495497703552,-0.80693799257278
370,994094907,-0.91819900274277,-0.55305790901184,11.15753841400146,0.10119841992855,-0.16166855394840,9.78832244873047,0.25455427169800,-1.00111961364746,-0.89389842748642
371,994103240,-0.91787403821945,-0.55370903015137,11.15783500671387,0.08295152336359,-0.16515915095806,9.79239177703857,0.26946172118187,-1.16546046733856,-0.77225631475449
372,994111573,-0.91772800683975,-0.55428063869476,11.15797233581543,0.09958903491497,-0.15057449042797,9.80647659301758,0.24658824503422,-1.15677714347839,-0.79630810022354
373,994119906,-0.91756033897400,-0.55451041460037,11.15850067138672,0.09730006009340,-0.15263424813747,9.76953220367432,0.24940580129623,-1.11428332328796,-0.74295365810394
374,994128239,-0.91752290725708,-0.55484133958817,11.15870952606201,0.08404590189457,-0.14737002551556,9.76988983154297,0.23503620922565,-1.12842226028442,-0.77996623516083
375,994136572,-0.91755938529968,-0.55531281232834,11.15854740142822,0.07894586026669,-0.14431543648243,9.79095554351807,0.22409896552563,-1.14284312725067,-0.82671225070953
376,994144905,-0.91830956935883,-0.55494999885559,11.15890502929688,0.09772929549217,-0.16011638939381,9.79496765136719,0.13980248570442,-1.04443311691284,-0.77112931013107
377,994153238,-0.91768908500671,-0.55555415153503,11.15975856781006,0.09936013817787,-0.16478720307350,9.80071830749512,0.30391290783882,-1.16100370883942,-0.70637661218643
378,994161571,-0.91747713088989,-0.55580216646194,11.15985774993896,0.08913157880306,-0.15841400623322,9.78852939605713,0.25358092784882,-1.11769008636475,-0.78790670633316
379,994169904,-0.91741168498993,-0.55587321519852,11.15959358215332,0.09931007027626,-0.15038137137890,9.79598999023438,0.23816111683846,-1.09384310245514,-0.83854591846466
380,994178237,-0.91794437170029,-0.55626934766769,11.15911483764648,0.09268648922443,-0.14942257106304,9.78501796722412,0.16339319944382,-1.13357079029083,-0.86597883701324
381,994186570,-0.91867178678513,-0.55621808767319,11.15926170349121,0.08740773797035,-0.16068862378597,9.78586864471436,0.14333726465702,-1.08129215240479,-0.78908491134644
382,994194903,-0.91869014501572,-0.55632913112640,11.15927314758301,0.09910263866186,-0.15023832023144,9.78618335723877,0.22640420496464,-1.10045146942139,-0.79869025945663
383,994203236,-0.91805565357208,-0.55663222074509,11.15832519531250,0.10119137167931,-0.15239882469177,9.77647018432617,0.30406659841537,-1.12145531177521,-0.92094707489014
384,994211569,-0.91746932268143,-0.55669856071472,11.15817356109619,0.09668506681919,-0.15606102347374,9.76612663269043,0.30037811398506,-1.09581542015076,-0.81034469604492
385,994219902,-0.91765749454498,-0.55612379312515,11.15799999237061,0.07860265672207,-0.15207687020302,9.77246475219727,0.20540052652359,-1.01738452911377,-0.82701957225800
386,994228235,-0.91763198375702,-0.55614256858826,11.15716934204102,0.11137691885233,-0.16480150818825,9.75257968902588,0.23173193633556,-1.08779811859131,-0.90025061368942
387,994236568,-0.91771000623703,-0.55600988864899,11.15836334228516,0.10614819079638,-0.16273432970047,9.75591278076172,0.22156310081482,-1.07396638393402,-0.66267865896225
388,994244901,-0.91766017675400,-0.55579185485840,11.15732383728027,0.11326526850462,-0.16481581330299,9.78342247009277,0.23296146094799,-1.05911016464233,-0.93570083379745
389,994253234,-0.91874903440475,-0.55552619695663,11.15777683258057,0.08737191557884,-0.13407234847546,9.76031780242920,0.09858918935061,-1.05498623847961,-0.75004881620407
390,994261567,-0.91818940639496,-0.55549043416977,11.15823554992676,0.10609812289476,-0.16068147122860,9.76983928680420,0.29789355397224,-1.08423769474030,-0.75763070583344
391,994269900,-0.91806119680405,-0.55536282062531,11.15918540954590,0.08918879926205,-0.15014532208443,9.75727844238281,0.24566614627838,-1.07327497005463,-0.69208389520645
392,994278233,-0.91771113872528,-0.55515998601913,11.15902900695801,0.08988985419273,-0.15397955477238,9.76072692871094,0.27102422714233,-1.06282424926758,-0.82233220338821
393,994286566,-0.91736143827438,-0.55532497167587,11.15843868255615,0.07601325958967,-0.14935135841370,9.79028892517090,0.27002528309822,-1.10559999942780,-0.87706977128983
394,994294899,-0.91708415746689,-0.55544078350067,11.15870857238770,0.10675618052483,-0.16194751858711,9.79893684387207,0.26290446519852,-1.10237252712250,-0.77827560901642
395,994303232,-0.91732001304626,-0.55418926477432,11.15914821624756,0.09716422110796,-0.15568162500858,9.77332973480225,0.20048262178898,-0.93721199035645,-0.75099658966064
396,994311565,-0.91770583391190,-0.55457097291946,11.15898323059082,0.08627758920193,-0.15508794784546,9.78436660766602,0.18352599442005,-1.13346827030182,-0.82791602611542
397,994319898,-0.91741245985031,-0.55492019653320,11.15882110595703,0.08459667116404,-0.16520921885967,9.77098369598389,0.26362171769142,-1.12729525566101,-0.82509851455688
398,994328231,-0.91792398691177,-0.55468821525574,11.15859222412109,0.10513963550329,-0.14754883944988,9.79443073272705,0.16777323186398,-1.05952000617981,-0.82878696918488
399,994336564,-0.91827613115311,-0.55475550889969,11.15877342224121,0.09228598326445,-0.15083199739456,9.77317237854004,0.18711200356483,-1.09563612937927,-0.78309124708176
400,994344897,-0.91876310110092,-0.55509752035141,11.15918922424316,0.11203502863646,-0.15987348556519,9.78167057037354,0.17100062966347,-1.12924194335938,-0.76385486125946
401,994353230,-0.91903710365295,-0.55531656742096,11.15892505645752,0.09247910976410,-0.15558148920536,9.77574062347412,0.19569276273251,-1.11297702789307,-0.83816188573837
402,994361563,-0.91926366090775,-0.55593842267990,11.15884685516357,0.10541151463985,-0.14636895060539,9.79404449462891,0.20222437381744,-1.16082429885864,-0.81738859415054
403,994369896,-0.91908508539200,-0.55555516481400,11.15878677368164,0.09786526858807,-0.15068207681179,9.76883792877197,0.25101947784424,-1.04087281227112,-0.81280362606049
404,994378229,-0.91858381032944,-0.55522119998932,11.15914916992188,0.09149209409952,-0.17760536074638,9.77272224426270,0.28977388143539,-1.04876208305359,-0.75376296043396
405,994386562,-0.91873192787170,-0.55493712425232,11.15971755981445,0.07952530682087,-0.16211202740669,9.79164791107178,0.21141989529133,-1.05452513694763,-0.73765158653259
406,994394895,-0.91858786344528,-0.55523318052292,11.16011619567871,0.09655629098415,-0.15289230644703,9.75277996063232,0.24671630561352,-1.12242853641510,-0.75491559505463
407,994403228,-0.91812002658844,-0.55521136522293,11.16037464141846,0.10068342089653,-0.14942288398743,9.78908729553223,0.28698194026947,-1.08608210086823,-0.77461296319962
408,994411561,-0.91868424415588,-0.55470114946365,11.16021823883057,0.08373122662306,-0.14638321101665,9.77433872222900,0.16057562828064,-1.02468454837799,-0.82135885953903
409,994419894,-0.91970229148865,-0.55479049682617,11.15968036651611,0.08029069751501,-0.14572519063950,9.79403781890869,0.10594046860933,-1.09735214710236,-0.87017953395844
410,994428227,-0.91979694366455,-0.55434805154800,11.15973186492920,0.09267229586840,-0.15610392391682,9.76443195343018,0.21795150637627,-1.03388011455536,-0.80135416984558
411,994436560,-0.91991615295410,-0.55448484420776,11.15992355346680,0.07557693868876,-0.15619663894176,9.78090476989746,0.21605606377125,-1.10373020172119,-0.78303986787796
412,994444893,-0.91975075006485,-0.55470925569534,11.16044807434082,0.09114867448807,-0.16167570650578,9.77616977691650,0.24935460090637,-1.11594808101654,-0.75394225120544
413,994453226,-0.91890633106232,-0.55399304628372,11.16060638427734,0.09547615051270,-0.16282731294632,9.75559043884277,0.33101275563240,-1.00001811981201,-0.78616493940353
414,994461559,-0.91849386692047,-0.55392020940781,11.16031742095947,0.08921740949154,-0.15130408108234,9.80006694793701,0.27719724178314,-1.07793664932251,-0.83508807420731
415,994469892,-0.91850781440735,-0.55374836921692,11.15971660614014,0.10788632929325,-0.16218356788158,9.78652667999268,0.22794108092785,-1.06548810005188,-0.87870913743973
416,994478225,-0.91882467269897,-0.55359113216400,11.15993976593018,0.08476839959621,-0.16648985445499,9.78098297119141,0.18985271453857,-1.06961202621460,-0.76400858163834
417,994486558,-0.91823345422745,-0.55366784334183,11.16019153594971,0.08632051199675,-0.16031667590141,9.79294967651367,0.30055740475655,-1.09660935401917,-0.77591919898987
418,994494891,-0.91822546720505,-0.55309504270554,11.15965366363525,0.08363103866577,-0.16817049682140,9.75580501556396,0.23050247132778,-1.01746141910553,-0.86567145586014
419,994503224,-0.91847372055054,-0.55333155393600,11.15891265869141,0.08423902839422,-0.14958025515079,9.77764987945557,0.19876645505428,-1.11377084255219,-0.89469236135483
420,994511557,-0.91869974136353,-0.55302453041077,11.15837001800537,0.11269310861826,-0.15097537636757,9.78179168701172,0.19968856871128,-1.04932546615601,-0.86600446701050
421,994519890,-0.91848051548004,-0.55331444740295,11.15803623199463,0.09559766203165,-0.15543811023235,9.77659225463867,0.25668027997017,-1.12089180946350,-0.84740859270096
422,994528223,-0.91896194219589,-0.55279010534286,11.15846729278564,0.09559774398804,-0.16932925581932,9.77155590057373,0.17120555043221,-1.02665710449219,-0.74131435155869
423,994536556,-0.91846930980682,-0.55239266157150,11.15766525268555,0.10116265714169,-0.16179731488228,9.79094028472900,0.28734049201012,-1.03736364841461,-0.90048116445541
424,994544889,-0.91911584138870,-0.55107074975967,11.15797424316406,0.10310832411051,-0.14899419248104,9.78567695617676,0.15148258209229,-0.92922037839890,-0.76382923126221
425,994553222,-0.91989183425903,-0.55126041173935,11.15775012969971,0.08050524443388,-0.17138926684856,9.79350090026855,0.13634456694126,-1.10908353328705,-0.83434516191483
426,994561555,-0.92042273283005,-0.55064982175827,11.15753173828125,0.07000492513180,-0.16366448998451,9.78336524963379,0.16475076973438,-1.01310706138611,-0.82468873262405
427,994569888,-0.91979968547821,-0.55049353837967,11.15807437896729,0.09345181286335,-0.14831393957138,9.79016113281250,0.30573150515556,-1.07004749774933,-0.74136561155319
428,994578221,-0.92021089792252,-0.54950165748596,11.15812206268311,0.10736417025328,-0.16048118472099,9.78259277343750,0.17935086786747,-0.96828210353851,-0.78767615556717
429,994586554,-0.92024743556976,-0.54946714639664,11.15785694122314,0.10212821513414,-0.15439380705357,9.78421020507812,0.22445754706860,-1.08183002471924,-0.83757263422012
430,994594887,-0.92097407579422,-0.54855245351791,11.15843009948730,0.09615566581488,-0.16410768032074,9.77712821960449,0.14274814724922,-0.97965490818024,-0.73547440767288
431,994603220,-0.92096054553986,-0.54787135124207,11.15851974487305,0.08456806093454,-0.15281333029270,9.80786418914795,0.22988776862621,-1.00534594058990,-0.79397714138031
432,994611553,-0.92165535688400,-0.54694312810898,11.15870761871338,0.09587670862675,-0.15664726495743,9.76445293426514,0.14648781716824,-0.97637629508972,-0.78201550245285
433,994619886,-0.92108827829361,-0.54691189527512,11.15872383117676,0.09680657833815,-0.16726207733154,9.75996112823486,0.29786795377731,-1.08244490623474,-0.80419743061066
434,994628219,-0.92060106992722,-0.54825723171234,11.15857505798340,0.09556903690100,-0.17087391018867,9.80375003814697,0.28667452931404,-1.24845063686371,-0.82602059841156
435,994636552,-0.92026275396347,-0.54959541559219,11.15914058685303,0.09770075976849,-0.14751338958740,9.78122043609619,0.27161332964897,-1.24824571609497,-0.74077647924423
436,994644885,-0.91975468397141,-0.54934316873550,11.15891075134277,0.07754397392273,-0.14757744967937,9.75542640686035,0.28867241740227,-1.05734288692474,-0.83326941728592
437,994653218,-0.91872173547745,-0.54930609464645,11.15895080566406,0.09015453606844,-0.13908018171787,9.76765727996826,0.35314342379570,-1.08185541629791,-0.80109792947769
438,994661551,-0.91813558340073,-0.54950869083405,11.15967369079590,0.07316634804010,-0.15236960351467,9.77003288269043,0.30004519224167,-1.11251592636108,-0.71224230527878
439,994669884,-0.91906303167343,-0.54978072643280,11.15975189208984,0.06953994184732,-0.12831485271454,9.80411529541016,0.11751810461283,-1.12091720104218,-0.79717892408371
440,994678217,-0.91867059469223,-0.54908066987991,11.15964603424072,0.10031870007515,-0.15998792648315,9.80988121032715,0.27773514389992,-1.00229787826538,-0.81387948989868
441,994686550,-0.91802084445953,-0.54967051744461,11.15895652770996,0.09002567827702,-0.15316382050514,9.76862335205078,0.30506554245949,-1.15711033344269,-0.88918542861938
442,994694883,-0.91831576824188,-0.55007523298264,11.15922832489014,0.09765060991049,-0.15824949741364,9.80385112762451,0.19479626417160,-1.13659322261810,-0.78086274862289
443,994703216,-0.91832011938095,-0.54951798915863,11.16012477874756,0.09055498987436,-0.14771336317062,9.78141975402832,0.23027196526527,-1.02158534526825,-0.69807749986649
444,994711549,-0.91804862022400,-0.54972892999649,11.16079044342041,0.10029008239508,-0.14644756913185,9.77082633972168,0.26164942979813,-1.11351490020752,-0.72568970918655
445,994719882,-0.91845077276230,-0.54973882436752,11.16093063354492,0.09120590239763,-0.15678316354752,9.73717212677002,0.18063157796860,-1.08823359012604,-0.78777861595154
446,994728215,-0.91890108585358,-0.54994583129883,11.16122722625732,0.09529732912779,-0.16338524222374,9.76325130462646,0.17604663968086,-1.11210596561432,-0.76600646972656
447,994736548,-0.91889077425003,-0.54994130134583,11.16118717193604,0.10521832108498,-0.16363558173180,9.77411651611328,0.23047687113285,-1.08705520629883,-0.81093388795853
448,994744881,-0.91873043775558,-0.55004036426544,11.16174030303955,0.08157095313072,-0.14909358322620,9.77309417724609,0.24930334091187,-1.10052835941315,-0.73895788192749
449,994753214,-0.91988712549210,-0.54918897151947,11.16145610809326,0.08797996491194,-0.16381441056728,9.77238559722900,0.08893262594938,-0.98388117551804,-0.83762389421463
450,994761547,-0.91922247409821,-0.54807931184769,11.16103935241699,0.09761475026608,-0.17576654255390,9.78278636932373,0.30913817882538,-0.95329773426056,-0.84976500272751
451,994769880,-0.91892898082733,-0.54754006862640,11.16183567047119,0.09122020751238,-0.14519555866718,9.75560474395752,0.26561960577965,-1.02358329296112,-0.70870739221573
452,994778213,-0.91819012165070,-0.54741942882538,11.16114044189453,0.09698539972305,-0.16882139444351,9.77585506439209,0.31592598557472,-1.07048285007477,-0.89643424749374
453,994786546,-0.91794639825821,-0.54718345403671,11.16080188751221,0.10565464198589,-0.16343531012535,9.76692104339600,0.25834512710571,-1.05952000617981,-0.84676820039749
454,994794879,-0.91754978895187,-0.54724442958832,11.16077899932861,0.08453229814768,-0.16317065060139,9.78981018066406,0.27681303024292,-1.09317708015442,-0.81139487028122
455,994803212,-0.91776889562607,-0.54737609624863,11.16066551208496,0.09815853089094,-0.15367199480534,9.80629062652588,0.20214752852917,-1.10360217094421,-0.81987321376801
456,994811545,-0.91759902238846,-0.54719877243042,11.16059970855713,0.09716422110796,-0.14652599394321,9.78018188476562,0.25027668476105,-1.06518065929413,-0.80624639987946
457,994819878,-0.91774433851242,-0.54702788591385,11.16047382354736,0.08328764140606,-0.13747020065784,9.76894569396973,0.21216270327568,-1.06630778312683,-0.82133316993713
458,994828211,-0.91725677251816,-0.54682087898254,11.15975189208984,0.07913190126419,-0.15828526020050,9.79146194458008,0.28675132989883,-1.06036520004272,-0.89418011903763
459,994836544,-0.91678088903427,-0.54637366533279,11.15964126586914,0.09419579058886,-0.14063204824924,9.77754974365234,0.28652080893517,-1.03349590301514,-0.81854122877121
460,994844877,-0.91656047105789,-0.54653513431549,11.15990924835205,0.08012614399195,-0.14875768125057,9.77735710144043,0.25491285324097,-1.10818696022034,-0.76846545934677
461,994853210,-0.91710895299911,-0.54741239547729,11.16054248809814,0.10372337698936,-0.14808531105518,9.77960300445557,0.16495566070080,-1.19256019592285,-0.73247742652893
462,994861543,-0.91773593425751,-0.54698687791824,11.16051006317139,0.09924574941397,-0.17258407175541,9.77641296386719,0.15227663516998,-1.03603172302246,-0.81679952144623
463,994869876,-0.91742789745331,-0.54691469669342,11.16049957275391,0.08622752130032,-0.17025911808014,9.75553321838379,0.26679790019989,-1.07788550853729,-0.80716860294342
464,994878209,-0.91766780614853,-0.54644244909286,11.16039180755615,0.09512566030025,-0.14900086820126,9.76874446868896,0.20027770102024,-1.03024303913116,-0.82489359378815
465,994886542,-0.91792899370193,-0.54604130983353,11.16022205352783,0.09347335249186,-0.16212633252144,9.78659820556641,0.19710153341293,-1.03820896148682,-0.82420206069946
466,994894875,-0.91852074861526,-0.54668885469437,11.16051101684570,0.09323015809059,-0.15967291593552,9.77629089355469,0.15947420895100,-1.16635680198669,-0.76242047548294
467,994903208,-0.91885906457901,-0.54694676399231,11.16078662872314,0.08899567276239,-0.13636179268360,9.76518249511719,0.18788039684296,-1.11845827102661,-0.77215397357941
468,994911541,-0.91917645931244,-0.54693174362183,11.16142082214355,0.09439601749182,-0.14881463348866,9.76414585113525,0.19195307791233,-1.08626127243042,-0.71582818031311
469,994919874,-0.91884189844131,-0.54617875814438,11.16174030303955,0.08798727393150,-0.15624007582664,9.75509834289551,0.27005088329315,-0.99737989902496,-0.76713353395462
470,994928207,-0.91921061277390,-0.54613816738129,11.16103267669678,0.08993269503117,-0.15608933568001,9.80598258972168,0.18452493846416,-1.08211171627045,-0.88234633207321
471,994936540,-0.91893738508224,-0.54619300365448,11.16048908233643,0.08903143554926,-0.14461617171764,9.80157661437988,0.26029181480408,-1.09212684631348,-0.87130659818649
472,994944873,-0.91912704706192,-0.54582417011261,11.16090679168701,0.10776472836733,-0.15141853690147,9.77441024780273,0.20750091969967,-1.04320371150970,-0.75322496891022
473,994953206,-0.91938126087189,-0.54597127437592,11.16147041320801,0.07897448539734,-0.16573825478554,9.76865959167480,0.19932997226715,-1.10652208328247,-0.73895782232285
474,994961539,-0.91889888048172,-0.54632276296616,11.16143035888672,0.09884513914585,-0.17292712628841,9.77897357940674,0.28682819008827,-1.12791001796722,-0.81600546836853
475,994969872,-0.91874212026596,-0.54633015394211,11.16164779663086,0.09413849562407,-0.16759799420834,9.77291584014893,0.24822753667831,-1.08918130397797,-0.78024798631668
476,994978205,-0.91900390386581,-0.54654580354691,11.16093635559082,0.10591208189726,-0.15829208493233,9.79450988769531,0.19715277850628,-1.11097896099091,-0.88644468784332
477,994986538,-0.91878145933151,-0.54575049877167,11.16075897216797,0.09790103882551,-0.15942999720573,9.77339458465576,0.25560447573662,-0.99205219745636,-0.82502168416977
478,994994871,-0.91910707950592,-0.54606544971466,11.16021728515625,0.11256428807974,-0.16327793896198,9.76050472259521,0.19031375646591,-1.12406778335571,-0.86961609125137
479,995003204,-0.91868466138840,-0.54686230421066,11.16039466857910,0.08594141155481,-0.14493805170059,9.77815818786621,0.27947691082954,-1.18185353279114,-0.78762495517731
480,995011537,-0.91867387294769,-0.54703676700592,11.16118240356445,0.12254972010851,-0.17788432538509,9.79549694061279,0.23134776949883,-1.11021065711975,-0.70309799909592
481,995019870,-0.91894292831421,-0.54725027084351,11.16108322143555,0.10426693409681,-0.16367104649544,9.78484630584717,0.19699907302856,-1.11233639717102,-0.81882297992706
482,995028203,-0.91854298114777,-0.54726904630661,11.16160583496094,0.10528276860714,-0.14442333579063,9.78921604156494,0.27760705351830,-1.09048759937286,-0.74638587236404
483,995036536,-0.91856282949448,-0.54718017578125,11.16132450103760,0.10502526909113,-0.14408002793789,9.80609035491943,0.22689087688923,-1.07591307163239,-0.83893024921417
484,995044869,-0.91866278648376,-0.54792118072510,11.16079139709473,0.09566920250654,-0.16254086792469,9.79947376251221,0.21546693146229,-1.17585992813110,-0.86075353622437
485,995053202,-0.91859942674637,-0.54779899120331,11.16136264801025,0.11705627292395,-0.16143967211246,9.79104709625244,0.23851972818375,-1.07248079776764,-0.73708790540695
486,995061535,-0.91870313882828,-0.54803812503815,11.16184806823730,0.10823681950569,-0.14990213513374,9.80327129364014,0.21743926405907,-1.11694717407227,-0.75627315044403
487,995069868,-0.91835767030716,-0.54779630899429,11.16140747070312,0.09042624384165,-0.15701921284199,9.80373668670654,0.27064001560211,-1.05688178539276,-0.85903739929199
488,995078201,-0.91839069128036,-0.54810094833374,11.16119575500488,0.09413849562407,-0.14586760103703,9.77957534790039,0.22358661890030,-1.12419593334198,-0.83821296691895
489,995086534,-0.91876107454300,-0.54770421981812,11.16079044342041,0.09602691978216,-0.16541664302349,9.76920223236084,0.18496038019657,-1.03772222995758,-0.85268503427505
490,995094867,-0.91884434223175,-0.54798513650894,11.16016101837158,0.09081242233515,-0.16736190021038,9.79785728454590,0.21743926405907,-1.11963665485382,-0.87622451782227
491,995103200,-0.91843301057816,-0.54782480001450,11.16036033630371,0.09026164561510,-0.15093901753426,9.78595542907715,0.27896463871002,-1.06856191158295,-0.78206664323807
492,995111533,-0.91871517896652,-0.54778730869293,11.16082668304443,0.08330200612545,-0.15419383347034,9.77689933776855,0.19625625014305,-1.08441698551178,-0.75824528932571
493,995119866,-0.91873145103455,-0.54717415571213,11.15993595123291,0.09134888648987,-0.16213318705559,9.77893829345703,0.22653229534626,-1.01141643524170,-0.91164904832840
494,995128199,-0.91884350776672,-0.54706931114197,11.16046524047852,0.10029000788927,-0.14600382745266,9.77440261840820,0.21618413925171,-1.07524704933167,-0.73754906654358
495,995136532,-0.91913747787476,-0.54702579975128,11.16031265258789,0.09157063812017,-0.14363594353199,9.78245067596436,0.19308008253574,-1.08072853088379,-0.82443255186081
496,995144865,-0.91934007406235,-0.54778641462326,11.16093349456787,0.09900965541601,-0.16486588120461,9.78378772735596,0.20588722825050,-1.17957401275635,-0.74069958925247
497,995153198,-0.91950762271881,-0.54754197597504,11.16103172302246,0.10741424560547,-0.15656141936779,9.75531196594238,0.21006233990192,-1.05800867080688,-0.79338812828064
498,995161531,-0.91917645931244,-0.54733496904373,11.16103363037109,0.10508241504431,-0.15329973399639,9.76960372924805,0.26856526732445,-1.06226062774658,-0.80376183986664
499,995169864,-0.91900503635406,-0.54756951332092,11.16068840026855,0.10853000730276,-0.15836362540722,9.77593421936035,0.24889351427555,-1.11420631408691,-0.84835624694824
500,995178197,-0.91875690221786,-0.54716140031815,11.16118717193604,0.10592645406723,-0.14274212718010,9.78664875030518,0.25962588191032,-1.04002761840820,-0.74005919694901
501,995186530,-0.91804498434067,-0.54714155197144,11.16096687316895,0.08747211843729,-0.16658970713615,9.77076911926270,0.31372311711311,-1.08362281322479,-0.83237296342850
502,995194863,-0.91738480329514,-0.54700988531113,11.16059970855713,0.09739301353693,-0.15912899374962,9.78378105163574,0.30895888805389,-1.07055985927582,-0.84100490808487
503,995203196,-0.91669666767120,-0.54744267463684,11.16196060180664,0.08321617543697,-0.16231946647167,9.78965282440186,0.31367191672325,-1.14291989803314,-0.64433884620667
504,995211529,-0.91695058345795,-0.54715168476105,11.16236782073975,0.10087648779154,-0.15910042822361,9.77604103088379,0.19871522486210,-1.05245041847229,-0.76116538047791
505,995219862,-0.91663700342178,-0.54619139432907,11.16201400756836,0.08712162822485,-0.16084598004818,9.77046203613281,0.26597821712494,-0.97025442123413,-0.84699869155884
506,995228195,-0.91631841659546,-0.54648715257645,11.16256237030029,0.09541892260313,-0.15038852393627,9.77915191650391,0.26777115464211,-1.12432396411896,-0.73232370615005
507,995236528,-0.91660743951797,-0.54588538408279,11.16328525543213,0.10512533038855,-0.14737717807293,9.77045440673828,0.19584643840790,-1.01664185523987,-0.71931171417236
508,995244861,-0.91605198383331,-0.54563993215561,11.16319942474365,0.10295078158379,-0.15311346948147,9.79227828979492,0.29579317569733,-1.05736851692200,-0.82059043645859
509,995253194,-0.91663670539856,-0.54652339220047,11.16275310516357,0.09820853173733,-0.14712682366371,9.76880931854248,0.15898756682873,-1.19112586975098,-0.86198300123215
510,995261527,-0.91686868667603,-0.54684430360794,11.16228675842285,0.09193542599678,-0.14488767087460,9.74653625488281,0.20038016140461,-1.12475943565369,-0.84172224998474
511,995269860,-0.91735726594925,-0.54689103364944,11.16253471374512,0.09684234112501,-0.15030269324780,9.79031753540039,0.17089818418026,-1.09402251243591,-0.77771222591400
512,995278193,-0.91692966222763,-0.54652428627014,11.16279602050781,0.08996130526066,-0.15540266036987,9.77930259704590,0.28157728910446,-1.04445874691010,-0.75486427545547
513,995286526,-0.91567456722260,-0.54651361703873,11.16213989257812,0.09605553001165,-0.15195499360561,9.77521800994873,0.37834787368774,-1.08321321010590,-0.88526630401611
514,995294859,-0.91594898700714,-0.54699862003326,11.16151237487793,0.11520355194807,-0.16709689795971,9.79066753387451,0.19620504975319,-1.14468741416931,-0.86679852008820
515,995303192,-0.91574895381927,-0.54639142751694,11.16197299957275,0.08663523197174,-0.17000161111355,9.78556156158447,0.25363212823868,-1.01464366912842,-0.74974143505096
516,995311525,-0.91550832986832,-0.54632014036179,11.16110420227051,0.10355170816183,-0.15352861583233,9.78777122497559,0.25603988766670,-1.07704031467438,-0.90409284830093
517,995319858,-0.91541033983231,-0.54629826545715,11.16065788269043,0.09988944977522,-0.14996650815010,9.76461791992188,0.24067135155201,-1.08323872089386,-0.85965222120285
518,995328191,-0.91544651985168,-0.54640436172485,11.16074562072754,0.10196371376514,-0.16176125407219,9.77990436553955,0.22463686764240,-1.10045158863068,-0.79226112365723
519,995336524,-0.91547083854675,-0.54645955562592,11.16041851043701,0.07306629419327,-0.16147543489933,9.76707077026367,0.22617368400097,-1.09333086013794,-0.84400182962418
520,995344857,-0.91481089591980,-0.54643857479095,11.16107940673828,0.10772181302309,-0.15839970111847,9.76923847198486,0.30975291132927,-1.08580017089844,-0.72312831878662
521,995353190,-0.91454708576202,-0.54623931646347,11.16113281250000,0.10436704754829,-0.15612483024597,9.76754379272461,0.26090657711029,-1.06233751773834,-0.79950988292694
522,995361523,-0.91485840082169,-0.54655253887177,11.16070842742920,0.10533997416496,-0.16325680911541,9.76705646514893,0.19054427742958,-1.12399101257324,-0.85309487581253
523,995369856,-0.91592091321945,-0.54603058099747,11.16108131408691,0.08987547457218,-0.14211268723011,9.76755714416504,0.10337904840708,-1.02599084377289,-0.76037132740021
524,995378189,-0.91621345281601,-0.54612678289413,11.16155719757080,0.09194985777140,-0.14998824894428,9.78108310699463,0.19425836205482,-1.09942698478699,-0.74169862270355
525,995386522,-0.91615271568298,-0.54668986797333,11.16115570068359,0.09003283083439,-0.16201904416084,9.75409603118896,0.23493377864361,-1.15314006805420,-0.85529780387878
526,995394855,-0.91623604297638,-0.54641461372375,11.16101551055908,0.07675000280142,-0.16513767838478,9.77003955841064,0.21979571878910,-1.05400013923645,-0.82790327072144
527,995403188,-0.91618907451630,-0.54700928926468,11.15996360778809,0.09556206315756,-0.13576848804951,9.79862976074219,0.23252603411674,-1.15582954883575,-0.93336999416351
528,995411521,-0.91604727506638,-0.54702472686768,11.15948486328125,0.09177097678185,-0.16828493773937,9.73132133483887,0.24663947522640,-1.08933484554291,-0.85191661119461
529,995419854,-0.91587138175964,-0.54736870527267,11.15977096557617,0.09961764514446,-0.17176121473312,9.75672817230225,0.25043034553528,-1.12898576259613,-0.77381885051727
530,995428187,-0.91660523414612,-0.54727137088776,11.16009330749512,0.10413824021816,-0.15103228390217,9.77014732360840,0.14210776984692,-1.07627165317535,-0.75939804315567
531,995436520,-0.91674244403839,-0.54735755920410,11.16047668457031,0.09599836170673,-0.14475236833096,9.76303672790527,0.21277745068073,-1.09804379940033,-0.76021766662598
532,995444853,-0.91705089807510,-0.54708415269852,11.16033840179443,0.08211463689804,-0.16352829337120,9.79379463195801,0.19162009656429,-1.05342388153076,-0.81060087680817
533,995453186,-0.91725468635559,-0.54734218120575,11.16025733947754,0.08832330256701,-0.16930064558983,9.78550434112549,0.20547738671303,-1.11779224872589,-0.81626158952713
534,995461519,-0.91776412725449,-0.54736578464508,11.15994930267334,0.10368046164513,-0.17889975011349,9.77056217193604,0.16615955531597,-1.08971917629242,-0.84523135423660
535,995469852,-0.91760915517807,-0.54772490262985,11.15987110137939,0.07896023243666,-0.14487367868423,9.78190612792969,0.24897034466267,-1.13003587722778,-0.81618481874466
536,995478185,-0.91789132356644,-0.54702949523926,11.16035079956055,0.09561204910278,-0.14730565249920,9.79488849639893,0.19553907215595,-1.00383472442627,-0.76546871662140
537,995486518,-0.91840869188309,-0.54621350765228,11.15962505340576,0.10550443083048,-0.16246251761913,9.78952407836914,0.16544233262539,-0.98790258169174,-0.89115762710571
538,995494851,-0.91793495416641,-0.54627102613449,11.16018581390381,0.10044728964567,-0.14412237703800,9.78594779968262,0.28623908758163,-1.09599483013153,-0.73403996229172
539,995503184,-0.91772484779358,-0.54601645469666,11.16050910949707,0.09254348278046,-0.15652565658092,9.78794288635254,0.25614231824875,-1.05590844154358,-0.76600641012192
540,995511517,-0.91779184341431,-0.54600536823273,11.16059303283691,0.08795850723982,-0.14804954826832,9.77247905731201,0.22033362090588,-1.08618438243866,-0.78347533941269
541,995519850,-0.91752237081528,-0.54674893617630,11.16099071502686,0.10216398537159,-0.16106742620468,9.75701522827148,0.26190552115440,-1.17683315277100,-0.75878322124481
542,995528183,-0.91782981157303,-0.54782235622406,11.16055011749268,0.09390973299742,-0.14734177291393,9.74037647247314,0.19195306301117,-1.21648406982422,-0.85319727659225
543,995536516,-0.91828864812851,-0.54827278852463,11.16018772125244,0.09016164392233,-0.16046005487442,9.79038238525391,0.17374137043953,-1.13948774337769,-0.84938085079193
544,995544849,-0.91832727193832,-0.54857093095779,11.15988254547119,0.09543322771788,-0.14826412498951,9.78044700622559,0.22450874745846,-1.12312018871307,-0.83490878343582
545,995553182,-0.91836369037628,-0.54913651943207,11.16043949127197,0.08922462910414,-0.15556032955647,9.78322219848633,0.22504667937756,-1.15472817420959,-0.73857367038727
546,995561515,-0.91808521747589,-0.54930061101913,11.16019821166992,0.09519718587399,-0.15646128356457,9.76915264129639,0.26300698518753,-1.10741865634918,-0.83782887458801
547,995569848,-0.91793954372406,-0.54914444684982,11.16033649444580,0.11365152150393,-0.14129726588726,9.77754974365234,0.24630646407604,-1.06812632083893,-0.78993016481400
548,995578181,-0.91833603382111,-0.54887723922729,11.16085910797119,0.07562700659037,-0.15463730692863,9.77089786529541,0.18183547258377,-1.05657446384430,-0.73611479997635
549,995586514,-0.91810840368271,-0.54955142736435,11.16107845306396,0.09305133670568,-0.15280617773533,9.79207038879395,0.25693637132645,-1.16799628734589,-0.78091394901276
550,995594847,-0.91798704862595,-0.54915660619736,11.16078758239746,0.09943167120218,-0.17070259153843,9.80081844329834,0.24305345118046,-1.03905415534973,-0.82284450531006
551,995603180,-0.91792899370193,-0.54924762248993,11.16075515747070,0.08391715586185,-0.13011737167835,9.76134872436523,0.23631691932678,-1.09750592708588,-0.80975562334061
552,995611513,-0.91793239116669,-0.54866600036621,11.16077613830566,0.09182111173868,-0.17074579000473,9.78925228118896,0.22934983670712,-1.01751255989075,-0.80045759677887
553,995619846,-0.91723722219467,-0.54824894666672,11.16045951843262,0.09804401546717,-0.15603211522102,9.76036930084229,0.31236559152603,-1.03759419918060,-0.84307968616486
554,995628179,-0.91697502136230,-0.54780656099319,11.15977668762207,0.09408857673407,-0.15614686906338,9.77589797973633,0.26016378402710,-1.03249692916870,-0.87858098745346
555,995636512,-0.91734445095062,-0.54769498109818,11.15974712371826,0.10989627987146,-0.14946579933167,9.79474544525146,0.18470425903797,-1.07371032238007,-0.81039601564407
556,995644845,-0.91827678680420,-0.54843956232071,11.15973186492920,0.09508274495602,-0.15520954132080,9.75187873840332,0.11621176451445,-1.17532193660736,-0.81311100721359
557,995653178,-0.91880571842194,-0.54828578233719,11.15927886962891,0.10302245616913,-0.15446595847607,9.80067539215088,0.16531427204609,-1.06815195083618,-0.86054861545563
558,995661511,-0.91833966970444,-0.54843306541443,11.15877342224121,0.08373833447695,-0.15464445948601,9.79530334472656,0.28541940450668,-1.10483157634735,-0.85901176929474
559,995669844,-0.91827094554901,-0.54845011234283,11.15949726104736,0.08546223491430,-0.15797795355320,9.75442504882812,0.23767447471619,-1.08982157707214,-0.71969586610794
560,995678177,-0.91842490434647,-0.54848557710648,11.15915966033936,0.11235685646534,-0.16362127661705,9.79411602020264,0.21077956259251,-1.09038531780243,-0.83201444149017
561,995686510,-0.91829591989517,-0.54865926504135,11.15896129608154,0.09429592639208,-0.15783463418484,9.78551101684570,0.24476961791515,-1.10777723789215,-0.83042627573013
562,995694843,-0.91869747638702,-0.54866725206375,11.15872573852539,0.10305100679398,-0.14306400716305,9.80405139923096,0.17988876998425,-1.08682489395142,-0.83529305458069
563,995703176,-0.91900390386581,-0.54876130819321,11.15885543823242,0.10538998991251,-0.15867866575718,9.77849388122559,0.19218359887600,-1.09929883480072,-0.78993016481400
564,995711509,-0.91963428258896,-0.54888182878494,11.15868854522705,0.11327952146530,-0.15927204489708,9.77094841003418,0.15435139834881,-1.10186040401459,-0.81823396682739
565,995719842,-0.91932535171509,-0.55005663633347,11.15854454040527,0.09393828362226,-0.16298468410969,9.74990463256836,0.26449260115623,-1.22754943370819,-0.82420212030411
566,995728175,-0.91918969154358,-0.55012667179108,11.15864467620850,0.08393152803183,-0.14493834972382,9.77360916137695,0.24651136994362,-1.09589219093323,-0.79917693138123
567,995736508,-0.91992294788361,-0.55089086294174,11.15819072723389,0.09395974874496,-0.13747048377991,9.78651237487793,0.14098075032234,-1.17683315277100,-0.86252087354660
568,995744841,-0.91927504539490,-0.55125409364700,11.15849590301514,0.10121272504330,-0.16625352203846,9.78737068176270,0.30685850977898,-1.13221311569214,-0.77225631475449
569,995753174,-0.91932439804077,-0.55117416381836,11.15891838073730,0.10214259475470,-0.16935786604881,9.77340888977051,0.22366347908974,-1.07729625701904,-0.75494116544724
570,995761507,-0.91966009140015,-0.55038028955460,11.15957164764404,0.10317260771990,-0.14410832524300,9.78964519500732,0.18903304636478,-0.99407553672791,-0.71810781955719
571,995769840,-0.91976249217987,-0.54990887641907,11.15923976898193,0.08865226805210,-0.15905748307705,9.80874443054199,0.21628658473492,-1.02970504760742,-0.84658885002136
572,995778173,-0.92012530565262,-0.55041402578354,11.15848159790039,0.09319445490837,-0.17683292925358,9.78004646301270,0.18447369337082,-1.14553260803223,-0.89082467556000
573,995786506,-0.92048740386963,-0.55049520730972,11.15772914886475,0.09103430062532,-0.17606040835381,9.79811477661133,0.18506284058094,-1.09484195709229,-0.89515346288681
574,995794839,-0.91669964790344,-0.55496114492416,11.15433216094971,0.09343043714762,-0.15099652111530,9.78572559356689,0.18780355155468,-1.06605160236359,-0.83270591497421
575,995803172,-0.91618186235428,-0.55478519201279,11.15474700927734,0.09733588993549,-0.17026627063751,9.78194904327393,0.29141315817833,-1.06620538234711,-0.75658041238785
576,995811505,-0.91594225168228,-0.55526685714722,11.15555858612061,0.10257184505463,-0.15711247920990,9.76623439788818,0.25908794999123,-1.14624977111816,-0.73183703422546
577,995819838,-0.91634011268616,-0.55513364076614,11.15465164184570,0.09108436107635,-0.17453685402870,9.74356651306152,0.17871052026749,-1.06930470466614,-0.91346770524979
578,995828171,-0.91610807180405,-0.55501741170883,11.15407752990723,0.09143470972776,-0.16071692109108,9.78630542755127,0.25642412900925,-1.07225024700165,-0.86700344085693
579,995836504,-0.91684275865555,-0.55498236417770,11.15509891510010,0.08857365697622,-0.14692655205727,9.78332233428955,0.14159548282623,-1.08380222320557,-0.68270897865295
580,995844837,-0.91762131452560,-0.55474638938904,11.15530014038086,0.11506778746843,-0.16120362281799,9.80303573608398,0.13578104972839,-1.05954563617706,-0.78693336248398
581,995853170,-0.91735363006592,-0.55470657348633,11.15567111968994,0.09503259509802,-0.16505157947540,9.78378772735596,0.26259714365005,-1.08293139934540,-0.76195943355560
582,995861503,-0.91736561059952,-0.55448824167252,11.15627193450928,0.09536885470152,-0.16891439259052,9.78900909423828,0.22740314900875,-1.06133866310120,-0.74159610271454
583,995869836,-0.91838210821152,-0.55501717329025,11.15626430511475,0.10362319648266,-0.16025198996067,9.78388118743896,0.10599169880152,-1.14970767498016,-0.80765521526337
584,995878169,-0.91913837194443,-0.55508798360825,11.15712261199951,0.10587637871504,-0.16002340614796,9.78213500976562,0.14000740647316,-1.09742903709412,-0.70696568489075
585,995886502,-0.91935008764267,-0.55549466609955,11.15710544586182,0.10787917673588,-0.15475176274776,9.78633403778076,0.20271104574203,-1.13513302803040,-0.80786007642746
586,995894835,-0.91916799545288,-0.55529552698135,11.15786933898926,0.10047598183155,-0.14077509939671,9.79146194458008,0.25232580304146,-1.06446349620819,-0.72235977649689
587,995903168,-0.91953557729721,-0.55517005920410,11.15764713287354,0.10032577812672,-0.15076762437820,9.77304363250732,0.18529336154461,-1.07043159008026,-0.83296209573746
588,995911501,-0.91892290115356,-0.55577963590622,11.15793418884277,0.10005387663841,-0.15480868518353,9.77999687194824,0.30286270380020,-1.16149020195007,-0.76721036434174
589,995919834,-0.91861319541931,-0.55614930391312,11.15750980377197,0.10177064687014,-0.15603211522102,9.77800750732422,0.26544031500816,-1.12957501411438,-0.85616862773895
590,995928167,-0.91940492391586,-0.55622315406799,11.15787696838379,0.10963162034750,-0.17191858589649,9.79697704315186,0.13391120731831,-1.09676313400269,-0.77179527282715
591,995936500,-0.91952884197235,-0.55625247955322,11.15857410430908,0.09840875864029,-0.16299872100353,9.77737903594971,0.21426306664944,-1.09023153781891,-0.72130966186523
592,995944833,-0.91970527172089,-0.55590611696243,11.15907669067383,0.09695690125227,-0.15993809700012,9.76481246948242,0.20794916152954,-1.04654645919800,-0.73210608959198
593,995953166,-0.91918510198593,-0.55567014217377,11.15884494781494,0.10385213047266,-0.14809246361256,9.76708507537842,0.29156681895256,-1.05887961387634,-0.83339756727219
594,995961499,-0.91997921466827,-0.55489861965179,11.15864372253418,0.08901713043451,-0.13659784197807,9.77928829193115,0.13242559134960,-0.99310225248337,-0.82458627223969
595,995969832,-0.92031282186508,-0.55503976345062,11.15819835662842,0.09505407512188,-0.13806386291981,9.79437446594238,0.18944288790226,-1.10334599018097,-0.86049747467041
596,995978165,-0.92028355598450,-0.55579066276550,11.15807723999023,0.10215689986944,-0.14220567047596,9.77283668518066,0.23193693161011,-1.17603921890259,-0.82151263952255
597,995986498,-0.92010462284088,-0.55615288019180,11.15833568572998,0.09054068475962,-0.15334980189800,9.80076789855957,0.25035354495049,-1.13047146797180,-0.77599602937698
598,995994831,-0.91992115974426,-0.55653727054596,11.15814018249512,0.07910329103470,-0.15162596106529,9.79246330261230,0.25063526630402,-1.13305854797363,-0.83157885074615
599,996003164,-0.91954177618027,-0.55626606941223,11.15791797637939,0.09228598326445,-0.15125401318073,9.79448127746582,0.27366247773170,-1.05419230461121,-0.83268034458160
600,996011497,-0.91925704479218,-0.55677288770676,11.15857124328613,0.07025529444218,-0.14053219556808,9.75967502593994,0.26369851827621,-1.14809405803680,-0.73076128959656
601,996019830,-0.91907578706741,-0.55643254518509,11.15861129760742,0.10971745848656,-0.16021652519703,9.77767181396484,0.25130128860474,-1.04527854919434,-0.80053454637527
602,996028163,-0.91939610242844,-0.55618244409561,11.15837860107422,0.10777188837528,-0.15807068347931,9.75911712646484,0.19003202021122,-1.05757331848145,-0.82955545186996
603,996036496,-0.91988509893417,-0.55618244409561,11.15950965881348,0.09497544914484,-0.14637577533722,9.77787876129150,0.17094938457012,-1.08854091167450,-0.67077285051346
604,996044829,-0.91966664791107,-0.55581516027451,11.15927505493164,0.09279382973909,-0.13569658994675,9.79438114166260,0.25662901997566,-1.04184615612030,-0.81966823339462
605,996053162,-0.91964155435562,-0.55653774738312,11.15914154052734,0.10403810441494,-0.14814968407154,9.78174877166748,0.23078425228596,-1.17381072044373,-0.82299816608429
606,996061495,-0.91921186447144,-0.55665433406830,11.15926933288574,0.09229313582182,-0.14468055963516,9.78888702392578,0.27983549237251,-1.10060513019562,-0.79320877790451
607,996069828,-0.91916352510452,-0.55705237388611,11.15987205505371,0.09076242148876,-0.14840003848076,9.75669193267822,0.23588149249554,-1.13492822647095,-0.73288726806641
608,996078161,-0.91898679733276,-0.55665564537048,11.16030883789062,0.10393088310957,-0.15214839577675,9.76045513153076,0.25101950764656,-1.04043745994568,-0.75309699773788
609,996086494,-0.91843867301941,-0.55665469169617,11.16041183471680,0.07496894896030,-0.16679714620113,9.76888084411621,0.29402580857277,-1.08597946166992,-0.79359304904938
610,996094827,-0.91825938224792,-0.55694663524628,11.16079330444336,0.09681373089552,-0.13508144021034,9.79048252105713,0.25158303976059,-1.12355554103851,-0.77681571245193
611,996103160,-0.91844326257706,-0.55743372440338,11.16067409515381,0.10063334554434,-0.15611079335213,9.77300834655762,0.20670686662197,-1.14461040496826,-0.82205039262772
612,996111493,-0.91850453615189,-0.55747479200363,11.16037940979004,0.09511844068766,-0.16343501210213,9.77415275573730,0.22097399830818,-1.09074389934540,-0.83588212728500
613,996119826,-0.91882812976837,-0.55719709396362,11.15976047515869,0.10465324670076,-0.16180446743965,9.78850841522217,0.18867446482182,-1.05170762538910,-0.87809449434280
614,996128159,-0.91785866022110,-0.55697321891785,11.15884876251221,0.10157048702240,-0.13488148152828,9.78792190551758,0.34535673260689,-1.05826497077942,-0.91684871912003
615,996136492,-0.91776269674301,-0.55601179599762,11.15895271301270,0.09469648450613,-0.14870044589043,9.79807853698730,0.23956993222237,-0.97115087509155,-0.79044240713120
616,996144825,-0.91833823919296,-0.55532276630402,11.15940952301025,0.09282243996859,-0.16149689257145,9.77518272399902,0.16054999828339,-1.00598621368408,-0.74249255657196
617,996153158,-0.91804081201553,-0.55522078275681,11.16015720367432,0.09051922708750,-0.16319926083088,9.79704189300537,0.26467189192772,-1.07599008083344,-0.71692961454391
618,996161491,-0.91814041137695,-0.55565667152405,11.16004848480225,0.08915303647518,-0.17334198951721,9.78212070465088,0.21805398166180,-1.13830935955048,-0.81308531761169
619,996169824,-0.91836494207382,-0.55556595325470,11.15994453430176,0.10815814137459,-0.17067398130894,9.76873016357422,0.20181454718113,-1.07652783393860,-0.81795215606689
620,996178157,-0.91850119829178,-0.55590963363647,11.15942382812500,0.09175667166710,-0.16455115377903,9.78027534484863,0.21213708817959,-1.12680852413177,-0.85890930891037
621,996186490,-0.91770070791245,-0.55752974748611,11.15845203399658,0.11297915130854,-0.14808531105518,9.78749275207520,0.32284179329872,-1.27962303161621,-0.92519885301590
622,996194823,-0.91791886091232,-0.55757498741150,11.15811538696289,0.08718600124121,-0.13675519824028,9.78433132171631,0.20232683420181,-1.09051311016083,-0.84541052579880
623,996203156,-0.91869407892227,-0.55779063701630,11.15809535980225,0.09147055447102,-0.14376498758793,9.76175689697266,0.13544808328152,-1.11336123943329,-0.80834680795670
624,996211489,-0.91892641782761,-0.55715394020081,11.15842723846436,0.11895892769098,-0.14851447939873,9.79545402526855,0.20158402621746,-1.01036632061005,-0.75102221965790
625,996219822,-0.91922479867935,-0.55721205472946,11.15834999084473,0.10350879281759,-0.15113241970539,9.75675678253174,0.19348992407322,-1.09371495246887,-0.81490403413773
626,996228155,-0.91945999860764,-0.55748009681702,11.15874099731445,0.08176408708096,-0.15659689903259,9.76607036590576,0.20089244842529,-1.12071251869202,-0.76265102624893
627,996236488,-0.91978991031647,-0.55831885337830,11.15839767456055,0.11245699971914,-0.14868614077568,9.77227878570557,0.18916113674641,-1.18574690818787,-0.84825378656387
628,996244821,-0.91989415884018,-0.55797314643860,11.15805435180664,0.10279350727797,-0.16385017335415,9.79686260223389,0.21572311222553,-1.04389524459839,-0.84100502729416
629,996253154,-0.92007684707642,-0.55869233608246,11.15788841247559,0.12209902703762,-0.14129011332989,9.77853012084961,0.20624579489231,-1.17258119583130,-0.82635354995728
630,996261487,-0.92068707942963,-0.55892473459244,11.15710830688477,0.08974672108889,-0.14686216413975,9.77071189880371,0.15545278787613,-1.11476993560791,-0.88234639167786
631,996269820,-0.92089778184891,-0.55843144655228,11.15699863433838,0.11342985183001,-0.15364335477352,9.74500465393066,0.20294156670570,-1.02606773376465,-0.81705558300018
632,996278153,-0.92038494348526,-0.55817782878876,11.15650081634521,0.09385960549116,-0.15353576838970,9.77849388122559,0.29013243317604,-1.05619013309479,-0.86649107933044
633,996286486,-0.92076116800308,-0.55836403369904,11.15658760070801,0.08839488774538,-0.15799228847027,9.80109024047852,0.18455055356026,-1.10818696022034,-0.79495060443878
634,996294819,-0.92113864421844,-0.55914926528931,11.15635204315186,0.09006144851446,-0.16761972010136,9.80266380310059,0.18293684720993,-1.18210971355438,-0.82699400186539
635,996303152,-0.92149114608765,-0.55962079763412,11.15595531463623,0.07586305588484,-0.15904346108437,9.79181957244873,0.18534462153912,-1.14256131649017,-0.85511839389801
636,996311485,-0.92178577184677,-0.55918866395950,11.15552425384521,0.07855252176523,-0.15073186159134,9.75961112976074,0.19238851964474,-1.03439247608185,-0.85429871082306
637,996319818,-0.92135828733444,-0.55970233678818,11.15566349029541,0.07901745289564,-0.14782065153122,9.78448104858398,0.28173094987869,-1.14735114574432,-0.78941786289215
638,996328151,-0.92160797119141,-0.55997121334076,11.15471839904785,0.10639847069979,-0.15583150088787,9.80245018005371,0.19781874120235,-1.11850965023041,-0.90913885831833
639,996336484,-0.92149966955185,-0.55955618619919,11.15605640411377,0.10548297315836,-0.15688329935074,9.78994560241699,0.24228502810001,-1.03805530071259,-0.64456939697266
640,996344817,-0.92115646600723,-0.56029999256134,11.15630054473877,0.11671301722527,-0.16932241618633,9.77726364135742,0.27040949463844,-1.17619299888611,-0.77899301052094
641,996353150,-0.92147618532181,-0.56015872955322,11.15645503997803,0.10857300460339,-0.17535194754601,9.77565479278564,0.19090287387371,-1.07061088085175,-0.78698456287384
642,996361483,-0.92181652784348,-0.55984872579575,11.15676498413086,0.10018271952868,-0.14902947843075,9.79067516326904,0.18795724213123,-1.05029892921448,-0.77986377477646
643,996369816,-0.92218101024628,-0.55952161550522,11.15633010864258,0.08383841812611,-0.17133890092373,9.78385257720947,0.18583126366138,-1.04650795459747,-0.85737246274948
644,996378149,-0.92258256673813,-0.55935823917389,11.15670394897461,0.09399551153183,-0.15774880349636,9.75245094299316,0.18019616603851,-1.06835699081421,-0.75996160507202
645,996386482,-0.92217588424683,-0.55933278799057,11.15677738189697,0.09265793114901,-0.15535974502563,9.75735759735107,0.27786320447922,-1.08239352703094,-0.79548841714859
646,996394815,-0.92219519615173,-0.55949842929840,11.15716171264648,0.09641317278147,-0.16858536005020,9.76724243164062,0.22709578275681,-1.10831522941589,-0.74574559926987
647,996403148,-0.92253732681274,-0.55950874090195,11.15713691711426,0.08857365697622,-0.16015215218067,9.79915142059326,0.18821339309216,-1.08769571781158,-0.80824434757233
648,996411481,-0.92259633541107,-0.55901533365250,11.15802860260010,0.08654212951660,-0.15814173221588,9.78062438964844,0.22350980341434,-1.02957701683044,-0.68734520673752
649,996419814,-0.92261558771133,-0.55925661325455,11.15795326232910,0.10284357517958,-0.15189062058926,9.74715042114258,0.22532843053341,-1.11507737636566,-0.81526267528534
650,996428147,-0.92251789569855,-0.55904597043991,11.15786075592041,0.09479662775993,-0.14211983978748,9.75586223602295,0.24074821174145,-1.06190216541290,-0.81718373298645
651,996436480,-0.92278182506561,-0.55857706069946,11.15818595886230,0.08658505231142,-0.15811306238174,9.75586128234863,0.19720399379730,-1.03037095069885,-0.76551985740662
652,996444813,-0.92271441221237,-0.55817502737045,11.15799522399902,0.10352309793234,-0.16003771126270,9.79375171661377,0.23775133490562,-1.03900301456451,-0.82832598686218
653,996453146,-0.92259037494659,-0.55723518133163,11.15851783752441,0.10292239487171,-0.16664026677608,9.79277992248535,0.24405242502689,-0.97491604089737,-0.74049472808838
654,996461479,-0.92332875728607,-0.55663812160492,11.15861892700195,0.08802296966314,-0.14921599626541,9.76094913482666,0.14105759561062,-1.01577091217041,-0.77878797054291
655,996469812,-0.92308938503265,-0.55674988031387,11.15826320648193,0.10007542371750,-0.15527391433716,9.79704856872559,0.25696203112602,-1.09827435016632,-0.84968817234039
656,996478145,-0.92348682880402,-0.55603289604187,11.15742683410645,0.10122697055340,-0.15341387689114,9.78729248046875,0.18040107190609,-0.99881434440613,-0.92478919029236
657,996486478,-0.92369258403778,-0.55659788846970,11.15737152099609,0.09325161576271,-0.14140455424786,9.77880191802979,0.20353068411350,-1.15521478652954,-0.81352090835571
658,996494811,-0.92411530017853,-0.55656993389130,11.15696430206299,0.08750794082880,-0.14820006489754,9.76256465911865,0.17714804410934,-1.08267533779144,-0.83977544307709
659,996503144,-0.92438381910324,-0.55736666917801,11.15721035003662,0.08016911894083,-0.15656889975071,9.77472496032715,0.19679416716099,-1.18262183666229,-0.77712297439575
660,996511477,-0.92480003833771,-0.55699557065964,11.15797710418701,0.09614851325750,-0.15984457731247,9.78317928314209,0.18140000104904,-1.04345989227295,-0.71121770143509
661,996519810,-0.92492151260376,-0.55792623758316,11.15755748748779,0.09702116250992,-0.17399290204048,9.76311588287354,0.21234200894833,-1.19665861129761,-0.85765433311462
662,996528143,-0.92504334449768,-0.55663847923279,11.15757465362549,0.08660662174225,-0.14226289093494,9.77184200286865,0.21480096876621,-0.93370288610458,-0.80199444293976
663,996536476,-0.92536664009094,-0.55629318952560,11.15713882446289,0.07098481059074,-0.16995154321194,9.78832912445068,0.18951971828938,-1.04335737228394,-0.85785913467407
664,996544809,-0.92504763603210,-0.55613380670547,11.15745258331299,0.09944597631693,-0.15576745569706,9.78232097625732,0.26748943328857,-1.06835699081421,-0.75919306278229
665,996553142,-0.92486917972565,-0.55628013610840,11.15799331665039,0.11013232171535,-0.16822056472301,9.77134895324707,0.25050720572472,-1.10506224632263,-0.74154496192932
666,996561475,-0.92512577772141,-0.55624693632126,11.15902423858643,0.09496829658747,-0.16198328137398,9.77953147888184,0.19940681755543,-1.08477556705475,-0.67476856708527
667,996569808,-0.92598456144333,-0.55619978904724,11.15913867950439,0.08285138010979,-0.15975159406662,9.76735019683838,0.12597081065178,-1.08152270317078,-0.79205620288849
668,996578141,-0.92586898803711,-0.55713194608688,11.15974330902100,0.10496790707111,-0.13813541829586,9.77687072753906,0.24341207742691,-1.19988608360291,-0.73839437961578
669,996586474,-0.92619150876999,-0.55688130855560,11.15986919403076,0.09998959302902,-0.15013101696968,9.79732799530029,0.19026254117489,-1.05634391307831,-0.79090362787247
670,996594807,-0.92635774612427,-0.55669873952866,11.15998268127441,0.07230808585882,-0.13383685052395,9.77286529541016,0.20957566797733,-1.06635916233063,-0.78490978479385
671,996603140,-0.92670738697052,-0.55692952871323,11.16025543212891,0.09755053371191,-0.14712712168694,9.79173374176025,0.18690706789494,-1.11374533176422,-0.77374202013016
672,996611473,-0.92726671695709,-0.55676543712616,11.16070270538330,0.06589919328690,-0.15492369234562,9.81132602691650,0.16285531222820,-1.06899726390839,-0.74689829349518
673,996619806,-0.92693448066711,-0.55751878023148,11.16059112548828,0.10159890353680,-0.15825633704662,9.77613449096680,0.26846280694008,-1.17655158042908,-0.82071846723557
674,996628139,-0.92675817012787,-0.55765610933304,11.16060161590576,0.10522539913654,-0.13445170223713,9.76991844177246,0.25032791495323,-1.10380709171295,-0.80358254909515
675,996636472,-0.92695766687393,-0.55842608213425,11.16014480590820,0.10498943179846,-0.17226907610893,9.78523921966553,0.20422229170799,-1.17798590660095,-0.86272585391998
676,996644805,-0.92732048034668,-0.55897510051727,11.16015625000000,0.09900965541601,-0.15057449042797,9.80086135864258,0.18508845567703,-1.15252530574799,-0.80084186792374
677,996653138,-0.92745643854141,-0.55881905555725,11.16035079956055,0.09766491502523,-0.14943718910217,9.77289390563965,0.21221393346786,-1.06838262081146,-0.78273266553879
678,996661471,-0.92765337228775,-0.55880832672119,11.15970802307129,0.08686412125826,-0.16032382845879,9.75492572784424,0.20506754517555,-1.08480119705200,-0.88206458091736
679,996669804,-0.92824876308441,-0.55906128883362,11.15947246551514,0.10447442531586,-0.18209707736969,9.78249263763428,0.15750192105770,-1.11628115177155,-0.83536982536316
680,996678137,-0.92850112915039,-0.55884379148483,11.15991878509521,0.08853073418140,-0.16771985590458,9.80232048034668,0.19807487726212,-1.06044209003448,-0.75937235355377
681,996686470,-0.92841506004333,-0.55891096591949,11.15954875946045,0.09031894803047,-0.14101114869118,9.79181289672852,0.23882712423801,-1.09479081630707,-0.85022604465485
682,996694803,-0.92796635627747,-0.55824989080429,11.15952396392822,0.08386708050966,-0.16555970907211,9.75162124633789,0.28221762180328,-1.00619113445282,-0.80266040563583
683,996703136,-0.92866337299347,-0.55738657712936,11.15926933288574,0.10254316031933,-0.15229833126068,9.77507495880127,0.14600114524364,-0.98349696397781,-0.83303892612457
684,996711469,-0.92859530448914,-0.55828368663788,11.15874862670898,0.10528984665871,-0.14824266731739,9.80071067810059,0.23639377951622,-1.19273972511292,-0.86825853586197
685,996719802,-0.92891526222229,-0.55842226743698,11.15792465209961,0.08369541913271,-0.14865037798882,9.75835227966309,0.18898181617260,-1.10296165943146,-0.90534776449203
686,996728135,-0.92897540330887,-0.55753308534622,11.15763092041016,0.10109113156796,-0.14819259941578,9.77893066406250,0.22097399830818,-0.97832292318344,-0.83449894189835
687,996736468,-0.92865014076233,-0.55708903074265,11.15751838684082,0.09748601913452,-0.15912187099457,9.80191326141357,0.26874455809593,-1.03339338302612,-0.81923288106918
688,996744801,-0.92834973335266,-0.55745774507523,11.15705394744873,0.09883083403111,-0.14151184260845,9.78901576995850,0.26441574096680,-1.13031780719757,-0.85606616735458
689,996753134,-0.92910838127136,-0.55801790952682,11.15710067749023,0.08512593805790,-0.14520956575871,9.78192138671875,0.13770213723183,-1.15483057498932,-0.80120044946671
690,996761467,-0.92915034294128,-0.55854165554047,11.15765666961670,0.09868062287569,-0.15902200341225,9.77370166778564,0.22409893572330,-1.14934909343719,-0.73544865846634
691,996769800,-0.92910146713257,-0.55872076749802,11.15757274627686,0.08706440776587,-0.16146828234196,9.78082561492920,0.23454955220222,-1.10877609252930,-0.81597989797592
