sep=,
DeviceTag:,Xsens DOT
FirmwareVersion:,3.0.0
AppVersion:,2023.6.0
StartTime: ,2025-03-06_12:24:10_000 PST
© Movella Technologies B. V. 2005-2025

PacketCounter,SampleTimeFine,Euler_X,Euler_Y,Euler_Z,Acc_X,Acc_Y,Acc_Z,Gyr_X,Gyr_Y,Gyr_Z
0,874374696,-0.90320289134979,-0.53976094722748,10.92393493652344,0.00000000000000,0.00000000000000,0.00000000000000,0.00000000000000,0.00000000000000,0.00000000000000
1,874383029,-0.90384322404861,-0.53989404439926,10.92413425445557,0.07860258966684,-0.15549565851688,9.77722835540771,0.15702806413174,-1.10197556018829,-0.80254513025284
2,874391362,-0.90408802032471,-0.53844439983368,10.92416191101074,0.08496861904860,-0.14121857285500,9.79680538177490,0.20377403497696,-0.91332674026489,-0.82749342918396
3,874399695,-0.90373831987381,-0.53846341371536,10.92347717285156,0.10420261323452,-0.14785641431808,9.77822971343994,0.27534022927284,-1.08696556091309,-0.91834712028503
4,874408028,-0.90339922904968,-0.53900939226151,10.92348194122314,0.09541185200214,-0.17282731831074,9.78457450866699,0.27426442503929,-1.15287101268768,-0.83348721265793
5,874416361,-0.90356218814850,-0.53853893280029,10.92240905761719,0.10493935644627,-0.15548850595951,9.80062484741211,0.21222673356533,-1.02661848068237,-0.96268540620804
6,874424694,-0.90331077575684,-0.53794032335281,10.92231082916260,0.09592669457197,-0.15270575881004,9.77331638336182,0.26414680480957,-1.01522028446198,-0.84409153461456
7,874433027,-0.90348333120346,-0.53783351182938,10.92237281799316,0.10672757029533,-0.15819942951202,9.77765750885010,0.21271340548992,-1.07282662391663,-0.82098746299744
8,874441360,-0.90181541442871,-0.53889447450638,10.92314815521240,0.10508241504431,-0.16445817053318,9.76943111419678,0.43409723043442,-1.21580529212952,-0.74314576387405
9,874449693,-0.90140324831009,-0.53864181041718,10.92226505279541,0.08412458747625,-0.16990862786770,9.80845069885254,0.28220483660698,-1.05384647846222,-0.91404390335083
10,874458026,-0.90121358633041,-0.53905689716339,10.92222499847412,0.10784333199263,-0.14874304831028,9.77339458465576,0.25653937458992,-1.13699018955231,-0.83896869421005
11,874466359,-0.90073758363724,-0.53939205408096,10.92281341552734,0.09782236069441,-0.16404359042645,9.77411651611328,0.29142594337463,-1.12712872028351,-0.74514365196228
12,874474692,-0.90080344676971,-0.53943765163422,10.92310237884521,0.08651363849640,-0.15452286601067,9.79885101318359,0.22554616630077,-1.09365105628967,-0.79870307445526
13,874483025,-0.90111392736435,-0.53934180736542,10.92291259765625,0.08751503378153,-0.15056733787060,9.81659030914307,0.19611540436745,-1.07441484928131,-0.83727818727493
14,874491358,-0.90125566720963,-0.53956061601639,10.92243385314941,0.10719965398312,-0.14963747560978,9.78531074523926,0.21691411733627,-1.11204195022583,-0.89178514480591
15,874499691,-0.90051507949829,-0.53962266445160,10.92373752593994,0.11418091505766,-0.15570333600044,9.75805187225342,0.32305952906609,-1.09503424167633,-0.67050379514694
16,874508024,-0.90038114786148,-0.53920817375183,10.92435550689697,0.10174926370382,-0.14588965475559,9.77155590057373,0.25082740187645,-1.03860604763031,-0.75874483585358
17,874516357,-0.90042120218277,-0.53943920135498,10.92453670501709,0.10214259475470,-0.16365703940392,9.79959487915039,0.22902964055538,-1.11457777023315,-0.77467685937881
18,874524690,-0.90028095245361,-0.54004377126694,10.92464160919189,0.08294436335564,-0.14016711711884,9.79077529907227,0.25077617168427,-1.15940260887146,-0.82308781147003
19,874533023,-0.90030783414841,-0.53982782363892,10.92502784729004,0.09039762616158,-0.13249211013317,9.77038288116455,0.23089951276779,-1.06050610542297,-0.77603453397751
20,874541356,-0.90034657716751,-0.53894096612930,10.92466735839844,0.09355203062296,-0.15566731989384,9.79922294616699,0.22803072631359,-0.98076897859573,-0.87429064512253
21,874549689,-0.90081423521042,-0.53838253021240,10.92407608032227,0.10556165874004,-0.14095392823219,9.75164985656738,0.17754505574703,-1.01716685295105,-0.88586837053299
22,874558022,-0.90038776397705,-0.53814834356308,10.92379856109619,0.09214283525944,-0.16138929128647,9.77977561950684,0.28384411334991,-1.05822646617889,-0.86704182624817
23,874566355,-0.90008020401001,-0.53865313529968,10.92337703704834,0.11845832318068,-0.16098937392235,9.78809356689453,0.26983314752579,-1.14600634574890,-0.87172931432724
24,874574688,-0.90011423826218,-0.53864675760269,10.92375850677490,0.09205702692270,-0.14596062898636,9.77174949645996,0.23036161065102,-1.08696556091309,-0.78753525018692
25,874583021,-0.89966398477554,-0.53855615854263,10.92339992523193,0.10066910833120,-0.14344310760498,9.79588317871094,0.28694349527359,-1.07367181777954,-0.86570990085602
26,874591354,-0.90026664733887,-0.53904634714127,10.92337608337402,0.10395226627588,-0.16127514839172,9.76812267303467,0.16084457933903,-1.14628827571869,-0.83730369806290
27,874599687,-0.89936935901642,-0.53877681493759,10.92397212982178,0.09559774398804,-0.15820658206940,9.76646327972412,0.34229585528374,-1.05415391921997,-0.75331467390060
28,874608020,-0.89951604604721,-0.53835821151733,10.92375659942627,0.08601287007332,-0.14619666337967,9.76810932159424,0.21491622924805,-1.03627502918243,-0.85928070545197
29,874616353,-0.89951103925705,-0.53833049535751,10.92407131195068,0.10655590146780,-0.16583150625229,9.77503204345703,0.23492096364498,-1.08320057392120,-0.78195136785507
30,874624686,-0.89912194013596,-0.53817915916443,10.92466354370117,0.07726500928402,-0.15355007350445,9.77504634857178,0.28030934929848,-1.07039320468903,-0.76197218894958
31,874633019,-0.89898651838303,-0.53873360157013,10.92514419555664,0.09594815969467,-0.16974383592606,9.74401092529297,0.25008457899094,-1.15333211421967,-0.76686453819275
32,874641352,-0.89905864000320,-0.53838932514191,10.92494010925293,0.09095548093319,-0.15889294445515,9.79057598114014,0.22580227255821,-1.04511201381683,-0.85774374008179
33,874649685,-0.89905643463135,-0.53868639469147,10.92508316040039,0.10343733429909,-0.15691222250462,9.80623340606689,0.23264129459858,-1.12141680717468,-0.80889755487442
34,874658018,-0.89898586273193,-0.53948426246643,10.92467403411865,0.09681373089552,-0.16657540202141,9.78801441192627,0.24227225780487,-1.18209707736969,-0.88381922245026
35,874666351,-0.89906889200211,-0.53964996337891,10.92501068115234,0.10038293153048,-0.16132494807243,9.77270126342773,0.22429105639458,-1.10617637634277,-0.76978468894958
36,874674684,-0.89934885501862,-0.53984749317169,10.92534351348877,0.09468217939138,-0.14829988777637,9.76533985137939,0.19962450861931,-1.11178588867188,-0.79368269443512
37,874683017,-0.89966988563538,-0.54015028476715,10.92485713958740,0.08099879324436,-0.16964398324490,9.77234268188477,0.19462975859642,-1.12121200561523,-0.86893737316132
38,874691350,-0.89958000183105,-0.54025948047638,10.92435646057129,0.09257209300995,-0.15396495163441,9.77078342437744,0.24334803223610,-1.09943974018097,-0.89380872249603
39,874699683,-0.89909076690674,-0.54013043642044,10.92436790466309,0.07832354307175,-0.16477975249290,9.77450370788574,0.29262980818748,-1.06972730159760,-0.83743172883987
40,874708016,-0.89918386936188,-0.53972941637039,10.92427921295166,0.08634196966887,-0.14993074536324,9.79476737976074,0.22342018783092,-1.03881096839905,-0.84316945075989
41,874716349,-0.89850586652756,-0.53957402706146,10.92445278167725,0.06833110749722,-0.12817178666592,9.77450275421143,0.31435069441795,-1.06721711158752,-0.79501456022263
42,874724682,-0.89865630865097,-0.53911280632019,10.92475318908691,0.11299346387386,-0.15851415693760,9.77334403991699,0.21512117981911,-1.03220248222351,-0.79755049943924
43,874733015,-0.89896786212921,-0.53870862722397,10.92474460601807,0.10069057345390,-0.14432291686535,9.77086257934570,0.19662769138813,-1.03770959377289,-0.82997810840607
44,874741348,-0.89919465780258,-0.53895163536072,10.92372703552246,0.09412425756454,-0.15715511143208,9.78540420532227,0.20543898642063,-1.11401426792145,-0.95625627040863
45,874749681,-0.89856880903244,-0.53889083862305,10.92383098602295,0.08046232908964,-0.15904346108437,9.79316425323486,0.30828011035919,-1.07876908779144,-0.79788333177567
46,874758014,-0.89794981479645,-0.53758084774017,10.92366123199463,0.09015443176031,-0.15104658901691,9.80354309082031,0.30902293324471,-0.92948931455612,-0.85080242156982
47,874766347,-0.89781302213669,-0.53715544939041,10.92351055145264,0.09569081664085,-0.16777023673058,9.77885150909424,0.24908557534218,-1.03486633300781,-0.84519284963608
48,874774680,-0.89829957485199,-0.53726685047150,10.92298698425293,0.08940338343382,-0.16631790995598,9.79578971862793,0.17347238957882,-1.09902989864349,-0.89759957790375
49,874783013,-0.89893698692322,-0.53804939985275,10.92313194274902,0.11758558452129,-0.16234807670116,9.78478145599365,0.15730983018875,-1.18030393123627,-0.79281181097031
50,874791346,-0.89941906929016,-0.53791612386703,10.92293357849121,0.08955359458923,-0.15385049581528,9.76109886169434,0.17580328881741,-1.07075178623199,-0.85728275775909
51,874799679,-0.89848095178604,-0.53857612609863,10.92293167114258,0.10192801058292,-0.14843580126762,9.77561855316162,0.34688076376915,-1.16455101966858,-0.80013740062714
52,874808012,-0.89796656370163,-0.53872901201248,10.92299842834473,0.09756477922201,-0.16388593614101,9.76872348785400,0.29467892646790,-1.10633003711700,-0.82493197917938
53,874816345,-0.89762645959854,-0.53855389356613,10.92205715179443,0.11355853825808,-0.16202619671822,9.75860214233398,0.27393144369125,-1.06276011466980,-0.93176895380020
54,874824678,-0.89675122499466,-0.53863924741745,10.92145156860352,0.11445263773203,-0.14520271122456,9.76199245452881,0.33673754334450,-1.09554636478424,-0.90751230716705
55,874833011,-0.89734601974487,-0.53932023048401,10.92178249359131,0.10526838898659,-0.16175438463688,9.78902339935303,0.16381582617760,-1.16818833351135,-0.78704857826233
56,874841344,-0.89776223897934,-0.53885281085968,10.92128276824951,0.07577006518841,-0.16005916893482,9.76237201690674,0.18246299028397,-1.03069114685059,-0.89175951480865
57,874849677,-0.89732497930527,-0.53847050666809,10.92180919647217,0.08549086004496,-0.17467269301414,9.76866626739502,0.28637993335724,-1.04045021533966,-0.75672131776810
58,874858010,-0.89725965261459,-0.53849571943283,10.92283916473389,0.09106284379959,-0.14111843705177,9.76327323913574,0.24293820559978,-1.09160184860229,-0.71053880453110
59,874866343,-0.89743340015411,-0.53784573078156,10.92326545715332,0.09480378031731,-0.14286373555660,9.75014781951904,0.21312323212624,-1.00868856906891,-0.79801148176193
60,874874676,-0.89722347259521,-0.53825324773788,10.92293643951416,0.09422440081835,-0.15951554477215,9.79419517517090,0.25735905766487,-1.13478744029999,-0.87485420703888
61,874883009,-0.89651089906693,-0.53779578208923,10.92278099060059,0.10438143461943,-0.15561725199223,9.75513267517090,0.31962725520134,-1.03038394451141,-0.83259075880051
62,874891342,-0.89638698101044,-0.53787899017334,10.92309284210205,0.11234247684479,-0.16347794234753,9.79460334777832,0.24821473658085,-1.09805655479431,-0.79632091522217
63,874899675,-0.89578282833099,-0.53836148977280,10.92304515838623,0.10041876137257,-0.14820690453053,9.77719974517822,0.30656394362450,-1.14275336265564,-0.84473180770874
64,874908008,-0.89535838365555,-0.53852462768555,10.92267608642578,0.10256452858448,-0.14297786355019,9.77394580841064,0.28394660353661,-1.10656058788300,-0.87749242782593
65,874916341,-0.89602881669998,-0.53871023654938,10.92266941070557,0.10246442258358,-0.16058818995953,9.77194309234619,0.15333960950375,-1.10822546482086,-0.80469679832458
66,874924674,-0.89587283134460,-0.53854143619537,10.92310428619385,0.10190662741661,-0.15826408565044,9.78504657745361,0.25303021073341,-1.06696093082428,-0.78164404630661
67,874933007,-0.89638376235962,-0.53891652822495,10.92357158660889,0.09141333401203,-0.15143999457359,9.77716350555420,0.17298573255539,-1.13181626796722,-0.78384679555893
68,874941340,-0.89565241336823,-0.53828895092010,10.92320728302002,0.09222149848938,-0.15493744611740,9.77148532867432,0.31985774636269,-1.01160860061646,-0.87562257051468
69,874949673,-0.89546620845795,-0.53807872533798,10.92323493957520,0.10625556111336,-0.14772081375122,9.79061794281006,0.25636005401611,-1.06004500389099,-0.82603335380554
70,874958006,-0.89539361000061,-0.53810524940491,10.92311286926270,0.09193556010723,-0.16402214765549,9.78326511383057,0.24160626530647,-1.09003937244415,-0.84831792116165
71,874966339,-0.89604336023331,-0.53769344091415,10.92322158813477,0.07812339812517,-0.16629673540592,9.75942516326904,0.15579858422279,-1.03612136840820,-0.80771923065186
72,874974672,-0.89574241638184,-0.53709107637405,10.92279815673828,0.10240734368563,-0.14397989213467,9.81303501129150,0.26878300309181,-1.01427245140076,-0.88279461860657
73,874983005,-0.89593482017517,-0.53728395700455,10.92277717590332,0.10350885987282,-0.15307115018368,9.81347179412842,0.21104845404625,-1.10891711711884,-0.80810344219208
74,874991338,-0.89592283964157,-0.53803634643555,10.92283439636230,0.10171342641115,-0.16068147122860,9.74643516540527,0.23533077538013,-1.17733263969421,-0.82813388109207
75,874999671,-0.89546066522598,-0.53788954019547,10.92317771911621,0.12268564105034,-0.13960947096348,9.79021739959717,0.28953051567078,-1.06885647773743,-0.77183371782303
76,875008004,-0.89532595872879,-0.53702265024185,10.92414188385010,0.09938875585794,-0.15912213921547,9.80467319488525,0.25131410360336,-0.98461127281189,-0.71643012762070
77,875016337,-0.89578527212143,-0.53675585985184,10.92383861541748,0.10063328593969,-0.15196184813976,9.78361606597900,0.17739139497280,-1.05353903770447,-0.86619657278061
78,875024670,-0.89557719230652,-0.53633606433868,10.92391586303711,0.09652769565582,-0.14345055818558,9.77421665191650,0.25807622075081,-1.03704357147217,-0.82360011339188
79,875033003,-0.89536845684052,-0.53590458631516,10.92386627197266,0.11094782501459,-0.16610361635685,9.75980377197266,0.25894710421562,-1.03248417377472,-0.86022847890854
80,875041336,-0.89536607265472,-0.53596144914627,10.92415428161621,0.09238611906767,-0.14578209817410,9.77787876129150,0.23333284258842,-1.09482920169830,-0.79872864484787
81,875049669,-0.89473307132721,-0.53524410724640,10.92442226409912,0.09622719883919,-0.15556718409061,9.78189945220947,0.31025236845016,-0.99985152482986,-0.80802661180496
82,875058002,-0.89424979686737,-0.53494822978973,10.92381572723389,0.07602756470442,-0.15588191151619,9.77135562896729,0.29073441028595,-1.04990184307098,-0.90641105175018
83,875066335,-0.89414143562317,-0.53505688905716,10.92329692840576,0.09020442515612,-0.16513735055923,9.79310131072998,0.24567891657352,-1.09746742248535,-0.90620601177216
84,875074668,-0.89356201887131,-0.53501725196838,10.92332267761230,0.10497512668371,-0.16606755554676,9.76833724975586,0.30341342091560,-1.08250880241394,-0.83023416996002
85,875083001,-0.89374715089798,-0.53540742397308,10.92330646514893,0.09366654604673,-0.16955845057964,9.79473114013672,0.21140708029270,-1.13250768184662,-0.80707895755768
86,875091334,-0.89396655559540,-0.53599900007248,10.92343330383301,0.11225672066212,-0.15068894624710,9.78938102722168,0.20718072354794,-1.15878796577454,-0.81870776414871
87,875099667,-0.89417868852615,-0.53582292795181,10.92246723175049,0.09559766948223,-0.13609680533409,9.80149078369141,0.20654037594795,-1.06227350234985,-0.92948931455612
88,875108000,-0.89414566755295,-0.53591036796570,10.92243766784668,0.10077640414238,-0.15023116767406,9.76732826232910,0.23755924403667,-1.09795415401459,-0.83666348457336
89,875116333,-0.89421766996384,-0.53527510166168,10.92160320281982,0.09985368698835,-0.14379359781742,9.77488231658936,0.22508506476879,-1.00774085521698,-0.89286082983017
90,875124666,-0.89410817623138,-0.53648412227631,10.92142009735107,0.07987587898970,-0.15822839736938,9.77481746673584,0.24480804800987,-1.23232638835907,-0.85787194967270
91,875132999,-0.89403659105301,-0.53662997484207,10.92242240905762,0.10745000839233,-0.16286307573318,9.77847957611084,0.24437259137630,-1.10402476787567,-0.70838725566864
92,875141332,-0.89388287067413,-0.53644752502441,10.92341041564941,0.08467535674572,-0.15370744466782,9.77441692352295,0.25282531976700,-1.06762695312500,-0.71363824605942
93,875149665,-0.89329749345779,-0.53613406419754,10.92317008972168,0.09775790572166,-0.14352180063725,9.76677036285400,0.30400258302689,-1.04670000076294,-0.87513589859009
94,875157998,-0.89400976896286,-0.53598320484161,10.92272090911865,0.10144872218370,-0.15145397186279,9.77024078369141,0.14696167409420,-1.06883072853088,-0.88617563247681
95,875166331,-0.89305186271667,-0.53602689504623,10.92215061187744,0.09197840839624,-0.14752022922039,9.76582622528076,0.34787970781326,-1.08870744705200,-0.88620138168335
96,875174664,-0.89344292879105,-0.53602397441864,10.92237854003906,0.11041128635406,-0.16212633252144,9.75740051269531,0.18666373193264,-1.08806717395782,-0.80495303869247
97,875182997,-0.89357924461365,-0.53622001409531,10.92270183563232,0.10414539277554,-0.16779139637947,9.78264331817627,0.21681168675423,-1.10886573791504,-0.79347771406174
98,875191330,-0.89298385381699,-0.53643286228180,10.92275619506836,0.10481776297092,-0.14756314456463,9.78491020202637,0.30630785226822,-1.11222124099731,-0.82759594917297
99,875199663,-0.89331132173538,-0.53702622652054,10.92245864868164,0.08244366943836,-0.16457976400852,9.80124759674072,0.19352833926678,-1.15666186809540,-0.84258019924164
100,875207996,-0.89432930946350,-0.53682219982147,10.92262077331543,0.09054783731699,-0.17534479498863,9.75906753540039,0.11140912771225,-1.06283712387085,-0.81355935335159
101,875216329,-0.89489001035690,-0.53759640455246,10.92188739776611,0.11055433750153,-0.16202619671822,9.76654148101807,0.16583934426308,-1.17861330509186,-0.88543283939362
102,875224662,-0.89439678192139,-0.53853768110275,10.92200851440430,0.09701409935951,-0.16828528046608,9.76718521118164,0.29275789856911,-1.19969379901886,-0.82147407531738
103,875232995,-0.89445018768311,-0.53820079565048,10.92145538330078,0.10293656587601,-0.16487303376198,9.75152778625488,0.22713421285152,-1.04442036151886,-0.88036125898361
104,875241328,-0.89492535591125,-0.53778201341629,10.92169475555420,0.08556231111288,-0.15061742067337,9.79302120208740,0.17636682093143,-1.03681290149689,-0.80444061756134
105,875249661,-0.89491117000580,-0.53718805313110,10.92224884033203,0.08871670812368,-0.16022367775440,9.77978134155273,0.23599678277969,-1.01555323600769,-0.73848408460617
106,875257994,-0.89447200298309,-0.53628641366959,10.92296886444092,0.10819390416145,-0.15150436758995,9.79048919677734,0.28686663508415,-0.98038488626480,-0.74519497156143
107,875266327,-0.89399790763855,-0.53601533174515,10.92256927490234,0.09664206206799,-0.14548882842064,9.78038215637207,0.29014527797699,-1.05238640308380,-0.86944955587387
108,875274660,-0.89434772729874,-0.53570383787155,10.92260169982910,0.07773710042238,-0.15063172578812,9.79718494415283,0.19109500944614,-1.04992747306824,-0.82895356416702
109,875282993,-0.89479863643646,-0.53498584032059,10.92254066467285,0.08451799303293,-0.15005233883858,9.78493881225586,0.17931245267391,-0.99890387058258,-0.83451169729233
110,875291326,-0.89449816942215,-0.53545606136322,10.92240524291992,0.09031886607409,-0.14276327192783,9.75766563415527,0.26924404501915,-1.14347052574158,-0.85029011964798
111,875299659,-0.89490157365799,-0.53583765029907,10.92191696166992,0.07719353586435,-0.16039569675922,9.77660560607910,0.18430721759796,-1.13002300262451,-0.88471561670303
112,875307992,-0.89523035287857,-0.53591221570969,10.92200851440430,0.08433201909065,-0.14435152709484,9.77059745788574,0.19493712484837,-1.09664785861969,-0.82139730453491
113,875316325,-0.89586627483368,-0.53591036796570,10.92137527465820,0.09303703159094,-0.14845725893974,9.77957439422607,0.15567050874233,-1.08422493934631,-0.89718973636627
114,875324658,-0.89567625522614,-0.53623861074448,10.92127990722656,0.10288649052382,-0.14953733980656,9.77980327606201,0.25641128420830,-1.12528455257416,-0.84675538539886
115,875332991,-0.89550930261612,-0.53676462173462,10.92177104949951,0.09573365002871,-0.14655460417271,9.74732971191406,0.25369617342949,-1.15069377422333,-0.75528699159622
116,875341324,-0.89566856622696,-0.53579568862915,10.92202281951904,0.11296484619379,-0.15968722105026,9.79256343841553,0.21578714251518,-0.97121489048004,-0.80070102214813
117,875349657,-0.89593201875687,-0.53569525480270,10.92134761810303,0.08873817324638,-0.16517345607281,9.77948856353760,0.20085401833057,-1.07205820083618,-0.89880347251892
118,875357990,-0.89652842283249,-0.53531533479691,10.92133712768555,0.11931657046080,-0.15859998762608,9.77511787414551,0.16189476847649,-1.04106497764587,-0.83487033843994
119,875366323,-0.89619970321655,-0.53481996059418,10.92066574096680,0.09217859804630,-0.14513802528381,9.77410316467285,0.27224087715149,-1.02536332607269,-0.88340932130814
120,875374656,-0.89637106657028,-0.53463375568390,10.92026042938232,0.09848749637604,-0.15073901414871,9.78449535369873,0.21232917904854,-1.06424570083618,-0.88136017322540
121,875382989,-0.89618176221848,-0.53445070981979,10.91991329193115,0.11075462400913,-0.16359266638756,9.78930950164795,0.25543794035912,-1.06350290775299,-0.84941923618317
122,875391322,-0.89549994468689,-0.53472226858139,10.91960906982422,0.10213554650545,-0.13981695473194,9.79237079620361,0.31542652845383,-1.11900901794434,-0.87019234895706
123,875399655,-0.89563822746277,-0.53469896316528,10.91931533813477,0.08435347676277,-0.15609648823738,9.79815769195557,0.21652995049953,-1.08168911933899,-0.85782068967819
124,875407988,-0.89648103713989,-0.53505700826645,10.91871452331543,0.09109145402908,-0.15827095508575,9.80139732360840,0.13182365894318,-1.12871682643890,-0.90620601177216
125,875416321,-0.89596396684647,-0.53604876995087,10.91812705993652,0.09315852820873,-0.15475140511990,9.77538299560547,0.29534491896629,-1.20381772518158,-0.86709308624268
126,875424654,-0.89608347415924,-0.53626680374146,10.91849613189697,0.11564008146524,-0.16275608539581,9.81112575531006,0.21929629147053,-1.11388623714447,-0.78930264711380
127,875432987,-0.89639347791672,-0.53636676073074,10.91705703735352,0.10616249591112,-0.15870012342930,9.76459598541260,0.19439925253391,-1.09482920169830,-1.01068651676178
128,875441320,-0.89613449573517,-0.53594601154327,10.91828632354736,0.09771499037743,-0.16743375360966,9.76857280731201,0.26494085788727,-1.03934872150421,-0.68443799018860
129,875449653,-0.89614540338516,-0.53616702556610,10.91747856140137,0.10353032499552,-0.15134733915329,9.77463150024414,0.23305110633373,-1.11106860637665,-0.87367600202560
130,875457986,-0.89638686180115,-0.53683805465698,10.91742706298828,0.08323041349649,-0.14995187520981,9.78252220153809,0.20426070690155,-1.16739428043365,-0.84145319461823
131,875466319,-0.89648890495300,-0.53669875860214,10.91794776916504,0.09643456339836,-0.15451546013355,9.77692127227783,0.22211383283138,-1.07008588314056,-0.75451844930649
132,875474652,-0.89756125211716,-0.53635925054550,10.91747570037842,0.07172159105539,-0.15709820389748,9.77330112457275,0.10362237691879,-1.04506075382233,-0.88996654748917
133,875482985,-0.89719647169113,-0.53654325008392,10.91764640808105,0.08007615804672,-0.17227652668953,9.75996875762939,0.27851635217667,-1.10837912559509,-0.79665398597717
134,875491318,-0.89799827337265,-0.53635132312775,10.91788196563721,0.10659166425467,-0.16984425485134,9.80945873260498,0.13689526915550,-1.06419467926025,-0.80556774139404
135,875499651,-0.89751237630844,-0.53678160905838,10.91818428039551,0.10053312033415,-0.15275581181049,9.76725101470947,0.29329580068588,-1.13788664340973,-0.78937947750092
136,875507984,-0.89827638864517,-0.53755819797516,10.91824245452881,0.09592677652836,-0.16765548288822,9.77487468719482,0.14132654666901,-1.18025267124176,-0.82841563224792
137,875516317,-0.89835822582245,-0.53833067417145,10.91754055023193,0.09498267620802,-0.14788538217545,9.77641296386719,0.22216506302357,-1.17697405815125,-0.90305536985397
138,875524650,-0.89878916740417,-0.53787094354630,10.91749858856201,0.09589107334614,-0.15562470257282,9.80566787719727,0.18248860538006,-1.03202319145203,-0.83656090497971
139,875532983,-0.89914011955261,-0.53765970468521,10.91774177551270,0.08679974824190,-0.16334232687950,9.75858116149902,0.19176097214222,-1.06065988540649,-0.80426144599915
140,875541316,-0.89937508106232,-0.53780144453049,10.91743183135986,0.09997528791428,-0.16221933066845,9.78296470642090,0.20438879728317,-1.10366618633270,-0.87029492855072
141,875549649,-0.89893454313278,-0.53779411315918,10.91649532318115,0.10559026896954,-0.14995220303535,9.77729225158691,0.28494554758072,-1.08253455162048,-0.92744022607803
142,875557982,-0.89871448278427,-0.53744035959244,10.91674232482910,0.09564781934023,-0.16364273428917,9.77778625488281,0.26122677326202,-1.04534256458282,-0.80251961946487
143,875566315,-0.89850157499313,-0.53755217790604,10.91594314575195,0.10880198329687,-0.15387943387032,9.77448177337646,0.25776886940002,-1.09700655937195,-0.89621657133102
144,875574648,-0.89849835634232,-0.53719025850296,10.91711235046387,0.09401696920395,-0.16738367080688,9.77674865722656,0.23469042778015,-1.04657196998596,-0.69173800945282
145,875582981,-0.89782005548477,-0.53761851787567,10.91703128814697,0.09443888813257,-0.15414346754551,9.78725719451904,0.31652787327766,-1.13701581954956,-0.81760638952255
146,875591314,-0.89762210845947,-0.53716826438904,10.91676330566406,0.09197125583887,-0.15369313955307,9.80628299713135,0.25495129823685,-1.03256106376648,-0.86532574892044
147,875599647,-0.89828974008560,-0.53723025321960,10.91662979125977,0.09459634870291,-0.15622524917126,9.79083251953125,0.15390312671661,-1.09283125400543,-0.81240665912628
148,875607980,-0.89863765239716,-0.53680306673050,10.91738891601562,0.09160646051168,-0.15202651917934,9.80428695678711,0.19345149397850,-1.03737640380859,-0.74099409580231
149,875616313,-0.89933669567108,-0.53762847185135,10.91743469238281,0.09584814310074,-0.18049517273903,9.77385234832764,0.14934378862381,-1.18419730663300,-0.82421487569809
150,875624646,-0.89957785606384,-0.53759980201721,10.91743564605713,0.10574763268232,-0.15108235180378,9.75481796264648,0.20451684296131,-1.08391749858856,-0.83269315958023
151,875632979,-0.89969229698181,-0.53680926561356,10.91732025146484,0.09855902194977,-0.14851447939873,9.74570560455322,0.21985977888107,-0.98988771438599,-0.83238583803177
152,875641312,-0.89974468946457,-0.53678953647614,10.91716098785400,0.09220729768276,-0.15664011240005,9.76323032379150,0.22662194073200,-1.08517277240753,-0.85151970386505
153,875649645,-0.89906883239746,-0.53695094585419,10.91802501678467,0.11099066585302,-0.15435835719109,9.78365135192871,0.31563141942024,-1.10671424865723,-0.71181958913803
154,875657978,-0.89928781986237,-0.53687041997910,10.91808891296387,0.09211424738169,-0.16526615619659,9.77061939239502,0.20746247470379,-1.07736027240753,-0.82557237148285
155,875666311,-0.89890283346176,-0.53709703683853,10.91723632812500,0.10275059193373,-0.14073218405247,9.76604843139648,0.27838829159737,-1.11045384407043,-0.92049860954285
156,875674644,-0.89917671680450,-0.53757506608963,10.91802883148193,0.08170698583126,-0.16461580991745,9.79764938354492,0.20159681141376,-1.14590394496918,-0.73881697654724
157,875682977,-0.89884895086288,-0.53756588697433,10.91819953918457,0.08785121887922,-0.16253404319286,9.77200698852539,0.27413633465767,-1.08478832244873,-0.79757601022720
158,875691310,-0.89834994077682,-0.53696382045746,10.91842937469482,0.08360949158669,-0.15375009179115,9.78151321411133,0.29221999645233,-1.01563000679016,-0.80426138639450
159,875699643,-0.89794993400574,-0.53691238164902,10.91894817352295,0.08754364401102,-0.15941540896893,9.77392387390137,0.28279393911362,-1.07946062088013,-0.77347296476364
160,875707976,-0.89816349744797,-0.53652548789978,10.91958141326904,0.07658548653126,-0.15622524917126,9.77336597442627,0.20807722210884,-1.04257619380951,-0.75587600469589
161,875716309,-0.89831662178040,-0.53623849153519,10.91948032379150,0.08136352151632,-0.14924377202988,9.78144931793213,0.21576152741909,-1.05000436306000,-0.85479831695557
162,875724642,-0.89885705709457,-0.53670740127563,10.91901779174805,0.10000389814377,-0.16440810263157,9.77734279632568,0.16704322397709,-1.14270234107971,-0.88971042633057
163,875732975,-0.89831215143204,-0.53724861145020,10.91834259033203,0.09323731064796,-0.15792046487331,9.79878711700439,0.29905900359154,-1.14910578727722,-0.90297865867615
164,875741308,-0.89771246910095,-0.53829950094223,10.91792106628418,0.07278008013964,-0.14005945622921,9.80410957336426,0.30451479554176,-1.21201431751251,-0.88612443208694
165,875749641,-0.89772450923920,-0.53949111700058,10.91749668121338,0.11594042927027,-0.14940142631531,9.76394557952881,0.23179602622986,-1.22766470909119,-0.87785100936890
166,875757974,-0.89714986085892,-0.53917396068573,10.91709136962891,0.10861591994762,-0.15056733787060,9.74315929412842,0.30146676301956,-1.04905664920807,-0.88041257858276
167,875766307,-0.89651280641556,-0.53968298435211,10.91682624816895,0.08908856660128,-0.14938679337502,9.76845264434814,0.30920222401619,-1.14569902420044,-0.86166286468506
168,875774640,-0.89588004350662,-0.53945571184158,10.91673374176025,0.09802971035242,-0.15223395824432,9.76241493225098,0.31112328171730,-1.05950713157654,-0.84324622154236
169,875782973,-0.89627790451050,-0.53938126564026,10.91617870330811,0.10080501437187,-0.15322105586529,9.76971817016602,0.18376931548119,-1.07561838626862,-0.88205176591873
170,875791306,-0.89606899023056,-0.53864282369614,10.91663837432861,0.11425220966339,-0.15297733247280,9.76077556610107,0.25912639498711,-0.99944174289703,-0.77644425630569
171,875799639,-0.90517807006836,-0.53945076465607,10.91636657714844,0.09797964245081,-0.14041030406952,9.74874591827393,0.16352128982544,-1.13490271568298,-0.84090256690979
172,875807972,-0.90444183349609,-0.53928643465042,10.91667079925537,0.08819455653429,-0.15108950436115,9.77149868011475,0.32195812463760,-1.06824171543121,-0.79606485366821
173,875816305,-0.90490275621414,-0.53927314281464,10.91595935821533,0.09999674558640,-0.13779236376286,9.77911663055420,0.17808295786381,-1.08240640163422,-0.92554473876953
174,875824638,-0.90510571002960,-0.53862833976746,10.91580867767334,0.09486106783152,-0.16534541547298,9.74177169799805,0.20856387913227,-1.00920081138611,-0.85072559118271
175,875832971,-0.90563601255417,-0.53842431306839,10.91552543640137,0.09873069077730,-0.14594660699368,9.76480388641357,0.17098782956600,-1.06073665618896,-0.85415786504745
176,875841304,-0.90557223558426,-0.53853845596313,10.91498088836670,0.07554117590189,-0.14964462816715,9.75818729400635,0.24191364645958,-1.09964466094971,-0.89880347251892
177,875849637,-0.90577244758606,-0.53879529237747,10.91486549377441,0.10095522552729,-0.15312805771828,9.77076911926270,0.20994709432125,-1.11603784561157,-0.83364093303680
178,875857970,-0.90551799535751,-0.53928405046463,10.91566944122314,0.08565529435873,-0.15184055268764,9.79588985443115,0.26378819346428,-1.14677488803864,-0.73884260654449
179,875866303,-0.90553486347198,-0.53960084915161,10.91538619995117,0.08785121887922,-0.15441557765007,9.78649139404297,0.23218022286892,-1.12295353412628,-0.85075116157532
180,875874636,-0.90559619665146,-0.53983491659164,10.91542816162109,0.10115557909012,-0.14038915932178,9.79033946990967,0.22705736756325,-1.11503887176514,-0.82890224456787
181,875882969,-0.90557533502579,-0.53994947671890,10.91493415832520,0.10465332865715,-0.16240562498569,9.76819419860840,0.23545885086060,-1.09856879711151,-0.89076054096222
182,875891302,-0.90528565645218,-0.54039490222931,10.91490554809570,0.08242221176624,-0.16422927379608,9.74894618988037,0.27021735906601,-1.13988459110260,-0.83763676881790
183,875899635,-0.90474659204483,-0.53992396593094,10.91546726226807,0.11111933737993,-0.15298475325108,9.79456043243408,0.29923829436302,-1.03025567531586,-0.75690060853958
184,875907968,-0.90555340051651,-0.54051679372787,10.91558456420898,0.10269340872765,-0.15363624691963,9.77538967132568,0.13686965405941,-1.15865969657898,-0.82016772031784
185,875916301,-0.90556377172470,-0.54143553972244,10.91526508331299,0.09614128619432,-0.14495201408863,9.78580474853516,0.23346093297005,-1.19457101821899,-0.86015158891678
186,875924634,-0.90549367666245,-0.54122769832611,10.91511440277100,0.09232174605131,-0.16290599107742,9.78410911560059,0.24127328395844,-1.06214547157288,-0.85075116157532
187,875932967,-0.90593546628952,-0.54086011648178,10.91487216949463,0.09515421092510,-0.16596712172031,9.77310848236084,0.18069563806057,-1.04147493839264,-0.85541307926178
188,875941300,-0.90534895658493,-0.54054182767868,10.91455745697021,0.08388863503933,-0.16248428821564,9.76815795898438,0.30461728572845,-1.04808330535889,-0.87021797895432
189,875949633,-0.90499430894852,-0.53965109586716,10.91394329071045,0.08246512711048,-0.16497316956520,9.77176380157471,0.27669778466225,-0.97764396667480,-0.86504387855530
190,875957966,-0.90481555461884,-0.54002398252487,10.91468620300293,0.07051272690296,-0.14141885936260,9.76299381256104,0.25607833266258,-1.13330197334290,-0.74486190080643
191,875966299,-0.90538382530212,-0.54053485393524,10.91466331481934,0.08941774070263,-0.15722696483135,9.79262828826904,0.16663341224194,-1.14667248725891,-0.82680195569992
192,875974632,-0.90507501363754,-0.54107326269150,10.91551589965820,0.10988197475672,-0.14182657003403,9.79317855834961,0.27167737483978,-1.15284550189972,-0.73246461153030
193,875982965,-0.90531629323959,-0.54179942607880,10.91588497161865,0.09473225474358,-0.14645445346832,9.76345157623291,0.20482423901558,-1.17341375350952,-0.77267903089523
194,875991298,-0.90558779239655,-0.54201465845108,10.91657829284668,0.08721461147070,-0.16993008553982,9.76364517211914,0.20310807228088,-1.11416792869568,-0.75006163120270
195,875999631,-0.90519803762436,-0.54230958223343,10.91595649719238,0.10186372697353,-0.15210555493832,9.76704978942871,0.27956655621529,-1.11993122100830,-0.88077104091644
196,876007964,-0.90575557947159,-0.54220056533813,10.91666984558105,0.09891666471958,-0.15697629749775,9.79987430572510,0.16745305061340,-1.07572102546692,-0.74706482887268
197,876016297,-0.90571928024292,-0.54222303628922,10.91675758361816,0.09119867533445,-0.16653935611248,9.78350925445557,0.23942905664444,-1.08778548240662,-0.80536282062531
198,876024630,-0.90582311153412,-0.54228198528290,10.91578865051270,0.08272262662649,-0.14833565056324,9.76945972442627,0.22029523551464,-1.09247279167175,-0.94946843385696
199,876032963,-0.90562677383423,-0.54274690151215,10.91569137573242,0.10149884223938,-0.14118996262550,9.79253482818604,0.25884464383125,-1.14075553417206,-0.83223211765289
200,876041296,-0.90547358989716,-0.54171460866928,10.91578102111816,0.09379523247480,-0.16186884045601,9.77722835540771,0.25182631611824,-0.96347939968109,-0.82042384147644
201,876049629,-0.90573173761368,-0.54149496555328,10.91598796844482,0.11214227229357,-0.13796404004097,9.76822948455811,0.20451684296131,-1.05940473079681,-0.79099315404892
202,876057962,-0.90585041046143,-0.54159784317017,10.91565132141113,0.09659199416637,-0.16045972704887,9.79161262512207,0.21786189079285,-1.09905564785004,-0.87331736087799
203,876066295,-0.90559238195419,-0.54203242063522,10.91467666625977,0.09907402843237,-0.16431510448456,9.77226448059082,0.26419800519943,-1.13576078414917,-0.93233245611191
204,876074628,-0.90518254041672,-0.54152834415436,10.91454601287842,0.10173488408327,-0.15987318754196,9.79674148559570,0.28289642930031,-1.02618312835693,-0.84872776269913
205,876082961,-0.90549546480179,-0.54118859767914,10.91493606567383,0.12171998620033,-0.16103936731815,9.78717041015625,0.19847187399864,-1.04541933536530,-0.76071715354919
206,876091294,-0.90589833259583,-0.54121088981628,10.91489028930664,0.08709307014942,-0.16077476739883,9.77197837829590,0.18453775346279,-1.08962953090668,-0.83889192342758
207,876099627,-0.90602767467499,-0.54130333662033,10.91439056396484,0.09288689494133,-0.13876549899578,9.78461742401123,0.21837413311005,-1.09529018402100,-0.89967435598373
208,876107960,-0.90567904710770,-0.54152119159698,10.91445159912109,0.07844522595406,-0.14895080029964,9.77991771697998,0.27615988254547,-1.11316907405853,-0.82646888494492
209,876116293,-0.90618264675140,-0.54108166694641,10.91453075408936,0.10926688462496,-0.15443016588688,9.76621246337891,0.17339557409286,-1.03317570686340,-0.82170462608337
210,876124626,-0.90600305795670,-0.54184913635254,10.91447830200195,0.08693565428257,-0.15543842315674,9.78031063079834,0.25656497478485,-1.17835712432861,-0.84181183576584
211,876132959,-0.90580302476883,-0.54253017902374,10.91414070129395,0.10328697413206,-0.15136812627316,9.78207111358643,0.25692358613014,-1.16688215732574,-0.86296927928925
212,876141292,-0.90569770336151,-0.54243737459183,10.91459465026855,0.09765776246786,-0.14971615374088,9.76983261108398,0.24665230512619,-1.07610523700714,-0.77951806783676
213,876149625,-0.90526890754700,-0.54247456789017,10.91416549682617,0.09252211451530,-0.15103261172771,9.79641246795654,0.28530415892601,-1.08973193168640,-0.87106329202652
214,876157958,-0.90561962127686,-0.54223108291626,10.91450977325439,0.10977467894554,-0.15884318947792,9.77271461486816,0.19281114637852,-1.05804717540741,-0.79171037673950
215,876166291,-0.90519869327545,-0.54284936189651,10.91484546661377,0.10002527385950,-0.16552363336086,9.78394508361816,0.28494557738304,-1.16055560112000,-0.79411822557449
216,876174624,-0.90562975406647,-0.54335272312164,10.91509723663330,0.09502557665110,-0.17154695093632,9.75953960418701,0.18274477124214,-1.14795315265656,-0.80339044332504
217,876182957,-0.90562695264816,-0.54358887672424,10.91500854492188,0.09712845087051,-0.15301361680031,9.74414634704590,0.23453675210476,-1.11332261562347,-0.82165342569351
218,876191290,-0.90509492158890,-0.54367893934250,10.91458225250244,0.07993292808533,-0.16810579597950,9.77301597595215,0.29698425531387,-1.09744191169739,-0.88379359245300
219,876199623,-0.90566396713257,-0.54317194223404,10.91426467895508,0.07720057666302,-0.15322791039944,9.77107048034668,0.16622357070446,-1.02346801757812,-0.86535131931305
220,876207956,-0.90599280595779,-0.54325741529465,10.91385841369629,0.09783658385277,-0.16345676779747,9.79359436035156,0.19340029358864,-1.09700644016266,-0.88164204359055
221,876216289,-0.90549433231354,-0.54285985231400,10.91302585601807,0.08541200309992,-0.14835679531097,9.79529666900635,0.29342389106750,-1.03589093685150,-0.91611868143082
222,876224622,-0.90517586469650,-0.54270350933075,10.91322803497314,0.10235718637705,-0.17689695954323,9.77312946319580,0.27321425080299,-1.06829297542572,-0.80897444486618
223,876232955,-0.90476036071777,-0.54269659519196,10.91278076171875,0.09699255228043,-0.15745553374290,9.80422306060791,0.28258904814720,-1.08384060859680,-0.87749242782593
224,876241288,-0.90532952547073,-0.54231411218643,10.91291618347168,0.09207854419947,-0.14872905611992,9.77161312103271,0.16709446907043,-1.04126977920532,-0.81624883413315
225,876249621,-0.90536302328110,-0.54224377870560,10.91317272186279,0.09486815333366,-0.15813505649567,9.78329372406006,0.22992618381977,-1.07730913162231,-0.78922575712204
226,876257954,-0.90531748533249,-0.54283273220062,10.91371250152588,0.08190713822842,-0.16899994015694,9.74608516693115,0.24035115540028,-1.15873670578003,-0.76937484741211
227,876266287,-0.90588617324829,-0.54236990213394,10.91328334808350,0.11153428256512,-0.17676821351051,9.80973815917969,0.16473795473576,-1.02938485145569,-0.87690329551697
228,876274620,-0.90580189228058,-0.54247671365738,10.91361618041992,0.10074056684971,-0.15086747705936,9.79667758941650,0.24460314214230,-1.10020816326141,-0.79401564598083
229,876282953,-0.90678220987320,-0.54267019033432,10.91359043121338,0.08391715586185,-0.13549630343914,9.79418754577637,0.11717229336500,-1.10804617404938,-0.82828742265701
230,876291286,-0.90717625617981,-0.54317754507065,10.91371440887451,0.08074134588242,-0.14189127087593,9.77493953704834,0.18620267510414,-1.14884960651398,-0.81837475299835
231,876299619,-0.90783619880676,-0.54315739870071,10.91388797760010,0.09926715493202,-0.15271319448948,9.78395938873291,0.15536314249039,-1.08268809318542,-0.80874383449554
232,876307952,-0.90807932615280,-0.54294866323471,10.91375160217285,0.08977533131838,-0.15596774220467,9.78804302215576,0.20444001257420,-1.06222224235535,-0.84859955310822
233,876316285,-0.90821450948715,-0.54277110099792,10.91347217559814,0.09495399147272,-0.15018108487129,9.78613376617432,0.21857906877995,-1.06293952465057,-0.85346627235413
234,876324618,-0.90877473354340,-0.54293704032898,10.91298007965088,0.09957472980022,-0.15540981292725,9.76197147369385,0.16548076272011,-1.10597145557404,-0.89227187633514
235,876332951,-0.90869361162186,-0.54298347234726,10.91364192962646,0.10606228560209,-0.18404237926006,9.78490352630615,0.24565330147743,-1.09265196323395,-0.75515884160995
236,876341284,-0.90812414884567,-0.54286366701126,10.91419982910156,0.11141983419657,-0.15145429968834,9.78810787200928,0.30192780494690,-1.07367181777954,-0.76607048511505
237,876349617,-0.90805709362030,-0.54230356216431,10.91417694091797,0.08870240300894,-0.15291348099709,9.76461029052734,0.24201609194279,-1.01834511756897,-0.82003974914551
238,876357950,-0.90756905078888,-0.54214805364609,10.91449451446533,0.08422481268644,-0.15592510998249,9.78572559356689,0.29332137107849,-1.06875383853912,-0.79493772983551
239,876366283,-0.90761035680771,-0.54224312305450,10.91396903991699,0.09235035628080,-0.15554572641850,9.81390762329102,0.22792826592922,-1.09610998630524,-0.88553529977798
240,876374616,-0.90744477510452,-0.54251402616501,10.91373157501221,0.09129173308611,-0.14491659402847,9.78051853179932,0.25487446784973,-1.11885535717010,-0.86194461584091
241,876382949,-0.90724307298660,-0.54283183813095,10.91368293762207,0.09152770042419,-0.14237703382969,9.78761482238770,0.25782006978989,-1.12295365333557,-0.81834906339645
242,876391282,-0.90761601924896,-0.54376256465912,10.91333103179932,0.10054758191109,-0.15000978112221,9.77872276306152,0.18930199742317,-1.19843888282776,-0.87628859281540
243,876399615,-0.90780854225159,-0.54444634914398,10.91302871704102,0.08191435784101,-0.16309912502766,9.76657772064209,0.21089479327202,-1.16580641269684,-0.87505906820297
244,876407948,-0.90808486938477,-0.54372394084930,10.91321659088135,0.09032610058784,-0.16679714620113,9.80637645721436,0.20095649361610,-1.00141417980194,-0.80805230140686
245,876416281,-0.90784847736359,-0.54389411211014,10.91298770904541,0.09648469835520,-0.15745553374290,9.78518199920654,0.26171341538429,-1.10553598403931,-0.84729313850403
246,876424614,-0.90790152549744,-0.54407948255539,10.91284751892090,0.08084858208895,-0.13350781798363,9.78506755828857,0.22777456045151,-1.10807168483734,-0.85093051195145
247,876432947,-0.90791189670563,-0.54391354322433,10.91256999969482,0.10722819715738,-0.16046658158302,9.78350162506104,0.23364025354385,-1.06480932235718,-0.86609417200089
248,876441280,-0.90777879953384,-0.54418635368347,10.91270065307617,0.09305133670568,-0.16218356788158,9.79335784912109,0.24936738610268,-1.12008488178253,-0.81770879030228
249,876449613,-0.90806031227112,-0.54434812068939,10.91259765625000,0.10463894158602,-0.16339239478111,9.77970314025879,0.19965015351772,-1.10566401481628,-0.81484007835388
250,876457946,-0.90808516740799,-0.54420799016953,10.91241073608398,0.09079811722040,-0.14091785252094,9.78082656860352,0.23077146708965,-1.06972730159760,-0.85574591159821
251,876466279,-0.90783983469009,-0.54440283775330,10.91222667694092,0.09717852622271,-0.14299248158932,9.79002475738525,0.26494085788727,-1.10786688327789,-0.85070002079010
252,876474612,-0.90802830457687,-0.54419481754303,10.91264533996582,0.09817283600569,-0.14242054522038,9.76672744750977,0.21138149499893,-1.06314432621002,-0.78220754861832
253,876482945,-0.90792381763458,-0.54387247562408,10.91275787353516,0.10742139816284,-0.15804921090603,9.78107643127441,0.24654981493950,-1.04690492153168,-0.80766803026199
254,876491278,-0.90844982862473,-0.54402655363083,10.91230773925781,0.09536176174879,-0.17359982430935,9.78330135345459,0.17052675783634,-1.10440897941589,-0.88830167055130
255,876499611,-0.90788680315018,-0.54408615827560,10.91297912597656,0.11009655892849,-0.16716194152832,9.81696891784668,0.30187657475471,-1.09470117092133,-0.73871457576752
256,876507944,-0.90778905153275,-0.54455089569092,10.91315650939941,0.10332997143269,-0.16036674380302,9.75490379333496,0.24685721099377,-1.14201068878174,-0.81381547451019
257,876516277,-0.90772640705109,-0.54380404949188,10.91335391998291,0.07308775186539,-0.14994505047798,9.78300762176514,0.24081222712994,-0.99682921171188,-0.81517297029495
258,876524610,-0.90824300050735,-0.54358714818954,10.91347408294678,0.09553337097168,-0.15589621663094,9.76958942413330,0.17321623861790,-1.06091606616974,-0.81845158338547
259,876532943,-0.90955847501755,-0.54418855905533,10.91290760040283,0.09542610496283,-0.15746304392815,9.79437351226807,0.07513935118914,-1.15643143653870,-0.91737383604050
260,876541276,-0.90943521261215,-0.54317361116409,10.91269111633301,0.09058360010386,-0.14853593707085,9.80553913116455,0.24865017831326,-0.96422219276428,-0.85748773813248
261,876549609,-0.91010618209839,-0.54266285896301,10.91249847412109,0.10479625314474,-0.15957248210907,9.76047706604004,0.15316031873226,-1.02408277988434,-0.84552597999573
262,876557942,-0.90991944074631,-0.54196041822433,10.91216850280762,0.10352309793234,-0.14078225195408,9.77694892883301,0.25571969151497,-1.00179827213287,-0.87201088666916
263,876566275,-0.91016316413879,-0.54212182760239,10.91168498992920,0.09602691978216,-0.13229897618294,9.77464580535889,0.20472174882889,-1.10407602787018,-0.85533601045609
264,876574608,-0.90989005565643,-0.54250478744507,10.91074275970459,0.11093335598707,-0.14706926047802,9.76005458831787,0.26555559039116,-1.13171374797821,-0.94642049074173
265,876582941,-0.91007637977600,-0.54245758056641,10.91077327728271,0.09267938882113,-0.14877198636532,9.79511737823486,0.21273899078369,-1.07981932163239,-0.81115156412125
266,876591274,-0.91040658950806,-0.54233753681183,10.91111850738525,0.09594823420048,-0.17133204638958,9.78351593017578,0.19514204561710,-1.07280087471008,-0.79163348674774
267,876599607,-0.91012483835220,-0.54118710756302,10.91145038604736,0.11050442606211,-0.15144050121307,9.75075721740723,0.26750224828720,-0.94813644886017,-0.78704857826233
268,876607940,-0.90946704149246,-0.54031485319138,10.91144084930420,0.08579844981432,-0.15160478651524,9.78041839599609,0.31309556961060,-0.98233157396317,-0.83218091726303
269,876616273,-0.90925216674805,-0.54021310806274,10.91162776947021,0.10206384211779,-0.16633193194866,9.77699947357178,0.26027905941010,-1.07351827621460,-0.79299116134644
270,876624606,-0.90921920537949,-0.54031205177307,10.91239643096924,0.08793698251247,-0.16804862022400,9.78692054748535,0.23840446770191,-1.10008025169373,-0.74191635847092
271,876632939,-0.90915638208389,-0.54025787115097,10.91206169128418,0.09525448083878,-0.15201967954636,9.80398654937744,0.24209293723106,-1.07971680164337,-0.82926082611084
272,876641272,-0.90864741802216,-0.54076671600342,10.91214847564697,0.08786552399397,-0.15858568251133,9.78504657745361,0.29516562819481,-1.14818370342255,-0.82349765300751
273,876649605,-0.90820354223251,-0.54059147834778,10.91252517700195,0.11139829456806,-0.15759831666946,9.78051948547363,0.28730207681656,-1.06439948081970,-0.78131097555161
274,876657938,-0.90805542469025,-0.54085707664490,10.91206741333008,0.10237156599760,-0.14867217838764,9.79195594787598,0.25246664881706,-1.11818933486938,-0.88791739940643
275,876666271,-0.90863883495331,-0.54051446914673,10.91129207611084,0.10783626139164,-0.16400037705898,9.79604053497314,0.16284249722958,-1.04290902614594,-0.92364925146103
276,876674604,-0.90870416164398,-0.54016470909119,10.91075897216797,0.08935331553221,-0.16897161304951,9.77355194091797,0.22585351765156,-1.04390811920166,-0.89665186405182
277,876682937,-0.90848487615585,-0.54059654474258,10.91022491455078,0.08301589637995,-0.16068862378597,9.78851509094238,0.25956189632416,-1.13632440567017,-0.89222073554993
278,876691270,-0.90777975320816,-0.54061126708984,10.91016197204590,0.09243609756231,-0.15701889991760,9.77246475219727,0.31857702136040,-1.08819520473480,-0.84158128499985
279,876699603,-0.90824657678604,-0.54100519418716,10.91050338745117,0.07813045382500,-0.17466498911381,9.78676319122314,0.17757068574429,-1.13389086723328,-0.77465128898621
280,876707936,-0.90807193517685,-0.53993213176727,10.91016292572021,0.09809409081936,-0.16160418093204,9.77924537658691,0.25597584247589,-0.95689660310745,-0.87239521741867
281,876716269,-0.90789115428925,-0.53998774290085,10.90991115570068,0.08011884242296,-0.15838474035263,9.77566814422607,0.25387549400330,-1.09190928936005,-0.87487977743149
282,876724602,-0.90837085247040,-0.54009002447128,10.90977287292480,0.08045517653227,-0.14935851097107,9.77892303466797,0.17739139497280,-1.09828722476959,-0.85064870119095
283,876732935,-0.90840297937393,-0.54043078422546,10.91015338897705,0.09637746959925,-0.14674802124500,9.81202697753906,0.23000301420689,-1.12771797180176,-0.78702300786972
284,876741268,-0.90856587886810,-0.54054069519043,10.91032981872559,0.09497551620007,-0.13666251301765,9.78914451599121,0.21517236530781,-1.10020816326141,-0.81230419874191
285,876749601,-0.90834087133408,-0.54024803638458,10.91028690338135,0.09342328459024,-0.16779854893684,9.79434490203857,0.26050955057144,-1.05087518692017,-0.81845164299011
286,876757934,-0.90760922431946,-0.53992658853531,10.91035175323486,0.09441037476063,-0.15427251160145,9.76335144042969,0.32277774810791,-1.04836499691010,-0.82439410686493
287,876766267,-0.90765380859375,-0.53991949558258,10.91095256805420,0.09715712815523,-0.15345022082329,9.77007579803467,0.22882476449013,-1.08532631397247,-0.76202344894409
288,876774600,-0.90851229429245,-0.53972166776657,10.91145706176758,0.10883765667677,-0.16432940959930,9.78623390197754,0.13210542500019,-1.06416904926300,-0.77198743820190
289,876782933,-0.90898388624191,-0.53928220272064,10.91060447692871,0.10282211750746,-0.16073869168758,9.76300144195557,0.17564961314201,-1.03069126605988,-0.93673825263977
290,876791266,-0.90870875120163,-0.53877693414688,10.91025638580322,0.08179275691509,-0.15141853690147,9.74375247955322,0.26786082983017,-1.02536332607269,-0.87429064512253
291,876799599,-0.90910130739212,-0.53863579034805,10.91020870208740,0.09831582754850,-0.14988783001900,9.76084136962891,0.18686862289906,-1.06844639778137,-0.82564920186996
292,876807932,-0.90861433744431,-0.53939574956894,10.91053104400635,0.09536170214415,-0.12889422476292,9.79047489166260,0.29255294799805,-1.17907440662384,-0.79568052291870
293,876816265,-0.90886896848679,-0.53976911306381,10.91044807434082,0.10934551060200,-0.14510972797871,9.75916004180908,0.20336420834064,-1.12953639030457,-0.83568996191025
294,876824598,-0.90915846824646,-0.53967982530594,10.91030311584473,0.09350196272135,-0.16631790995598,9.76950359344482,0.19831821322441,-1.07679688930511,-0.84921437501907
295,876832931,-0.90946871042252,-0.54004073143005,10.91013336181641,0.10278628766537,-0.17145332694054,9.76834487915039,0.19790838658810,-1.12815332412720,-0.85005956888199
296,876841264,-0.90935122966766,-0.54027962684631,10.91022968292236,0.07515492290258,-0.16380725800991,9.78186321258545,0.24742069840431,-1.11608898639679,-0.82262670993805
297,876849597,-0.90946626663208,-0.54055702686310,10.91045188903809,0.09709984064102,-0.16223363578320,9.75556945800781,0.22142225503922,-1.11847126483917,-0.80479919910431
298,876857930,-0.90952527523041,-0.54024183750153,10.91100406646729,0.09515433758497,-0.15840712189674,9.76749324798584,0.22728794813156,-1.05046546459198,-0.76617300510406
299,876866263,-0.90987777709961,-0.54019254446030,10.91080665588379,0.12242084741592,-0.15841372311115,9.75872421264648,0.19178657233715,-1.07943499088287,-0.81028074026108
300,876874596,-0.90970492362976,-0.54057252407074,10.91092300415039,0.08979678899050,-0.15444418787956,9.75640583038330,0.25443899631500,-1.13296890258789,-0.82011663913727
301,876882929,-0.90950649976730,-0.54082250595093,10.91133308410645,0.08558383584023,-0.16141849756241,9.79527473449707,0.25871658325195,-1.11649894714355,-0.76566070318222
302,876891262,-0.90949082374573,-0.54096966981888,10.91199493408203,0.11267873644829,-0.15742692351341,9.77484607696533,0.23658588528633,-1.10556149482727,-0.75421118736267
303,876899595,-0.90990597009659,-0.54118984937668,10.91179466247559,0.09505418688059,-0.15602529048920,9.77189922332764,0.18423037230968,-1.11137592792511,-0.84765183925629
304,876907928,-0.91076475381851,-0.54099732637405,10.91119861602783,0.09850180149078,-0.15694053471088,9.73770141601562,0.13079908490181,-1.06224787235260,-0.90469473600388
305,876916261,-0.90998888015747,-0.54071587324142,10.91111087799072,0.10491074621677,-0.16845659911633,9.80770683288574,0.32623568177223,-1.05108022689819,-0.84995722770691
306,876924594,-0.90950673818588,-0.54070526361465,10.90964794158936,0.08134213089943,-0.15068179368973,9.78504657745361,0.29063192009926,-1.08345651626587,-1.00771510601044
307,876932927,-0.90983361005783,-0.54163622856140,10.90952968597412,0.09914555400610,-0.15235555171967,9.75566196441650,0.19483466446400,-1.19664573669434,-0.84291321039200
308,876941260,-0.90995132923126,-0.54176974296570,10.90894222259521,0.09215015172958,-0.15412980318069,9.79381561279297,0.21904012560844,-1.10169398784637,-0.90367031097412
309,876949593,-0.91010850667953,-0.54149097204208,10.90812873840332,0.09155645966530,-0.14597554504871,9.79478168487549,0.21450643241405,-1.05056798458099,-0.91396713256836
310,876957926,-0.91023457050323,-0.54243934154510,10.90849018096924,0.08921032398939,-0.15624703466892,9.77512550354004,0.21983413398266,-1.20105147361755,-0.79176157712936
311,876966259,-0.90950471162796,-0.54291433095932,10.90889263153076,0.08039795607328,-0.15044574439526,9.78328704833984,0.32216304540634,-1.14354753494263,-0.78154158592224
312,876974592,-0.90939027070999,-0.54252243041992,10.90951824188232,0.08682835847139,-0.14458756148815,9.79855060577393,0.24875263869762,-1.04116737842560,-0.75707989931107
313,876982925,-0.90899038314819,-0.54255026578903,10.90965843200684,0.08526188880205,-0.15493772923946,9.80218410491943,0.28169256448746,-1.08857929706573,-0.81007575988770
314,876991258,-0.90863180160522,-0.54270339012146,10.90940570831299,0.08114900439978,-0.16075299680233,9.78463840484619,0.27592936158180,-1.10476756095886,-0.86419868469238
315,876999591,-0.90829956531525,-0.54248106479645,10.91000366210938,0.09993237257004,-0.14008842408657,9.77031135559082,0.27528899908066,-1.06025004386902,-0.76053786277771
316,877007924,-0.90858060121536,-0.54301780462265,10.90973186492920,0.08787982910872,-0.16614623367786,9.79425239562988,0.19988067448139,-1.15084767341614,-0.86701631546021
317,877016257,-0.90874326229095,-0.54316788911819,10.91046333312988,0.08859511464834,-0.15147575736046,9.77320098876953,0.21635062992573,-1.10433220863342,-0.73064607381821
318,877024590,-0.90934461355209,-0.54309684038162,10.91086483001709,0.10534707456827,-0.14647591114044,9.78302955627441,0.16181793808937,-1.07925581932068,-0.78474330902100
319,877032923,-0.90992581844330,-0.54372638463974,10.91080570220947,0.10900937765837,-0.16356438398361,9.78255748748779,0.16450740396976,-1.16175913810730,-0.81232976913452
320,877041256,-0.91032081842422,-0.54300731420517,10.91040802001953,0.09755762666464,-0.15907922387123,9.78779315948486,0.18566478788853,-0.99959552288055,-0.87977206707001
321,877049589,-0.91026431322098,-0.54380589723587,10.91009998321533,0.10051175206900,-0.16523067653179,9.76739311218262,0.24104274809361,-1.18104672431946,-0.84370714426041
322,877057922,-0.90907067060471,-0.54429996013641,10.91051101684570,0.08780830353498,-0.14942288398743,9.78973865509033,0.37720802426338,-1.14715909957886,-0.78482019901276
323,877066255,-0.90849411487579,-0.54409945011139,10.91073226928711,0.08735767006874,-0.16732645034790,9.77516078948975,0.30423307418823,-1.06188929080963,-0.77764809131622
324,877074588,-0.90861111879349,-0.54377967119217,10.91012001037598,0.08574112504721,-0.16336378455162,9.78105449676514,0.21883520483971,-1.04754543304443,-0.90564244985580
325,877082921,-0.90851593017578,-0.54324227571487,10.91012668609619,0.07375296205282,-0.15580321848392,9.79569721221924,0.24614000320435,-1.02011251449585,-0.83855885267258
326,877091254,-0.90912848711014,-0.54317027330399,10.90962886810303,0.10973176360130,-0.14984489977360,9.76636314392090,0.15987123548985,-1.07764220237732,-0.89263045787811
327,877099587,-0.90928006172180,-0.54338455200195,10.90911769866943,0.08777253329754,-0.15067464113235,9.77038288116455,0.21550536155701,-1.10991597175598,-0.89844489097595
328,877107920,-0.90819799900055,-0.54326623678207,10.90927600860596,0.10094092041254,-0.15812790393829,9.79654121398926,0.36294090747833,-1.07346689701080,-0.81358498334885
329,877116253,-0.90847569704056,-0.54372894763947,10.90881061553955,0.08715739101171,-0.16010923683643,9.77564716339111,0.20167367160320,-1.14001274108887,-0.88430583477020
330,877124586,-0.90835368633270,-0.54343992471695,10.90888023376465,0.10021848231554,-0.15982311964035,9.80787849426270,0.24834282696247,-1.05225837230682,-0.82465028762817
331,877132919,-0.90853649377823,-0.54224181175232,10.90888214111328,0.10645575821400,-0.14994505047798,9.77001857757568,0.21148395538330,-0.94155365228653,-0.82826191186905
332,877141252,-0.90890365839005,-0.54264783859253,10.90892887115479,0.09147776663303,-0.16087491810322,9.78224945068359,0.18994234502316,-1.13570952415466,-0.82815945148468
333,877149585,-0.90903407335281,-0.54251343011856,10.90871715545654,0.08254380524158,-0.16719055175781,9.77714252471924,0.21801555156708,-1.06890761852264,-0.85710358619690
334,877157918,-0.90878206491470,-0.54212468862534,10.90904140472412,0.08997569233179,-0.17392165958881,9.77139854431152,0.26412117481232,-1.04078328609467,-0.79391324520111
335,877166251,-0.90847504138947,-0.54109317064285,10.90882492065430,0.08649217337370,-0.17167538404465,9.77274322509766,0.27129313349724,-0.96155822277069,-0.82605898380280
336,877174584,-0.90895456075668,-0.54124730825424,10.90875053405762,0.08847351372242,-0.15493772923946,9.78718471527100,0.17634120583534,-1.10507488250732,-0.84281075000763
337,877182917,-0.90991181135178,-0.54180318117142,10.90915393829346,0.07140683382750,-0.15196214616299,9.77165603637695,0.12034846842289,-1.15258920192719,-0.78540921211243
338,877191250,-0.91015428304672,-0.54152154922485,10.90816783905029,0.09893812239170,-0.15769158303738,9.78096199035645,0.20354352891445,-1.05156672000885,-0.95067238807678
339,877199583,-0.90984237194061,-0.54122656583786,10.90803337097168,0.07808051258326,-0.15337871015072,9.79451656341553,0.27216404676437,-1.04951763153076,-0.82449650764465
340,877207916,-0.90993136167526,-0.54158598184586,10.90803718566895,0.11100497096777,-0.16247682273388,9.79697704315186,0.22321526706219,-1.12992072105408,-0.83335912227631
341,877216249,-0.90936213731766,-0.54206877946854,10.90799236297607,0.09309425204992,-0.14427284896374,9.77478218078613,0.30220952630043,-1.14306080341339,-0.83896863460541
342,877224582,-0.90967649221420,-0.54209792613983,10.90800666809082,0.08930324763060,-0.16352114081383,9.76942443847656,0.19657643139362,-1.09108948707581,-0.83020853996277
343,877232915,-0.90974467992783,-0.54204618930817,10.90793514251709,0.08131344616413,-0.14352148771286,9.76169300079346,0.22564858198166,-1.07871782779694,-0.83674025535583
344,877241248,-0.90878134965897,-0.54198557138443,10.90838432312012,0.09412425756454,-0.15696199238300,9.78722763061523,0.35090222954750,-1.08038294315338,-0.77908259630203
345,877249581,-0.90867739915848,-0.54195296764374,10.90863418579102,0.10438136011362,-0.15149693191051,9.78776454925537,0.24562768638134,-1.08186841011047,-0.80364656448364
346,877257914,-0.90920799970627,-0.54137969017029,10.90915584564209,0.09905972331762,-0.16392885148525,9.79227733612061,0.17121835052967,-1.01919043064117,-0.76924669742584
347,877266247,-0.90876275300980,-0.54197168350220,10.90920066833496,0.09757193177938,-0.16790583729744,9.79209136962891,0.28773748874664,-1.15630328655243,-0.83814895153046
348,877274580,-0.90942937135696,-0.54174524545670,10.90888500213623,0.10579054802656,-0.13269954919815,9.79584693908691,0.15313470363617,-1.05899488925934,-0.87149870395660
349,877282913,-0.90963852405548,-0.54213643074036,10.90902996063232,0.09018310904503,-0.17989431321621,9.78035354614258,0.20953722298145,-1.13286626338959,-0.81028068065643
350,877291246,-0.90941822528839,-0.54172027111053,10.90890407562256,0.10272197425365,-0.16601033508778,9.76497554779053,0.25940814614296,-1.03668487071991,-0.84818989038467
351,877299579,-0.90976148843765,-0.54163879156113,10.90892410278320,0.07740096747875,-0.15410114824772,9.74957561492920,0.19355393946171,-1.07572102546692,-0.82126915454865
352,877307912,-0.90907824039459,-0.54162734746933,10.90827465057373,0.08085573464632,-0.15006664395332,9.77843666076660,0.31468367576599,-1.08407115936279,-0.91135436296463
353,877316245,-0.90895795822144,-0.54240614175797,10.90790843963623,0.09819430857897,-0.13450956344604,9.79596900939941,0.24841961264610,-1.17835712432861,-0.87129378318787
354,877324578,-0.90975135564804,-0.54251205921173,10.90758419036865,0.10110543668270,-0.15787039697170,9.77609062194824,0.13881634175777,-1.09910690784454,-0.87183165550232
355,877332911,-0.90998971462250,-0.54174214601517,10.90717697143555,0.10765744000673,-0.17201872169971,9.77192115783691,0.20549020171165,-0.99234664440155,-0.87147307395935
356,877341244,-0.90945720672607,-0.54169052839279,10.90677452087402,0.08928893506527,-0.16558831930161,9.76745033264160,0.29636949300766,-1.07946062088013,-0.88261526823044
357,877349577,-0.90924972295761,-0.54187738895416,10.90624237060547,0.11214942485094,-0.14066065847874,9.77036857604980,0.25904953479767,-1.10707283020020,-0.89278411865234
358,877357910,-0.90936434268951,-0.54161387681961,10.90526390075684,0.09815854579210,-0.16058881580830,9.76057624816895,0.21921941637993,-1.05307793617249,-0.95046734809875
359,877366243,-0.90877139568329,-0.54211914539337,10.90477561950684,0.10820095986128,-0.15704032778740,9.76770877838135,0.30597484111786,-1.14493060112000,-0.88451075553894
360,877374576,-0.90840214490891,-0.54261481761932,10.90468311309814,0.08755088597536,-0.14904411137104,9.73268699645996,0.27664652466774,-1.14649307727814,-0.84498792886734
361,877382909,-0.90801680088043,-0.54220914840698,10.90397834777832,0.08491855114698,-0.15731246769428,9.78494644165039,0.27977144718170,-1.03594207763672,-0.90044271945953
362,877391242,-0.90759915113449,-0.54224741458893,10.90316772460938,0.08628474175930,-0.14959456026554,9.80154037475586,0.28435644507408,-1.08937346935272,-0.93115437030792
363,877399575,-0.90824890136719,-0.54255449771881,10.90383434295654,0.07851675897837,-0.17954351007938,9.77663421630859,0.15561927855015,-1.12341463565826,-0.76522529125214
364,877407908,-0.90898144245148,-0.54288780689240,10.90396308898926,0.10362323373556,-0.15612509846687,9.77466011047363,0.14742273092270,-1.12669336795807,-0.81855410337448
365,877416241,-0.90841037034988,-0.54202830791473,10.90370941162109,0.08675683289766,-0.15892902016640,9.77746391296387,0.30192780494690,-0.98163992166519,-0.86635023355484
366,877424574,-0.90798521041870,-0.54245388507843,10.90354728698730,0.09260785579681,-0.15211236476898,9.77771472930908,0.28494554758072,-1.13819408416748,-0.85295397043228
367,877432907,-0.90870386362076,-0.54251945018768,10.90291118621826,0.08526904135942,-0.16362127661705,9.79764938354492,0.14614200592041,-1.09201157093048,-0.90989434719086
368,877441240,-0.90849447250366,-0.54224079847336,10.90305328369141,0.09193556755781,-0.15655456483364,9.77526092529297,0.26058638095856,-1.05379509925842,-0.81550592184067
369,877449573,-0.90941917896271,-0.54213243722916,10.90283489227295,0.09850890934467,-0.17445753514767,9.78879451751709,0.12193656712770,-1.07177639007568,-0.87462371587753
370,877457906,-0.91019785404205,-0.54217332601547,10.90333271026611,0.11196345090866,-0.16111779212952,9.76569080352783,0.14055810868740,-1.09208858013153,-0.77472817897797
371,877466239,-0.91017544269562,-0.54215288162231,10.90316867828369,0.09238611906767,-0.14882205426693,9.79214191436768,0.23781536519527,-1.08202230930328,-0.86222642660141
372,877474572,-0.91002547740936,-0.54222351312637,10.90261459350586,0.08899567276239,-0.15010240674019,9.80070400238037,0.25110909342766,-1.09444499015808,-0.89931565523148
373,877482905,-0.90950947999954,-0.54187393188477,10.90148067474365,0.10664173215628,-0.15302792191505,9.76122760772705,0.29508876800537,-1.04183340072632,-0.92034506797791
374,877491238,-0.91000598669052,-0.54152917861938,10.90195369720459,0.09286531060934,-0.15357841551304,9.77529048919678,0.17429204285145,-1.04685366153717,-0.77559900283813
375,877499571,-0.91027289628983,-0.54091250896454,10.90179252624512,0.09887381643057,-0.15690504014492,9.78659152984619,0.20254456996918,-1.01078891754150,-0.83584368228912
376,877507904,-0.91029018163681,-0.54129302501678,10.90206336975098,0.09247910976410,-0.14430861175060,9.77342987060547,0.23215460777283,-1.13340425491333,-0.80062419176102
377,877516237,-0.91060626506805,-0.54184412956238,10.90224075317383,0.10410247743130,-0.14463049173355,9.77397346496582,0.19647398591042,-1.15194892883301,-0.78853422403336
378,877524570,-0.91060465574265,-0.54137957096100,10.90232658386230,0.11104796081781,-0.15219132602215,9.75986862182617,0.23499777913094,-1.03169012069702,-0.82114106416702
379,877532903,-0.90999078750610,-0.54099386930466,10.90196418762207,0.08326624333858,-0.15332834422588,9.75328063964844,0.30687132477760,-1.03829860687256,-0.86660635471344
380,877541236,-0.90980809926987,-0.54091662168503,10.90127658843994,0.09458910673857,-0.14578177034855,9.75989055633545,0.25536113977432,-1.07648944854736,-0.91517096757889
381,877549569,-0.91019392013550,-0.54115122556686,10.90104293823242,0.09755768626928,-0.13980978727341,9.75277233123779,0.18758584558964,-1.11383497714996,-0.83051598072052
382,877557902,-0.91015535593033,-0.54136568307877,10.90026569366455,0.08652079105377,-0.16432225704193,9.76423168182373,0.23791785538197,-1.11032581329346,-0.92749148607254
383,877566235,-0.91050565242767,-0.54169380664825,10.89993095397949,0.08262249082327,-0.15739831328392,9.77443122863770,0.19214518368244,-1.12479782104492,-0.84865093231201
384,877574568,-0.91046059131622,-0.54180020093918,10.90006065368652,0.09486107528210,-0.16943685710430,9.78051090240479,0.23896798491478,-1.10020816326141,-0.81747829914093
385,877582901,-0.91132813692093,-0.54154962301254,10.90000915527344,0.08665673434734,-0.15464477241039,9.78662014007568,0.12910854816437,-1.05515277385712,-0.85118663311005
386,877591234,-0.91148108243942,-0.54134237766266,10.90051651000977,0.10428851842880,-0.16468018293381,9.76148509979248,0.21709343791008,-1.06229913234711,-0.77252531051636
387,877599567,-0.91187936067581,-0.54076009988785,10.90055656433105,0.09597684442997,-0.16460837423801,9.78195667266846,0.18663811683655,-1.01614224910736,-0.80646407604218
388,877607900,-0.91139560937881,-0.54104703664780,10.90046501159668,0.09383090585470,-0.14741978049278,9.77568340301514,0.29160523414612,-1.12136554718018,-0.84442436695099
389,877616233,-0.91065067052841,-0.54094135761261,10.90083980560303,0.09365217387676,-0.14912247657776,9.78166294097900,0.32380232214928,-1.07303142547607,-0.79734551906586
390,877624566,-0.91104060411453,-0.54116541147232,10.90063858032227,0.09707123041153,-0.16250543296337,9.78008174896240,0.18709917366505,-1.11319458484650,-0.85751336812973
391,877632899,-0.91146439313889,-0.54131531715393,10.90099239349365,0.08931040018797,-0.16459406912327,9.76409530639648,0.18305212259293,-1.10446012020111,-0.78054255247116
392,877641232,-0.91231864690781,-0.54131644964218,10.90149307250977,0.08879539370537,-0.14790648221970,9.78553962707520,0.13220787048340,-1.08788764476776,-0.77324247360229
393,877649565,-0.91264271736145,-0.54147231578827,10.90175342559814,0.10440999269485,-0.15184742212296,9.76194286346436,0.19575679302216,-1.10392236709595,-0.80974280834198
394,877657898,-0.91256439685822,-0.54129618406296,10.90187931060791,0.09612705558538,-0.16003055870533,9.79292106628418,0.24355293810368,-1.06619238853455,-0.81735014915466
395,877666231,-0.91273027658463,-0.54080897569656,10.90116786956787,0.10213544219732,-0.16362127661705,9.77322959899902,0.21355870366096,-1.02564525604248,-0.89470529556274
396,877674564,-0.91204285621643,-0.54078829288483,10.90066432952881,0.09184965491295,-0.16178299486637,9.78202056884766,0.31517034769058,-1.08348214626312,-0.89378309249878
397,877682897,-0.91291296482086,-0.54125177860260,10.90043258666992,0.09095559269190,-0.15095393359661,9.80289936065674,0.13036362826824,-1.14014065265656,-0.86048460006714
398,877691230,-0.91377240419388,-0.54157835245132,10.90044498443604,0.08549793064594,-0.15490911900997,9.79256343841553,0.13054293394089,-1.12651395797729,-0.83148920536041
399,877699563,-0.91461759805679,-0.54175823926926,10.90134143829346,0.10198520123959,-0.17828434705734,9.76843833923340,0.13351421058178,-1.10896825790405,-0.71573859453201
400,877707896,-0.91474187374115,-0.54185140132904,10.90192508697510,0.07565561681986,-0.16070292890072,9.77805042266846,0.21996225416660,-1.09841525554657,-0.76397019624710
401,877716229,-0.91506737470627,-0.54194724559784,10.90197944641113,0.10690645128489,-0.14541046321392,9.75413131713867,0.19567993283272,-1.09762108325958,-0.82237052917480
402,877724562,-0.91520053148270,-0.54277598857880,10.90104293823242,0.10511102527380,-0.17099586129189,9.79484558105469,0.21632499992847,-1.18429970741272,-0.94777786731720
403,877732895,-0.91483938694000,-0.54252421855927,10.90128135681152,0.09649900346994,-0.13462366163731,9.77828693389893,0.27823463082314,-1.05579316616058,-0.79163348674774
404,877741228,-0.91457396745682,-0.54185473918915,10.90157794952393,0.09184965491295,-0.13754202425480,9.77022552490234,0.26555556058884,-1.00697219371796,-0.79657703638077
405,877749561,-0.91418904066086,-0.54124367237091,10.90155982971191,0.10151323676109,-0.16281330585480,9.80159091949463,0.28066799044609,-1.01140379905701,-0.85264664888382
406,877757894,-0.91359990835190,-0.54134625196457,10.90141487121582,0.08647796511650,-0.16596058011055,9.77863693237305,0.30456605553627,-1.09877383708954,-0.85044378042221
407,877766227,-0.91334378719330,-0.54092454910278,10.90138816833496,0.07990440726280,-0.13515296578407,9.79148387908936,0.26458221673965,-1.03463566303253,-0.84007006883621
408,877774560,-0.91373342275620,-0.54053920507431,10.90148162841797,0.10407386720181,-0.17315602302551,9.76663494110107,0.18699672818184,-1.04098808765411,-0.82096177339554
409,877782893,-0.91339194774628,-0.54056489467621,10.90105152130127,0.10261459648609,-0.15342816710472,9.80959510803223,0.27510970830917,-1.08811831474304,-0.88112962245941
410,877791226,-0.91290891170502,-0.54005271196365,10.90033149719238,0.09366647899151,-0.16705465316772,9.78805065155029,0.29017084836960,-1.02369856834412,-0.91942298412323
411,877799559,-0.90154421329498,-0.54019838571548,10.90375614166260,0.09280813485384,-0.15754136443138,9.79897975921631,0.27895182371140,-1.08040845394135,-0.89798378944397
412,877807892,-0.90119010210037,-0.53995668888092,10.90369224548340,0.09782943129539,-0.15156874060631,9.79694175720215,0.27531456947327,-1.05812394618988,-0.84027498960495
413,877816225,-0.90104615688324,-0.53977614641190,10.90384006500244,0.08703579008579,-0.14661182463169,9.77365207672119,0.25098109245300,-1.06386172771454,-0.80054730176926
414,877824558,-0.90086525678635,-0.54013341665268,10.90434360504150,0.09199278801680,-0.15192668139935,9.77878761291504,0.25628322362900,-1.13109910488129,-0.77288389205933
415,877832891,-0.90128934383392,-0.54047971963882,10.90451908111572,0.08089144527912,-0.15692593157291,9.77870941162109,0.18220688402653,-1.12735939025879,-0.79393887519836
416,877841224,-0.90134102106094,-0.54052633047104,10.90384769439697,0.09443183243275,-0.17631042003632,9.79144763946533,0.22572542726994,-1.09147369861603,-0.91378778219223
417,877849557,-0.90094679594040,-0.54097026586533,10.90372848510742,0.10471037775278,-0.15150405466557,9.77416038513184,0.28118023276329,-1.13765609264374,-0.84665286540985
418,877857890,-0.90065532922745,-0.54123163223267,10.90406799316406,0.09627011418343,-0.14401534199715,9.76979637145996,0.26763030886650,-1.11952126026154,-0.79255563020706
419,877866223,-0.90204668045044,-0.54170590639114,10.90449810028076,0.10188509523869,-0.15750560164452,9.77329444885254,0.06753192842007,-1.14290714263916,-0.78750967979431
420,877874556,-0.90228617191315,-0.54180389642715,10.90416622161865,0.08736482262611,-0.15497349202633,9.79847908020020,0.20403020083904,-1.09698081016541,-0.87413698434830
421,877882889,-0.90194070339203,-0.54132908582687,10.90411949157715,0.08565537631512,-0.15979479253292,9.78394508361816,0.27464863657951,-1.02853953838348,-0.82037276029587
422,877891222,-0.90156322717667,-0.54159200191498,10.90477657318115,0.08300866186619,-0.15025949478149,9.78373050689697,0.27831152081490,-1.12034118175507,-0.75474911928177
423,877899555,-0.90162038803101,-0.54185217618942,10.90360069274902,0.10017556697130,-0.15314236283302,9.79774284362793,0.22610965371132,-1.11483407020569,-0.92923313379288
424,877907888,-0.90146833658218,-0.54215842485428,10.90437221527100,0.09483954310417,-0.15052442252636,9.77749252319336,0.25233861804008,-1.12474668025970,-0.74194192886353
425,877916221,-0.90163004398346,-0.54233330488205,10.90374279022217,0.11041836440563,-0.15426504611969,9.75383853912354,0.21286709606647,-1.10540783405304,-0.89175951480865
426,877924554,-0.90081679821014,-0.54217326641083,10.90265846252441,0.09614851325750,-0.15152582526207,9.77296543121338,0.32918134331703,-1.06593632698059,-0.96276235580444
427,877932887,-0.90051496028900,-0.54209899902344,10.90264892578125,0.09093417227268,-0.16259159147739,9.78756427764893,0.27003806829453,-1.07561838626862,-0.83530575037003
428,877941220,-0.90004414319992,-0.54199308156967,10.90318107604980,0.09147047251463,-0.17211143672466,9.77535438537598,0.29050382971764,-1.07551598548889,-0.76868313550949
429,877949553,-0.90067899227142,-0.54167258739471,10.90298175811768,0.09524725377560,-0.16784861683846,9.80419445037842,0.15695121884346,-1.04682815074921,-0.83474230766296
430,877957886,-0.90022522211075,-0.54148250818253,10.90271472930908,0.08205026388168,-0.15398640930653,9.79187679290771,0.28704592585564,-1.06350302696228,-0.86491590738297
431,877966219,-0.89977627992630,-0.54148167371750,10.90234851837158,0.10265054553747,-0.14135481417179,9.78667736053467,0.28609818220139,-1.08442974090576,-0.89473080635071
432,877974552,-0.90011340379715,-0.54089438915253,10.90293788909912,0.09182819724083,-0.15152582526207,9.79438781738281,0.19398941099644,-1.01721811294556,-0.76146000623703
433,877982885,-0.89992779493332,-0.54068911075592,10.90311050415039,0.09740026295185,-0.16641804575920,9.78793621063232,0.25541236996651,-1.06106984615326,-0.79698699712753
434,877991218,-0.90067392587662,-0.54054200649261,10.90359973907471,0.07813046127558,-0.15190465748310,9.79139900207520,0.14375989139080,-1.07036757469177,-0.77431827783585
435,877999551,-0.90143972635269,-0.54080164432526,10.90352821350098,0.10810091346502,-0.14522416889668,9.76504707336426,0.14219741523266,-1.11590969562531,-0.82969629764557
436,878007884,-0.90067601203918,-0.54013371467590,10.90342521667480,0.07888861000538,-0.15187604725361,9.75533390045166,0.32426342368126,-1.00666511058807,-0.84391224384308
437,878016217,-0.90074676275253,-0.54004895687103,10.90391349792480,0.08406014740467,-0.15232667326927,9.80468845367432,0.22590477764606,-1.07620787620544,-0.77982538938522
438,878024550,-0.90062296390533,-0.54004395008087,10.90346717834473,0.08232922106981,-0.15151867270470,9.75976848602295,0.24657543003559,-1.08540320396423,-0.88709777593613
439,878032883,-0.90005755424500,-0.54076880216599,10.90306091308594,0.08842344582081,-0.17668952047825,9.77490329742432,0.30182531476021,-1.17213296890259,-0.86066389083862
440,878041216,-0.89978712797165,-0.54024165868759,10.90289402008057,0.07949661463499,-0.16314175724983,9.78933143615723,0.26547873020172,-1.02277648448944,-0.85336387157440
441,878049549,-0.89981251955032,-0.54020613431931,10.90259742736816,0.10134870558977,-0.15181940793991,9.79742050170898,0.22977250814438,-1.08074152469635,-0.85812819004059
442,878057882,-0.90058541297913,-0.54084837436676,10.90178585052490,0.09577656537294,-0.16691158711910,9.79433822631836,0.13884195685387,-1.16293752193451,-0.93161529302597
443,878066215,-0.90006291866302,-0.54074406623840,10.90140724182129,0.09361641108990,-0.14721980690956,9.80795001983643,0.29578036069870,-1.07249355316162,-0.86880922317505
444,878074548,-0.90057206153870,-0.54011422395706,10.90186977386475,0.07274441421032,-0.15295639634132,9.79146957397461,0.17303697764874,-1.01189029216766,-0.77685415744781
445,878082881,-0.90057080984116,-0.54028707742691,10.90245056152344,0.08794420212507,-0.14900802075863,9.77383041381836,0.23371706902981,-1.10622763633728,-0.76827329397202
446,878091214,-0.90100824832916,-0.53992325067520,10.90238285064697,0.08986116945744,-0.15254868566990,9.79152679443359,0.17959420382977,-1.04406177997589,-0.83955776691437
447,878099547,-0.90123236179352,-0.54019767045975,10.90296840667725,0.09992521256208,-0.15930812060833,9.77863693237305,0.20725759863853,-1.11877858638763,-0.76760745048523
448,878107880,-0.90175348520279,-0.54009699821472,10.90315723419189,0.09564071148634,-0.15633998811245,9.77118396759033,0.17101342976093,-1.07467079162598,-0.81120276451111
449,878116213,-0.90199416875839,-0.54033482074738,10.90325450897217,0.10938842594624,-0.14762037992477,9.78661251068115,0.20385088026524,-1.11444973945618,-0.82070571184158
450,878124546,-0.90200537443161,-0.53978824615479,10.90333461761475,0.08631335943937,-0.17719738185406,9.77561855316162,0.23200093209743,-1.02167499065399,-0.82260107994080
451,878132879,-0.90261262655258,-0.53907763957977,10.90326118469238,0.09147775918245,-0.14971643686295,9.78016090393066,0.16069090366364,-0.99969786405563,-0.83581805229187
452,878141212,-0.90227687358856,-0.53819930553436,10.90278625488281,0.08725753426552,-0.14983774721622,9.76331615447998,0.27349600195885,-0.98056417703629,-0.88858342170715
453,878149545,-0.90217417478561,-0.53769934177399,10.90316200256348,0.10355878621340,-0.15523788332939,9.77556896209717,0.24503853917122,-1.02651596069336,-0.78943073749542
454,878157878,-0.90182149410248,-0.53796023130417,10.90348625183105,0.08913873136044,-0.16329225897789,9.79146957397461,0.27618548274040,-1.11877846717834,-0.79488652944565
455,878166211,-0.90212619304657,-0.53873825073242,10.90275001525879,0.07894586026669,-0.16920728981495,9.80036067962646,0.19588486850262,-1.17661547660828,-0.92679977416992
456,878174544,-0.90225005149841,-0.53936254978180,10.90262508392334,0.11187762022018,-0.15811359882355,9.77403831481934,0.21801555156708,-1.16093957424164,-0.85059744119644
457,878182877,-0.90179276466370,-0.53902000188828,10.90248203277588,0.09795818477869,-0.16017360985279,9.79048919677734,0.28830102086067,-1.04457402229309,-0.84911185503006
458,878191210,-0.90213918685913,-0.53928136825562,10.90307712554932,0.10054757446051,-0.16838537156582,9.79330062866211,0.19109500944614,-1.11867606639862,-0.76309925317764
459,878199543,-0.90236842632294,-0.53959089517593,10.90310478210449,0.08903858810663,-0.15111811459064,9.78497505187988,0.20605370402336,-1.12331223487854,-0.81942492723465
460,878207876,-0.90168166160583,-0.54027199745178,10.90257930755615,0.07760834693909,-0.14936566352844,9.77059745788574,0.31634858250618,-1.16695880889893,-0.89824002981186
461,878216209,-0.90238654613495,-0.54040771722794,10.90289402008057,0.10724257677794,-0.14710536599159,9.75353050231934,0.14826798439026,-1.10200107097626,-0.80272442102432
462,878224542,-0.90179520845413,-0.53939491510391,10.90304183959961,0.09546184539795,-0.15920083224773,9.79221343994141,0.30413058400154,-0.96614331007004,-0.81266278028488
463,878232875,-0.90243023633957,-0.53877896070480,10.90334701538086,0.09374515712261,-0.14232011139393,9.78431701660156,0.15664385259151,-1.01214647293091,-0.79565495252609
464,878241208,-0.90264248847961,-0.53879660367966,10.90323734283447,0.08172838389874,-0.15446564555168,9.76939582824707,0.20820529758930,-1.08806705474854,-0.84724199771881
465,878249541,-0.90269052982330,-0.53905659914017,10.90236282348633,0.09820137917995,-0.14527423679829,9.76114845275879,0.22608406841755,-1.11524391174316,-0.93732738494873
466,878257874,-0.90336829423904,-0.53957593441010,10.90210437774658,0.08617740124464,-0.16852064430714,9.75950431823730,0.15154661238194,-1.14815807342529,-0.86578673124313
467,878266207,-0.90336221456528,-0.53951585292816,10.90159797668457,0.09310847520828,-0.13983775675297,9.79116249084473,0.23351219296455,-1.07705295085907,-0.88927495479584
468,878274540,-0.90368962287903,-0.53963071107864,10.90145206451416,0.08669961243868,-0.15065318346024,9.76597690582275,0.19355393946171,-1.10100221633911,-0.85036683082581
469,878282873,-0.90390211343765,-0.54088902473450,10.90081214904785,0.09686379879713,-0.15003088116646,9.76963901519775,0.20695020258427,-1.23529767990112,-0.90520691871643
470,878291206,-0.90378534793854,-0.53976786136627,10.90005779266357,0.10588361322880,-0.14073248207569,9.77653408050537,0.24624243378639,-0.95087707042694,-0.92183059453964
471,878299539,-0.90371847152710,-0.54014950990677,10.89907264709473,0.09392390400171,-0.15962964296341,9.78209304809570,0.24104274809361,-1.12969017028809,-0.92157447338104
472,878307872,-0.90405869483948,-0.54006820917130,10.89936637878418,0.07600610703230,-0.13661929965019,9.78181362152100,0.19201712310314,-1.07697618007660,-0.79890805482864
473,878316205,-0.90400373935699,-0.53998780250549,10.89955806732178,0.08963220566511,-0.16667525470257,9.79118442535400,0.23948030173779,-1.07692492008209,-0.80769360065460
474,878324538,-0.90438783168793,-0.54034906625748,10.89984130859375,0.10398802906275,-0.17295573651791,9.77180671691895,0.18791882693768,-1.12969017028809,-0.80118757486343
475,878332871,-0.90457481145859,-0.54031449556351,10.89926528930664,0.09606983512640,-0.15096789598465,9.78850841522217,0.21043373644352,-1.08107435703278,-0.87188291549683
476,878341204,-0.90400862693787,-0.54116672277451,10.89930725097656,0.08624888956547,-0.16741195321083,9.76541900634766,0.30095446109772,-1.18847489356995,-0.83092582225800
477,878349537,-0.90381568670273,-0.54088592529297,10.89913463592529,0.09527587145567,-0.15151152014732,9.76235008239746,0.25605270266533,-1.05241215229034,-0.86281555891037
478,878357870,-0.90352284908295,-0.54068541526794,10.89912700653076,0.10393796116114,-0.17362810671329,9.77979564666748,0.26732295751572,-1.06258082389832,-0.83433240652084
479,878366203,-0.90299326181412,-0.54148888587952,10.89955806732178,0.09331598877907,-0.14937996864319,9.78036785125732,0.29826498031616,-1.18189203739166,-0.77621382474899
480,878374536,-0.90303748846054,-0.54161232709885,10.89954566955566,0.09616997092962,-0.15323536098003,9.79643344879150,0.22785143554211,-1.10166823863983,-0.83522891998291
481,878382869,-0.90357697010040,-0.54143595695496,10.89937877655029,0.10018993169069,-0.14778520166874,9.77551841735840,0.16886183619499,-1.06411778926849,-0.85677051544189
482,878391202,-0.90373444557190,-0.54072415828705,10.89970493316650,0.10677048563957,-0.16656824946404,9.77463912963867,0.21430148184299,-1.00128602981567,-0.79355460405350
483,878399535,-0.90313404798508,-0.54038798809052,10.90005874633789,0.08723606914282,-0.16818480193615,9.79481697082520,0.30510392785072,-1.04641830921173,-0.78984045982361
484,878407868,-0.90289336442947,-0.54004591703415,10.89985179901123,0.09362348169088,-0.15486592054367,9.77287292480469,0.26294291019440,-1.04539382457733,-0.85738527774811
485,878416201,-0.90279829502106,-0.54009687900543,10.90068149566650,0.09583379328251,-0.15492342412472,9.77123451232910,0.24498733878136,-1.09239578247070,-0.73525655269623
486,878424534,-0.90183585882187,-0.54116004705429,10.90056610107422,0.09356633573771,-0.15839970111847,9.77881622314453,0.34790530800819,-1.21488308906555,-0.84895813465118
487,878432867,-0.90201067924500,-0.54081922769547,10.90013027191162,0.08392430841923,-0.15003803372383,9.77173519134521,0.21150954067707,-1.04265320301056,-0.90815263986588
488,878441200,-0.90201997756958,-0.54127621650696,10.89977645874023,0.09375224262476,-0.15579573810101,9.79139137268066,0.23130935430527,-1.14162647724152,-0.87564820051193
489,878449533,-0.90194708108902,-0.54204201698303,10.90081501007080,0.09900965541601,-0.14818544685841,9.77657699584961,0.24283574521542,-1.17856216430664,-0.71215254068375
490,878457866,-0.90230703353882,-0.54148167371750,10.90155315399170,0.11104788631201,-0.13071820139885,9.74763679504395,0.19106939435005,-1.02090656757355,-0.74355566501617
491,878466199,-0.90191721916199,-0.54107505083084,10.90141582489014,0.09492538124323,-0.16169716417789,9.78957366943359,0.27961781620979,-1.03709471225739,-0.84173494577408
492,878474532,-0.90217822790146,-0.54013657569885,10.90185070037842,0.09287954866886,-0.15907870233059,9.79771995544434,0.20208351314068,-0.97403258085251,-0.78061944246292
493,878482865,-0.90187257528305,-0.53943026065826,10.90249729156494,0.08754364401102,-0.15492342412472,9.75878143310547,0.27116507291794,-1.00241303443909,-0.75200831890106
494,878491198,-0.90113461017609,-0.53938609361649,10.90290641784668,0.09300841391087,-0.15887895226479,9.76169967651367,0.32213741540909,-1.08209884166718,-0.78430777788162
495,878499531,-0.90106546878815,-0.53902274370193,10.90240287780762,0.08232215046883,-0.17552392184734,9.77951717376709,0.24132451415062,-1.04075753688812,-0.87713372707367
496,878507864,-0.90160876512527,-0.53853499889374,10.90266513824463,0.09500405937433,-0.14508111774921,9.77209949493408,0.16832396388054,-1.02859079837799,-0.80146932601929
497,878516197,-0.90162223577499,-0.53880435228348,10.90212726593018,0.09024018794298,-0.15982279181480,9.79400253295898,0.23066899180412,-1.11685740947723,-0.91570883989334
498,878524530,-0.90116715431213,-0.53873056173325,10.90213394165039,0.06758712977171,-0.15412200987339,9.79642009735107,0.28789120912552,-1.07815444469452,-0.83230894804001
499,878532863,-0.90096813440323,-0.53899836540222,10.90185546875000,0.12277139723301,-0.14079655706882,9.76682090759277,0.25705164670944,-1.11770272254944,-0.84557712078094
500,878541196,-0.90029901266098,-0.53908371925354,10.90210151672363,0.10138439387083,-0.16437232494354,9.78593349456787,0.31309556961060,-1.09705758094788,-0.80454301834106
501,878549529,-0.90015226602554,-0.53925681114197,10.90231227874756,0.10468900948763,-0.16388593614101,9.80311393737793,0.25172391533852,-1.10732901096344,-0.78594720363617
502,878557862,-0.90033209323883,-0.53877300024033,10.90215873718262,0.09588379412889,-0.16181847453117,9.75908946990967,0.21150957047939,-1.02779686450958,-0.85167336463928
503,878566195,-0.90073794126511,-0.53859221935272,10.90300178527832,0.09788665920496,-0.15888610482216,9.76682090759277,0.18464021384716,-1.06619250774384,-0.71753156185150
504,878574528,-0.89959716796875,-0.53893333673477,10.90391445159912,0.11263582110405,-0.15221250057220,9.78107643127441,0.37269991636276,-1.12866556644440,-0.72495973110199
505,878582861,-0.89900624752045,-0.53888601064682,10.90409374237061,0.10629124939442,-0.16499462723732,9.77916622161865,0.30430993437767,-1.08040857315063,-0.78487145900726
506,878591194,-0.89967703819275,-0.53884756565094,10.90438652038574,0.10826542973518,-0.16459406912327,9.76701354980469,0.15239189565182,-1.08340525627136,-0.79755049943924
507,878599527,-0.89895260334015,-0.53964179754257,10.90457630157471,0.08319471776485,-0.16070292890072,9.77712059020996,0.32090792059898,-1.18107235431671,-0.78973799943924
508,878607860,-0.89844530820847,-0.53903704881668,10.90446567535400,0.08241505920887,-0.15755566954613,9.80408000946045,0.29373121261597,-1.01424694061279,-0.84485989809036
509,878616193,-0.89854007959366,-0.53903162479401,10.90391540527344,0.09806548058987,-0.15038852393627,9.77139186859131,0.22047452628613,-1.08453226089478,-0.87026917934418
510,878624526,-0.89879846572876,-0.53900593519211,10.90396022796631,0.09157778322697,-0.16074553132057,9.79545402526855,0.20267263054848,-1.08309805393219,-0.82869738340378
511,878632859,-0.89870756864548,-0.53924334049225,10.90356159210205,0.10331574827433,-0.16398639976978,9.78640556335449,0.24434697628021,-1.11304080486298,-0.86066377162933
512,878641192,-0.89946109056473,-0.53900104761124,10.90392112731934,0.10652009397745,-0.14461590349674,9.79632663726807,0.14276094734669,-1.05835473537445,-0.79032725095749
513,878649525,-0.90016901493073,-0.53915244340897,10.90400314331055,0.09210000932217,-0.17410734295845,9.78923797607422,0.14913888275623,-1.10428094863892,-0.79304236173630
514,878657858,-0.90095615386963,-0.53969508409500,10.90417098999023,0.09243623167276,-0.15369345247746,9.75653457641602,0.13845774531364,-1.15197455883026,-0.81458383798599
515,878666191,-0.90125072002411,-0.53924214839935,10.90367984771729,0.09023305028677,-0.14518095552921,9.78343009948730,0.19642277061939,-1.03035831451416,-0.89678007364273
516,878674524,-0.90158039331436,-0.53962904214859,10.90385437011719,0.09423870593309,-0.16690443456173,9.78634071350098,0.19398941099644,-1.13355803489685,-0.81312388181686
517,878682857,-0.90148383378983,-0.54061675071716,10.90388774871826,0.10256461799145,-0.16093181073666,9.82465839385986,0.24521785974503,-1.20381772518158,-0.82587969303131
518,878691190,-0.90105104446411,-0.54104423522949,10.90334224700928,0.09137050807476,-0.16193355619907,9.77836513519287,0.28389537334442,-1.13711845874786,-0.90008425712585
519,878699523,-0.90167367458344,-0.54113638401031,10.90285301208496,0.10545436292887,-0.16942223906517,9.75504016876221,0.15807825326920,-1.09575140476227,-0.87575066089630
520,878707856,-0.90127921104431,-0.54162460565567,10.90278911590576,0.09550476074219,-0.14279220998287,9.75732135772705,0.28079605102539,-1.14526355266571,-0.84173494577408
521,878716189,-0.90081369876862,-0.54139417409897,10.90241336822510,0.08970380574465,-0.16087459027767,9.76321601867676,0.28919750452042,-1.05643343925476,-0.88428020477295
522,878724522,-0.90069377422333,-0.54162126779556,10.90239620208740,0.09785082191229,-0.16481550037861,9.75901031494141,0.24693402647972,-1.11406540870667,-0.83609986305237
523,878732855,-0.90131658315659,-0.54175245761871,10.90239334106445,0.10824397206306,-0.14890073239803,9.77911663055420,0.15812946856022,-1.10154020786285,-0.85479825735092
524,878741188,-0.90057188272476,-0.54209256172180,10.90213584899902,0.09043349325657,-0.14947327971458,9.76689243316650,0.32208621501923,-1.12671887874603,-0.86489021778107
525,878749521,-0.90098488330841,-0.54190659523010,10.90249061584473,0.09724289923906,-0.14981628954411,9.79190540313721,0.18481950461864,-1.06360554695129,-0.79322159290314
526,878757854,-0.90136587619781,-0.54068946838379,10.90199375152588,0.10259316116571,-0.15686157345772,9.79757118225098,0.18666373193264,-0.93953007459641,-0.89083749055862
527,878766187,-0.90250319242477,-0.54054534435272,10.90168952941895,0.09153493493795,-0.17430762946606,9.77236461639404,0.09604056924582,-1.06813919544220,-0.85210871696472
528,878774520,-0.90303897857666,-0.53983211517334,10.90218830108643,0.07967551797628,-0.16714048385620,9.79345798492432,0.16909235715866,-1.00228500366211,-0.77208983898163
529,878782853,-0.90299499034882,-0.53985869884491,10.90278434753418,0.10904508829117,-0.15751275420189,9.79263496398926,0.23955714702606,-1.08932209014893,-0.75815576314926
530,878791186,-0.90285515785217,-0.53962218761444,10.90341091156006,0.08710023760796,-0.15669044852257,9.77420997619629,0.25100669264793,-1.05950725078583,-0.75795090198517
531,878799519,-0.90249454975128,-0.53953295946121,10.90345668792725,0.10066919028759,-0.14694115519524,9.75631999969482,0.27623668313026,-1.07461965084076,-0.82587975263596
532,878807852,-0.90205222368240,-0.53949820995331,10.90421104431152,0.09563358873129,-0.16113236546516,9.77383041381836,0.28750696778297,-1.08460903167725,-0.74230051040649
533,878816185,-0.90173548460007,-0.53979194164276,10.90390491485596,0.08996130526066,-0.15458008646965,9.78959560394287,0.27116510272026,-1.11952137947083,-0.87198543548584
534,878824518,-0.90194278955460,-0.53972274065018,10.90450668334961,0.09289397299290,-0.15844978392124,9.80566120147705,0.20812846720219,-1.07938373088837,-0.76163929700851
535,878832851,-0.90203320980072,-0.54040247201920,10.90454864501953,0.10967454314232,-0.17726175487041,9.78244304656982,0.22239558398724,-1.16734302043915,-0.80966597795486
536,878841184,-0.90178859233856,-0.54167580604553,10.90499305725098,0.09828721731901,-0.14832134544849,9.80401515960693,0.26371136307716,-1.24085605144501,-0.78166961669922
537,878849517,-0.90229541063309,-0.54168695211411,10.90499401092529,0.08196442574263,-0.15100367367268,9.77862262725830,0.17239661514759,-1.08686327934265,-0.80966597795486
538,878857850,-0.90160995721817,-0.54187995195389,10.90447521209717,0.08969654887915,-0.15603178739548,9.75396060943604,0.31458121538162,-1.10858404636383,-0.89647269248962
539,878866183,-0.90165042877197,-0.54219365119934,10.90483951568604,0.09406710416079,-0.15767756104469,9.77005386352539,0.22897844016552,-1.12438797950745,-0.77887767553329
540,878874516,-0.90095168352127,-0.54221415519714,10.90508365631104,0.09479662775993,-0.14472347497940,9.79703426361084,0.31675842404366,-1.08998811244965,-0.80321115255356
541,878882849,-0.90135937929153,-0.54260528087616,10.90547847747803,0.11317937821150,-0.16159674525261,9.79040431976318,0.18622830510139,-1.13284063339233,-0.76988697052002
542,878891182,-0.90188187360764,-0.54274940490723,10.90575027465820,0.09986799210310,-0.14831419289112,9.79487419128418,0.17042431235313,-1.10499811172485,-0.80085468292236
543,878899515,-0.90143120288849,-0.54274052381516,10.90567207336426,0.09236457198858,-0.17003707587719,9.79689884185791,0.28661048412323,-1.08460903167725,-0.83072084188461
544,878907848,-0.90182733535767,-0.54303270578384,10.90541362762451,0.09545469284058,-0.16071723401546,9.75823020935059,0.18528054654598,-1.12128853797913,-0.86417293548584
545,878916181,-0.90180248022079,-0.54357016086578,10.90519332885742,0.09736457467079,-0.15136164426804,9.76206398010254,0.23632974922657,-1.14915716648102,-0.84906059503555
546,878924514,-0.90186190605164,-0.54367142915726,10.90436935424805,0.09724289923906,-0.16528074443340,9.75487518310547,0.22441910207272,-1.09813344478607,-0.93156409263611
547,878932847,-0.90193706750870,-0.54310762882233,10.90405273437500,0.09845881164074,-0.17266933619976,9.76704311370850,0.22431664168835,-1.01706445217133,-0.83976262807846
548,878941180,-0.90250450372696,-0.54390752315521,10.90433692932129,0.08402449637651,-0.15278504788876,9.79190540313721,0.16632604598999,-1.18319821357727,-0.80111080408096
549,878949513,-0.90245264768600,-0.54397034645081,10.90445709228516,0.08320187032223,-0.16906459629536,9.76041221618652,0.23814834654331,-1.09354841709137,-0.82890224456787
550,878957846,-0.90227758884430,-0.54364526271820,10.90411090850830,0.09008290618658,-0.15394347906113,9.78534698486328,0.25428533554077,-1.04670011997223,-0.87449562549591
551,878966179,-0.90237045288086,-0.54424881935120,10.90416145324707,0.09688525646925,-0.15062457323074,9.76835155487061,0.22277979552746,-1.15776336193085,-0.80275005102158
552,878974512,-0.90223085880280,-0.54399496316910,10.90420627593994,0.09054791182280,-0.16535256803036,9.77923107147217,0.24980281293392,-1.05656158924103,-0.82759582996368
553,878982845,-0.90206021070480,-0.54332357645035,10.90344429016113,0.09469648450613,-0.16672562062740,9.77875137329102,0.25346565246582,-1.00320708751678,-0.91291689872742
554,878991178,-0.90270566940308,-0.54318344593048,10.90370655059814,0.10435997694731,-0.16415774822235,9.78778553009033,0.15438981354237,-1.07072627544403,-0.80200731754303
555,878999511,-0.90195125341415,-0.54378455877304,10.90417289733887,0.09772939234972,-0.16307798027992,9.78202819824219,0.32539039850235,-1.15848052501678,-0.78079867362976
556,879007844,-0.90158498287201,-0.54376429319382,10.90443515777588,0.10124134272337,-0.15442273020744,9.77651977539062,0.27669778466225,-1.08535206317902,-0.80136692523956
557,879016177,-0.90080535411835,-0.54399907588959,10.90442276000977,0.09089832752943,-0.16479435563087,9.77844429016113,0.32749080657959,-1.11301529407501,-0.82203763723373
558,879024510,-0.90078198909760,-0.54414075613022,10.90453243255615,0.10180641710758,-0.16094611585140,9.76099109649658,0.23538203537464,-1.10428094863892,-0.82057768106461
559,879032843,-0.90095615386963,-0.54300773143768,10.90383338928223,0.07045543193817,-0.17002280056477,9.77617740631104,0.21168884634972,-0.94859749078751,-0.89047884941101
560,879041176,-0.90095692873001,-0.54295158386230,10.90390014648438,0.11183469742537,-0.17111030220985,9.75457477569580,0.23284620046616,-1.08071577548981,-0.82452225685120
561,879049509,-0.90076386928558,-0.54310220479965,10.90439701080322,0.11375166475773,-0.16538803279400,9.80038928985596,0.25807622075081,-1.10415291786194,-0.76873439550400
562,879057842,-0.90014106035233,-0.54323875904083,10.90425872802734,0.09191393852234,-0.16028060019016,9.79533290863037,0.30787029862404,-1.10297453403473,-0.84970098733902
563,879066175,-0.90045386552811,-0.54308998584747,10.90432453155518,0.09491107612848,-0.16207626461983,9.77604103088379,0.19514203071594,-1.06772935390472,-0.80930733680725
564,879074508,-0.90038204193115,-0.54359757900238,10.90525817871094,0.08984685689211,-0.14527423679829,9.79953098297119,0.24206732213497,-1.14933633804321,-0.72247505187988
565,879082841,-0.90077942609787,-0.54433989524841,10.90587520599365,0.10147733241320,-0.14061744511127,9.79644107818604,0.18620267510414,-1.17618000507355,-0.74878090620041
566,879091174,-0.90062755346298,-0.54471355676651,10.90558719635010,0.11848692595959,-0.15032447874546,9.78305816650391,0.25085303187370,-1.13091981410980,-0.86886054277420
567,879099507,-0.90053451061249,-0.54466104507446,10.90550994873047,0.08879539370537,-0.15999479591846,9.76021862030029,0.24521787464619,-1.07894837856293,-0.82203757762909
568,879107840,-0.90062981843948,-0.54474669694901,10.90532779693604,0.09235750883818,-0.15349285304546,9.78397369384766,0.22211383283138,-1.09710884094238,-0.85433715581894
569,879116173,-0.89994221925735,-0.54423505067825,10.90572643280029,0.09216429293156,-0.15966549515724,9.77677059173584,0.31647667288780,-1.02444136142731,-0.77011764049530
570,879124506,-0.89973664283752,-0.54401361942291,10.90640735626221,0.10266467928886,-0.14633975923061,9.75869560241699,0.25792253017426,-1.06117212772369,-0.75162404775620
571,879132839,-0.89928585290909,-0.54398560523987,10.90649414062500,0.10250014811754,-0.14365741610527,9.79012584686279,0.28753259778023,-1.08271372318268,-0.81391787528992
572,879141172,-0.89896488189697,-0.54403853416443,10.90647792816162,0.09532593935728,-0.14061774313450,9.79595470428467,0.27198478579521,-1.09324121475220,-0.83510094881058
573,879149505,-0.89893388748169,-0.54450148344040,10.90687465667725,0.10657020658255,-0.14636862277985,9.77301502227783,0.23709814250469,-1.14167761802673,-0.76950287818909
574,879157838,-0.89896130561829,-0.54433745145798,10.90704250335693,0.09884513914585,-0.15822088718414,9.75185012817383,0.22951634228230,-1.06729388237000,-0.81304705142975
575,879166171,-0.89881211519241,-0.54482531547546,10.90692424774170,0.10013980418444,-0.15479467809200,9.76728534698486,0.25154459476471,-1.14405977725983,-0.84539783000946
576,879174504,-0.89854055643082,-0.54524540901184,10.90759086608887,0.09848749637604,-0.16002340614796,9.76943111419678,0.26535066962242,-1.13824534416199,-0.75474900007248
577,879182837,-0.89825886487961,-0.54549527168274,10.90717315673828,0.08995415270329,-0.15004518628120,9.79121875762939,0.26842439174652,-1.11444973945618,-0.86814326047897
578,879191170,-0.89855891466141,-0.54515796899796,10.90714550018311,0.08991838991642,-0.15756997466087,9.76194286346436,0.19701188802719,-1.04580354690552,-0.83691948652267
579,879199503,-0.89870744943619,-0.54564380645752,10.90712833404541,0.09323731064796,-0.16630360484123,9.76920986175537,0.21478815376759,-1.14505887031555,-0.80741190910339
580,879207836,-0.89894145727158,-0.54614633321762,10.90661430358887,0.08849497139454,-0.14646875858307,9.78992462158203,0.20500352978706,-1.14557111263275,-0.89616525173187
581,879216169,-0.89953750371933,-0.54602539539337,10.90609550476074,0.09752186387777,-0.14622557163239,9.77462482452393,0.16053722798824,-1.07018840312958,-0.87078160047531
582,879224502,-0.89848440885544,-0.54587745666504,10.90546607971191,0.10282927006483,-0.16377864778042,9.75436019897461,0.35881701111794,-1.06772923469543,-0.90851122140884
583,879232835,-0.89861458539963,-0.54588830471039,10.90576648712158,0.11897317320108,-0.14505937695503,9.76177120208740,0.21914260089397,-1.08729863166809,-0.77221804857254
584,879241168,-0.89902579784393,-0.54636263847351,10.90544795989990,0.10016126185656,-0.14855739474297,9.78285789489746,0.18253983557224,-1.14349615573883,-0.87162673473358
585,879249501,-0.89902323484421,-0.54730403423309,10.90560722351074,0.09896665811539,-0.16203303635120,9.79555416107178,0.23384512960911,-1.19948887825012,-0.79639774560928
586,879257834,-0.89929300546646,-0.54780542850494,10.90492725372314,0.08777968585491,-0.15756282210350,9.76651287078857,0.19924032688141,-1.14567351341248,-0.91573458909988
587,879266167,-0.89866721630096,-0.54826843738556,10.90608882904053,0.09247203171253,-0.15771330893040,9.76381683349609,0.30950957536697,-1.14285588264465,-0.69253206253052
588,879274500,-0.89906722307205,-0.54792386293411,10.90627098083496,0.09396695345640,-0.16054584085941,9.79530334472656,0.18525496125221,-1.04562425613403,-0.81094658374786
589,879282833,-0.89849358797073,-0.54886907339096,10.90639591217041,0.08104877918959,-0.14775595068932,9.80429553985596,0.30349025130272,-1.19895100593567,-0.82254981994629
590,879291166,-0.89849215745926,-0.54979592561722,10.90700244903564,0.09511135518551,-0.17681112885475,9.76826572418213,0.23261567950249,-1.19907915592194,-0.76304805278778
591,879299499,-0.89879882335663,-0.54972422122955,10.90625381469727,0.08542640507221,-0.15827810764313,9.78724193572998,0.19637151062489,-1.07505500316620,-0.90548872947693
592,879307832,-0.89914339780807,-0.55008125305176,10.90626907348633,0.09895958006382,-0.14719834923744,9.77913761138916,0.19153045117855,-1.13007438182831,-0.83148932456970
593,879316165,-0.89895516633987,-0.55062800645828,10.90693473815918,0.08771531283855,-0.14919400215149,9.76616287231445,0.25661623477936,-1.15194892883301,-0.74944692850113
594,879324498,-0.89897775650024,-0.55102968215942,10.90665531158447,0.08906719833612,-0.16871410608292,9.75908851623535,0.22990059852600,-1.13430082798004,-0.86757981777191
595,879332831,-0.89857554435730,-0.55041021108627,10.90620517730713,0.09096278995275,-0.15648303925991,9.80098247528076,0.28176936507225,-1.01025104522705,-0.87198531627655
596,879341164,-0.89873272180557,-0.55029439926147,10.90645694732666,0.08748642355204,-0.14966608583927,9.79310703277588,0.21412219107151,-1.07346689701080,-0.80257076025009
597,879349497,-0.89930903911591,-0.54983931779861,10.90715312957764,0.09596969187260,-0.15844263136387,9.78004646301270,0.16509655117989,-1.03169012069702,-0.76683896780014
598,879357830,-0.89998370409012,-0.54997956752777,10.90731620788574,0.09979646652937,-0.16902168095112,9.77572631835938,0.15246872603893,-1.10407602787018,-0.81348246335983
599,879366163,-0.89954465627670,-0.55075627565384,10.90669345855713,0.08963933587074,-0.13284939527512,9.73053550720215,0.28563714027405,-1.17705094814301,-0.91850090026855
600,879374496,-0.90044379234314,-0.55070042610168,10.90719223022461,0.06853853911161,-0.15036706626415,9.78098297119141,0.12485659122467,-1.08112561702728,-0.77344745397568
601,879382829,-0.90157216787338,-0.55163621902466,10.90785598754883,0.08529762178659,-0.14456582069397,9.76744365692139,0.09913989901543,-1.19882309436798,-0.74560481309891
602,879391162,-0.90151494741440,-0.55124104022980,10.90840435028076,0.08147803694010,-0.15031699836254,9.79938030242920,0.23932659626007,-1.03996360301971,-0.76794040203094
603,879399495,-0.90173959732056,-0.55131393671036,10.90891647338867,0.10187079012394,-0.13746333122253,9.78144073486328,0.20833337306976,-1.09562325477600,-0.75106060504913
604,879407828,-0.90177130699158,-0.55137020349503,10.90944957733154,0.08970386534929,-0.14835740625858,9.79503917694092,0.22838930785656,-1.09467542171478,-0.76973330974579
605,879416161,-0.90215808153152,-0.55183619260788,10.90958595275879,0.09974633902311,-0.15947233140469,9.75051975250244,0.18758584558964,-1.14093482494354,-0.82160222530365
606,879424494,-0.90185219049454,-0.55188274383545,10.90952682495117,0.10188509523869,-0.15651135146618,9.76430988311768,0.26998683810234,-1.09224224090576,-0.84032618999481
607,879432827,-0.90119457244873,-0.55118381977081,10.90945243835449,0.10195652395487,-0.14907927811146,9.78631973266602,0.31204542517662,-1.00164461135864,-0.81371295452118
608,879441160,-0.90094625949860,-0.55109542608261,10.90965557098389,0.08561237901449,-0.14782780408859,9.79095458984375,0.26368576288223,-1.07664310932159,-0.80825716257095
609,879449493,-0.90121060609818,-0.55135464668274,10.91024589538574,0.09574789553881,-0.15468710660934,9.80053997039795,0.20144316554070,-1.11734414100647,-0.75948768854141
610,879457826,-0.90065950155258,-0.55142009258270,10.91013145446777,0.09951750189066,-0.14960886538029,9.80218410491943,0.30008357763290,-1.09488046169281,-0.84642237424850
611,879466159,-0.90052640438080,-0.55186682939529,10.90925502777100,0.10550452023745,-0.16740550100803,9.78028202056885,0.24798421561718,-1.13737440109253,-0.93609780073166
612,879474492,-0.90046739578247,-0.55156171321869,10.90946102142334,0.09652761369944,-0.15259875357151,9.82305622100830,0.23968519270420,-1.04987621307373,-0.80905109643936
613,879482825,-0.90085625648499,-0.55284708738327,10.90960693359375,0.11200630664825,-0.15967260301113,9.79407405853271,0.18832866847515,-1.24113786220551,-0.78789389133453
614,879491158,-0.90047645568848,-0.55303502082825,10.90952110290527,0.10424553602934,-0.17163246870041,9.77906608581543,0.27738934755325,-1.10889148712158,-0.84419393539429
615,879499491,-0.90147209167480,-0.55341953039169,10.90906810760498,0.09350907057524,-0.17251193523407,9.79265022277832,0.11299719661474,-1.13104784488678,-0.87605810165405
616,879507824,-0.90172171592712,-0.55401682853699,10.90915584564209,0.09058354049921,-0.14773449301720,9.79848003387451,0.20326173305511,-1.15860867500305,-0.82365125417709
617,879516157,-0.90169811248779,-0.55384534597397,10.90846347808838,0.09896673262119,-0.12077575176954,9.77577590942383,0.23640656471252,-1.06311869621277,-0.90072458982468
618,879524490,-0.90220940113068,-0.55390542745590,10.90842437744141,0.09793678671122,-0.14666220545769,9.79190540313721,0.17068044841290,-1.09372782707214,-0.83837950229645
619,879532823,-0.90191859006882,-0.55363762378693,10.90849304199219,0.08506876230240,-0.16167570650578,9.78179168701172,0.26885983347893,-1.05412828922272,-0.80205857753754
620,879541156,-0.90201717615128,-0.55305874347687,10.90848731994629,0.08701433241367,-0.14306400716305,9.79548931121826,0.22047454118729,-1.01688516139984,-0.83389705419540
621,879549489,-0.90174806118011,-0.55315983295441,10.90851688385010,0.08631343394518,-0.14895111322403,9.77173519134521,0.26637521386147,-1.09764671325684,-0.82859486341476
622,879557822,-0.90148442983627,-0.55273836851120,10.90913295745850,0.08667814731598,-0.17243358492851,9.75309467315674,0.26624715328217,-1.03737652301788,-0.75830936431885
623,879566155,-0.90136557817459,-0.55187386274338,10.90880393981934,0.09324446320534,-0.15232694149017,9.79279994964600,0.24588385224342,-0.98053854703903,-0.86171406507492
624,879574488,-0.90159267187119,-0.55117797851562,10.90946865081787,0.09516154229641,-0.14604011178017,9.77509117126465,0.20674531161785,-1.00517940521240,-0.75126546621323
625,879582821,-0.90134143829346,-0.55001080036163,10.90960121154785,0.09316577762365,-0.16208341717720,9.78617668151855,0.26325029134750,-0.94549816846848,-0.80705326795578
626,879591154,-0.90160387754440,-0.54974418878555,10.90978336334229,0.11268595606089,-0.16889323294163,9.78539657592773,0.20233963429928,-1.05543446540833,-0.80992209911346
627,879599487,-0.90155017375946,-0.54958927631378,10.90979766845703,0.10207822173834,-0.13126182556152,9.76839447021484,0.24022306501865,-1.06642293930054,-0.83425551652908
628,879607820,-0.90217399597168,-0.54931312799454,10.90967655181885,0.08686412125826,-0.16186168789864,9.80641937255859,0.15764281153679,-1.05335974693298,-0.84719079732895
629,879616153,-0.90205079317093,-0.54970669746399,10.90979003906250,0.09628434479237,-0.15273435413837,9.77058410644531,0.24836838245392,-1.13276386260986,-0.80169987678528
630,879624486,-0.90296810865402,-0.54981666803360,10.91086578369141,0.08964661508799,-0.15321417152882,9.78370189666748,0.12331973761320,-1.10230863094330,-0.70408415794373
631,879632819,-0.90302336215973,-0.54969251155853,10.91077995300293,0.09742879867554,-0.15861399471760,9.78161334991455,0.22759526968002,-1.07003462314606,-0.85464447736740
632,879641152,-0.90367531776428,-0.54931604862213,10.91177463531494,0.10523262619972,-0.14225573837757,9.77993202209473,0.15495330095291,-1.04316532611847,-0.71430408954620
633,879649485,-0.90285658836365,-0.54934799671173,10.91203594207764,0.10350869596004,-0.15844948589802,9.77887439727783,0.33125609159470,-1.08924531936646,-0.81414842605591
634,879657818,-0.90380853414536,-0.54945194721222,10.91222763061523,0.09822283685207,-0.14263483881950,9.75767993927002,0.11868356913328,-1.09928619861603,-0.81089562177658
635,879666151,-0.90365773439407,-0.54924166202545,10.91187858581543,0.09509696811438,-0.16421467065811,9.80026817321777,0.25198003649712,-1.06019878387451,-0.84982907772064
636,879674484,-0.90340578556061,-0.55007338523865,10.91183662414551,0.10113404691219,-0.14973045885563,9.77593326568604,0.26248183846474,-1.18680989742279,-0.83958333730698
637,879682817,-0.90329617261887,-0.55064082145691,10.91148090362549,0.09815854579210,-0.16168320178986,9.74667167663574,0.24813792109489,-1.15253818035126,-0.86058706045151
638,879691150,-0.90297585725784,-0.55066239833832,10.91215324401855,0.08949629962444,-0.14844267070293,9.74918270111084,0.27116507291794,-1.09083342552185,-0.75259745121002
639,879699483,-0.90235072374344,-0.55086177587509,10.91175365447998,0.09279392659664,-0.16160450875759,9.78408050537109,0.30792152881622,-1.10789239406586,-0.87800472974777
640,879707816,-0.90277439355850,-0.55067688226700,10.91133022308350,0.09846603870392,-0.15605357289314,9.76807975769043,0.18182265758514,-1.06409215927124,-0.88253843784332
641,879716149,-0.90299010276794,-0.55049842596054,10.91193962097168,0.11187762022018,-0.13880091905594,9.77252864837646,0.20787231624126,-1.06480932235718,-0.75433915853500
642,879724482,-0.90291601419449,-0.54986983537674,10.91195774078369,0.10415969789028,-0.14945149421692,9.76142024993896,0.24109396338463,-1.01171100139618,-0.82956820726395
643,879732815,-0.90247362852097,-0.55026161670685,10.91246318817139,0.10718534886837,-0.16096042096615,9.78968143463135,0.28840342164040,-1.13358354568481,-0.76899045705795
644,879741148,-0.90222221612930,-0.55089747905731,10.91232013702393,0.09893096983433,-0.15719802677631,9.78676319122314,0.26212325692177,-1.16234838962555,-0.85251855850220
645,879749481,-0.90197592973709,-0.55014902353287,10.91222763061523,0.08333769440651,-0.14249865710735,9.76157093048096,0.26327592134476,-0.99544596672058,-0.82239621877670
646,879757814,-0.90175485610962,-0.55033254623413,10.91247653961182,0.09214284271002,-0.15309201180935,9.78383064270020,0.25879344344139,-1.10958313941956,-0.80346739292145
647,879766147,-0.90225368738174,-0.55107289552689,10.91271591186523,0.10837272554636,-0.16219072043896,9.76585483551025,0.17552153766155,-1.17405402660370,-0.80246829986572
648,879774480,-0.90286725759506,-0.55112218856812,10.91331100463867,0.11334399878979,-0.14553202688694,9.76079082489014,0.15869298577309,-1.09370219707489,-0.76258695125580
649,879782813,-0.90311282873154,-0.55102616548538,10.91382408142090,0.08522612601519,-0.13222029805183,9.76142787933350,0.20541337132454,-1.07472217082977,-0.76017928123474
650,879791146,-0.90258258581161,-0.55129528045654,10.91386413574219,0.10491798818111,-0.15603242814541,9.74468994140625,0.29662567377090,-1.11916267871857,-0.82887667417526
651,879799479,-0.90170770883560,-0.54503470659256,10.90478324890137,0.10061895102262,-0.14252011477947,9.76936054229736,0.31488859653473,-1.07528555393219,-0.77004069089890
652,879807812,-0.90179467201233,-0.54416859149933,10.90454578399658,0.09181389212608,-0.15232694149017,9.79636192321777,0.22308717668056,-0.98284375667572,-0.85940879583359
653,879816145,-0.90185391902924,-0.54444253444672,10.90485191345215,0.09730727225542,-0.16390024125576,9.75839519500732,0.22662197053432,-1.11903476715088,-0.78546059131622
654,879824478,-0.90148603916168,-0.54500496387482,10.90577983856201,0.08860941976309,-0.15997333824635,9.79192733764648,0.27910548448563,-1.15612399578094,-0.72221893072128
655,879832811,-0.90186029672623,-0.54425048828125,10.90599441528320,0.08852358162403,-0.15842831134796,9.77256488800049,0.18809814751148,-0.99593263864517,-0.79652583599091
656,879841144,-0.90239822864532,-0.54480767250061,10.90679454803467,0.09946022927761,-0.16276267170906,9.77765083312988,0.16924604773521,-1.15535569190979,-0.73715209960938
657,879849477,-0.90221899747849,-0.54420351982117,10.90780258178711,0.09250056743622,-0.16311343014240,9.76816558837891,0.25571972131729,-1.01501536369324,-0.72116881608963
658,879857810,-0.90240693092346,-0.54430288076401,10.90801334381104,0.09363786876202,-0.16560262441635,9.78915214538574,0.21053619682789,-1.09931182861328,-0.80733507871628
659,879866143,-0.90187203884125,-0.54392862319946,10.90856838226318,0.08948929607868,-0.16468732059002,9.76423835754395,0.29711231589317,-1.04185891151428,-0.76330423355103
660,879874476,-0.90210378170013,-0.54491621255875,10.90763378143311,0.09454628080130,-0.16038820147514,9.75650596618652,0.20500352978706,-1.20374107360840,-0.94631803035736
661,879882809,-0.90150737762451,-0.54551309347153,10.90771198272705,0.09972484409809,-0.16075266897678,9.77641296386719,0.30515518784523,-1.15763545036316,-0.82605910301208
662,879891142,-0.90108746290207,-0.54564887285233,10.90771007537842,0.10365184396505,-0.17100301384926,9.78424549102783,0.28289639949799,-1.10330748558044,-0.83323103189468
663,879899475,-0.90093058347702,-0.54478049278259,10.90807533264160,0.11172740906477,-0.19017264246941,9.81039619445801,0.25274845957756,-0.98256200551987,-0.77024561166763
664,879907808,-0.90103250741959,-0.54435873031616,10.90741825103760,0.09319432079792,-0.15538088977337,9.77071952819824,0.21985977888107,-1.03576278686523,-0.90968954563141
665,879916141,-0.90093302726746,-0.54409223794937,10.90802860260010,0.09612698853016,-0.16679689288139,9.75812339782715,0.24631927907467,-1.05469167232513,-0.74504119157791
666,879924474,-0.90086442232132,-0.54497170448303,10.90809440612793,0.09553337097168,-0.15735539793968,9.76299381256104,0.24111957848072,-1.19305992126465,-0.82590544223785
667,879932807,-0.90201473236084,-0.54467511177063,10.90801429748535,0.10267905890942,-0.15744838118553,9.75309467315674,0.09647601097822,-1.05015790462494,-0.83259063959122
668,879941140,-0.90196895599365,-0.54445499181747,10.90811157226562,0.09533301740885,-0.15771989524364,9.76790904998779,0.23791782557964,-1.06073665618896,-0.82111549377441
669,879949473,-0.90206587314606,-0.54534506797791,10.90814685821533,0.09439613670111,-0.15581785142422,9.75019741058350,0.22193452715874,-1.19311106204987,-0.81878465414047
670,879957806,-0.90268540382385,-0.54597049951553,10.90866374969482,0.07336666435003,-0.12536041438580,9.77569770812988,0.15864177048206,-1.16283500194550,-0.77260214090347
671,879966139,-0.90311646461487,-0.54591971635818,10.90920257568359,0.09403132647276,-0.15893645584583,9.78219985961914,0.18253983557224,-1.08079254627228,-0.76033300161362
672,879974472,-0.90381228923798,-0.54584717750549,10.90892982482910,0.08844490349293,-0.14787071943283,9.79473876953125,0.14972800016403,-1.07779574394226,-0.86494141817093
673,879982805,-0.90344661474228,-0.54694080352783,10.90894985198975,0.07295184582472,-0.16131806373596,9.78531074523926,0.27631357312202,-1.21752142906189,-0.81466078758240
674,879991138,-0.90424108505249,-0.54679477214813,10.90801334381104,0.08560517430305,-0.15874986350536,9.76881027221680,0.13768930733204,-1.06806230545044,-0.94393581151962
675,879999471,-0.90378504991531,-0.54671949148178,10.90823650360107,0.08335923403502,-0.15759143233299,9.78531837463379,0.28743016719818,-1.07725787162781,-0.78674125671387
676,880007804,-0.90313255786896,-0.54616361856461,10.90874958038330,0.10390944033861,-0.15860025584698,9.78933811187744,0.31186610460281,-1.02185428142548,-0.76906734704971
677,880016137,-0.90331155061722,-0.54619145393372,10.90899276733398,0.09505406767130,-0.14847841858864,9.77647781372070,0.21294392645359,-1.08957827091217,-0.79665398597717
678,880024470,-0.90399324893951,-0.54532355070114,10.90872859954834,0.09531163424253,-0.16120362281799,9.76718521118164,0.14995853602886,-0.98228025436401,-0.86276423931122
679,880032803,-0.90437853336334,-0.54480004310608,10.90932846069336,0.09603407233953,-0.13586109876633,9.77855110168457,0.18691986799240,-1.02454376220703,-0.76427757740021
680,880041136,-0.90390384197235,-0.54437345266342,10.90947628021240,0.08473972976208,-0.14736287295818,9.78461742401123,0.29045262932777,-1.03563475608826,-0.81427645683289
681,880049469,-0.90308398008347,-0.54470664262772,10.90953540802002,0.09242178499699,-0.15557403862476,9.77313709259033,0.33333086967468,-1.12595045566559,-0.80582386255264
682,880057802,-0.90360295772552,-0.54462277889252,10.90987491607666,0.10123418271542,-0.15206943452358,9.76099872589111,0.17019377648830,-1.07741165161133,-0.79227393865585
683,880066135,-0.90358644723892,-0.54378485679626,10.90958404541016,0.10008980333805,-0.14692683517933,9.78301525115967,0.23520271480083,-0.98522597551346,-0.84934246540070
684,880074468,-0.90309542417526,-0.54372960329056,10.90939331054688,0.08641349524260,-0.15839254856110,9.79018211364746,0.29076001048088,-1.07976806163788,-0.85574591159821
685,880082801,-0.90355646610260,-0.54376339912415,10.90873050689697,0.09382390230894,-0.15406541526318,9.78134822845459,0.17869773507118,-1.08924543857574,-0.88620138168335
686,880091134,-0.90366905927658,-0.54392975568771,10.90875434875488,0.10316552221775,-0.16498778760433,9.77320098876953,0.21860466897488,-1.10689353942871,-0.83036226034164
687,880099467,-0.90366250276566,-0.54416263103485,10.90847396850586,0.10649152845144,-0.17500860989094,9.77051925659180,0.23420374095440,-1.11373245716095,-0.84050548076630
688,880107800,-0.90277361869812,-0.54447007179260,10.90855789184570,0.09692112356424,-0.13972394168377,9.78727054595947,0.33894035220146,-1.12392699718475,-0.82336956262589
689,880116133,-0.90280365943909,-0.54443883895874,10.90893554687500,0.10252169519663,-0.15257014334202,9.78627681732178,0.23025915026665,-1.08276498317719,-0.77613699436188
690,880124466,-0.90282028913498,-0.54411429166794,10.90916633605957,0.09899534285069,-0.14910817146301,9.75695705413818,0.23151427507401,-1.04908227920532,-0.80323690176010
691,880132799,-0.90305227041245,-0.54449975490570,10.90972423553467,0.11003224551678,-0.15016707777977,9.77744293212891,0.20595122873783,-1.13281500339508,-0.76927232742310
