sep=,
DeviceTag:,Xsens DOT
FirmwareVersion:,3.0.0
AppVersion:,2023.6.0
StartTime: ,2025-03-06_12:21:16_000 PST
© Movella Technologies B. V. 2005-2025

PacketCounter,SampleTimeFine,Euler_X,Euler_Y,Euler_Z,Acc_X,Acc_Y,Acc_Z,Gyr_X,Gyr_Y,Gyr_Z
0,699806679,-0.85929811000824,-0.60944539308548,8.54746150970459,0.00000000000000,0.00000000000000,0.00000000000000,0.00000000000000,0.00000000000000,0.00000000000000
1,699815012,-0.85946768522263,-0.60866069793701,8.54758358001709,0.08589133620262,-0.16655394434929,9.78423786163330,0.21490341424942,-0.98972129821777,-0.79797303676605
2,699823345,-0.85944247245789,-0.60841262340546,8.54812812805176,0.09180681407452,-0.17718337476254,9.77049732208252,0.24435980618000,-1.05846989154816,-0.82566213607788
3,699831678,-0.85909211635590,-0.60850340127945,8.54798030853271,0.10136999934912,-0.16542349755764,9.79305076599121,0.27883654832840,-1.09532856941223,-0.83314132690430
4,699840011,-0.85927289724350,-0.60869443416595,8.54830837249756,0.09025464206934,-0.16534544527531,9.77039051055908,0.21848942339420,-1.11028742790222,-0.87901645898819
5,699848344,-0.85830312967300,-0.60814994573593,8.54752731323242,0.09649900346994,-0.14239165186882,9.78121185302734,0.35096624493599,-1.01764070987701,-0.90560400485992
6,699856677,-0.85779345035553,-0.60865604877472,8.54785728454590,0.09582664072514,-0.14998081326485,9.79037475585938,0.30265781283379,-1.14909303188324,-0.83544665575027
7,699865010,-0.85894125699997,-0.60912436246872,8.54809951782227,0.10217124223709,-0.14724874496460,9.79347991943359,0.09825620800257,-1.14081954956055,-0.78490984439850
8,699873343,-0.85918736457825,-0.60889869928360,8.54849910736084,0.11913774907589,-0.14379359781742,9.77875137329102,0.21159918606281,-1.06018590927124,-0.83444768190384
9,699881676,-0.85929882526398,-0.60814374685287,8.54784107208252,0.08152095228434,-0.15385049581528,9.78278636932373,0.22256207466125,-0.99261558055878,-0.89169549942017
10,699890009,-0.85983371734619,-0.60891008377075,8.54835128784180,0.09537600725889,-0.15364307165146,9.75446796417236,0.17676383256912,-1.17983007431030,-0.83088731765747
11,699898342,-0.85960239171982,-0.60921120643616,8.54830932617188,0.09605553001165,-0.15690475702286,9.78767871856689,0.26439011096954,-1.12122476100922,-0.81841319799423
12,699906675,-0.85923755168915,-0.60949093103409,8.54921245574951,0.11418806761503,-0.15558893978596,9.79229927062988,0.28477907180786,-1.12132716178894,-0.78624182939529
13,699915008,-0.85872781276703,-0.60953056812286,8.54922294616699,0.09546175599098,-0.16379266977310,9.78400230407715,0.29717636108398,-1.09012901782990,-0.81119006872177
14,699923341,-0.85848319530487,-0.60994350910187,8.55023193359375,0.10766459256411,-0.16857105493546,9.78477478027344,0.27104982733727,-1.13733601570129,-0.78608804941177
15,699931674,-0.85885310173035,-0.61006009578705,8.55050945281982,0.10639144480228,-0.15454462170601,9.78662681579590,0.19264464080334,-1.09952926635742,-0.78047853708267
16,699940007,-0.85858148336411,-0.61057686805725,8.55112743377686,0.08900282531977,-0.17251941561699,9.78986740112305,0.27194631099701,-1.15027117729187,-0.81206089258194
17,699948340,-0.85885059833527,-0.61009031534195,8.55135822296143,0.07893162220716,-0.15145429968834,9.76958179473877,0.20463210344315,-1.02637517452240,-0.78539639711380
18,699956673,-0.85880583524704,-0.60951095819473,8.55189323425293,0.11483173817396,-0.15223395824432,9.79187679290771,0.24710050225258,-1.01851165294647,-0.81702995300293
19,699965006,-0.85887414216995,-0.60987031459808,8.55244064331055,0.09210722148418,-0.15159048140049,9.77523994445801,0.22876073420048,-1.12872970104218,-0.74922913312912
20,699973339,-0.85900592803955,-0.61009073257446,8.55263805389404,0.08775115013123,-0.14003153145313,9.78996753692627,0.22489297389984,-1.11297690868378,-0.87489259243011
21,699981672,-0.85921937227249,-0.60979264974594,8.55283069610596,0.09394550323486,-0.16755563020706,9.77775764465332,0.21090762317181,-1.05024766921997,-0.79080110788345
22,699990005,-0.85961669683456,-0.60966426134109,8.55324840545654,0.07888870686293,-0.17782682180405,9.78252124786377,0.19290079176426,-1.07155871391296,-0.84379690885544
23,699998338,-0.85946428775787,-0.60948294401169,8.55254650115967,0.10099805891514,-0.15314920246601,9.77659225463867,0.25365775823593,-1.06087756156921,-0.89745867252350
24,700006671,-0.85975974798203,-0.61070728302002,8.55335235595703,0.07206489145756,-0.16714048385620,9.77813625335693,0.20591281354427,-1.23525929450989,-0.80496573448181
25,700015004,-0.85980230569839,-0.61060541868210,8.55369472503662,0.09299410879612,-0.17243358492851,9.77171325683594,0.23178319633007,-1.07263445854187,-0.77374196052551
26,700023337,-0.86011242866516,-0.61089271306992,8.55395698547363,0.09426731616259,-0.15711934864521,9.80750656127930,0.20209631323814,-1.12201869487762,-0.86433953046799
27,700031670,-0.85986167192459,-0.61039465665817,8.55377197265625,0.09450335800648,-0.15089637041092,9.78354454040527,0.26754063367844,-1.02419793605804,-0.83606135845184
28,700040003,-0.86011826992035,-0.61030489206314,8.55470466613770,0.08429631590843,-0.15641149878502,9.77420997619629,0.21075391769409,-1.07888436317444,-0.78867512941360
29,700048336,-0.85949617624283,-0.61082166433334,8.55408096313477,0.09887374937534,-0.14691224694252,9.77795028686523,0.30903571844101,-1.14455926418304,-0.88967198133469
30,700056669,-0.85921233892441,-0.61089289188385,8.55465507507324,0.09206432849169,-0.17234806716442,9.79921627044678,0.27522495388985,-1.09619963169098,-0.83206558227539
31,700065002,-0.85955828428268,-0.61009883880615,8.55507469177246,0.08413889259100,-0.15297785401344,9.79297161102295,0.19538538157940,-0.98966997861862,-0.76195943355560
32,700073335,-0.85927611589432,-0.61009067296982,8.55516529083252,0.10589068382978,-0.16406476497650,9.79665565490723,0.27425163984299,-1.08661985397339,-0.89036369323730
33,700081668,-0.85892969369888,-0.60976439714432,8.55494785308838,0.09334468841553,-0.13764245808125,9.77478218078613,0.27817061543465,-1.04494547843933,-0.83908390998840
34,700090001,-0.85908281803131,-0.60992592573166,8.55489158630371,0.10413108766079,-0.15608933568001,9.76718521118164,0.22133259475231,-1.10700881481171,-0.89315551519394
35,700098334,-0.85899263620377,-0.60966247320175,8.55432033538818,0.10310100018978,-0.16258381307125,9.77515411376953,0.24712608754635,-1.05083680152893,-0.88242316246033
36,700106667,-0.85880208015442,-0.60948419570923,8.55569362640381,0.11081176996231,-0.16018052399158,9.77724266052246,0.26482555270195,-1.06958627700806,-0.70816951990128
37,700115000,-0.85918700695038,-0.60919743776321,8.55560111999512,0.08866658061743,-0.15712621808052,9.77428150177002,0.18990394473076,-1.04935121536255,-0.82486802339554
38,700123333,-0.85874307155609,-0.60902994871140,8.55698204040527,0.10544013977051,-0.16983020305634,9.76734256744385,0.29466617107391,-1.06871545314789,-0.71610999107361
39,700131666,-0.85879009962082,-0.60934698581696,8.55753517150879,0.08052676916122,-0.16552421450615,9.80348587036133,0.23170635104179,-1.12445199489594,-0.74769234657288
40,700139999,-0.85903066396713,-0.60976195335388,8.55811977386475,0.10223558545113,-0.15046004951000,9.77606201171875,0.21190655231476,-1.13805317878723,-0.81654334068298
41,700148332,-0.85842007398605,-0.61012327671051,8.55790805816650,0.11889455467463,-0.16521637141705,9.78948783874512,0.31067505478859,-1.12680852413177,-0.84005731344223
42,700156665,-0.85808247327805,-0.61014693975449,8.55808067321777,0.09789381176233,-0.15394347906113,9.80599021911621,0.28014290332794,-1.09123051166534,-0.87268984317780
43,700164998,-0.85856699943542,-0.61041086912155,8.55753993988037,0.09107714891434,-0.15525960922241,9.76026916503906,0.17727611958981,-1.11471879482269,-0.88019472360611
44,700173331,-0.85832411050797,-0.61101961135864,8.55806255340576,0.08733621239662,-0.16729784011841,9.80587577819824,0.26948738098145,-1.16010713577271,-0.84835624694824
45,700181664,-0.85885870456696,-0.61126786470413,8.55826854705811,0.09320874512196,-0.13870108127594,9.76088428497314,0.17371577024460,-1.11566650867462,-0.78964847326279
46,700189997,-0.85944062471390,-0.61193406581879,8.55882263183594,0.09345194697380,-0.17406475543976,9.78536128997803,0.16984800994396,-1.16663885116577,-0.82671231031418
47,700198330,-0.85943347215652,-0.61230796575546,8.55881404876709,0.10033293068409,-0.15347854793072,9.77084827423096,0.23752079904079,-1.13039445877075,-0.81623595952988
48,700206663,-0.85938721895218,-0.61276817321777,8.55866718292236,0.09162800014019,-0.16734111309052,9.80272102355957,0.24546121060848,-1.14212584495544,-0.90637248754501
49,700214996,-0.85972255468369,-0.61251240968704,8.55836582183838,0.08746496587992,-0.16008062660694,9.79874420166016,0.19664046168327,-1.05329573154449,-0.85109686851501
50,700223329,-0.86059099435806,-0.61261636018753,8.55932807922363,0.09571934491396,-0.16274863481522,9.78960227966309,0.13585790991783,-1.10116875171661,-0.77274304628372
51,700231662,-0.86015748977661,-0.61289322376251,8.55919075012207,0.10682779550552,-0.16888609528542,9.77553272247314,0.28941524028778,-1.11715209484100,-0.83163011074066
52,700239995,-0.86026483774185,-0.61265242099762,8.55978775024414,0.08320902287960,-0.14550313353539,9.77813625335693,0.22719827294350,-1.05972492694855,-0.82023179531097
53,700248328,-0.86038714647293,-0.61272174119949,8.55929279327393,0.08970387279987,-0.14402282238007,9.76857280731201,0.22130697965622,-1.09046196937561,-0.87345820665359
54,700256661,-0.86012876033783,-0.61281472444534,8.56080341339111,0.08262971043587,-0.15314978361130,9.76818656921387,0.27432844042778,-1.10186028480530,-0.70455795526505
55,700264994,-0.86049777269363,-0.61304217576981,8.56081581115723,0.08084142953157,-0.16784146428108,9.77056217193604,0.19123589992523,-1.11154258251190,-0.81339287757874
56,700273327,-0.86080300807953,-0.61319321393967,8.56165122985840,0.08100600540638,-0.15048180520535,9.78380870819092,0.20419666171074,-1.10754656791687,-0.79715329408646
57,700281660,-0.86103862524033,-0.61318153142929,8.56130123138428,0.10591214895248,-0.15506647527218,9.79007434844971,0.20742408931255,-1.08172762393951,-0.85698831081390
58,700289993,-0.86086910963058,-0.61287057399750,8.56173801422119,0.09199986606836,-0.14868614077568,9.77854442596436,0.26226416230202,-1.04968416690826,-0.85560518503189
59,700298326,-0.86075568199158,-0.61321395635605,8.56177902221680,0.09297987818718,-0.15263482928276,9.80229187011719,0.25012299418449,-1.12621939182281,-0.81001180410385
60,700306659,-0.86142396926880,-0.61356556415558,8.56250667572021,0.10382351279259,-0.16520206630230,9.77287960052490,0.15983282029629,-1.13044595718384,-0.79520672559738
61,700314992,-0.86158144474030,-0.61253982782364,8.56197643280029,0.09272945672274,-0.15051011741161,9.79992389678955,0.21738800406456,-0.96070039272308,-0.87438040971756
62,700323325,-0.86196225881577,-0.61227130889893,8.56242465972900,0.08048378676176,-0.15254868566990,9.77010440826416,0.19446328282356,-1.05508863925934,-0.85619419813156
63,700331658,-0.86173266172409,-0.61230605840683,8.56160926818848,0.09172090888023,-0.15839970111847,9.77299404144287,0.26326310634613,-1.08779811859131,-0.91308349370956
64,700339991,-0.86170840263367,-0.61231356859207,8.56237030029297,0.09366640448570,-0.15840657055378,9.78365898132324,0.24292539060116,-1.08874583244324,-0.80678433179855
65,700348324,-0.86100012063980,-0.61184269189835,8.56258296966553,0.09589111059904,-0.17829920351505,9.80678367614746,0.32286745309830,-1.02880847454071,-0.78818839788437
66,700356657,-0.86171102523804,-0.61093813180923,8.56395721435547,0.08301589637995,-0.17165392637253,9.78359413146973,0.15693840384483,-0.98037195205688,-0.73150414228439
67,700364990,-0.86236643791199,-0.61202770471573,8.56396961212158,0.09458209574223,-0.16358585655689,9.75334453582764,0.15678472816944,-1.21545934677124,-0.81492960453033
68,700373323,-0.86267745494843,-0.61248499155045,8.56558418273926,0.09154918044806,-0.16402158141136,9.78302288055420,0.20581038296223,-1.14489233493805,-0.69446587562561
69,700381656,-0.86268454790115,-0.61277252435684,8.56552600860596,0.10367330908775,-0.16935071349144,9.76357364654541,0.23506183922291,-1.11909878253937,-0.82120513916016
70,700389989,-0.86250251531601,-0.61353254318237,8.56574249267578,0.08112762868404,-0.15768477320671,9.78432369232178,0.26187995076180,-1.17857503890991,-0.87596833705902
71,700398322,-0.86280465126038,-0.61389899253845,8.56614303588867,0.08562674373388,-0.15028153359890,9.79327869415283,0.20078998804092,-1.12960064411163,-0.76644188165665
72,700406655,-0.86287230253220,-0.61362195014954,8.56700515747070,0.10008979588747,-0.14791391789913,9.77527523040771,0.23344810307026,-1.05547285079956,-0.78585743904114
73,700414988,-0.86365169286728,-0.61380326747894,8.56647396087646,0.10237143933773,-0.17616705596447,9.76413154602051,0.14215901494026,-1.10542070865631,-0.87665998935699
74,700423321,-0.86390215158463,-0.61379808187485,8.56726646423340,0.09795818477869,-0.15914359688759,9.75393867492676,0.21098443865776,-1.08713209629059,-0.82184559106827
75,700431654,-0.86324584484100,-0.61418312788010,8.56665611267090,0.08696426451206,-0.15568877756596,9.75764369964600,0.31385123729706,-1.12870407104492,-0.88782775402069
76,700439987,-0.86305195093155,-0.61345875263214,8.56781196594238,0.10602658987045,-0.16457976400852,9.79282855987549,0.26572206616402,-1.00250279903412,-0.75734889507294
77,700448320,-0.86306667327881,-0.61273747682571,8.56772899627686,0.11089059710503,-0.15606816112995,9.78575420379639,0.23454955220222,-0.99924963712692,-0.82174313068390
78,700456653,-0.86316001415253,-0.61243921518326,8.56872272491455,0.08076268434525,-0.16745492815971,9.78836536407471,0.22922179102898,-1.05247604846954,-0.77968448400497
79,700464986,-0.86313945055008,-0.61289036273956,8.56801414489746,0.08828753978014,-0.14844295382500,9.78566837310791,0.23931379616261,-1.13710534572601,-0.90045553445816
80,700473319,-0.86306071281433,-0.61326968669891,8.56862354278564,0.10109820961952,-0.15321359038353,9.74386119842529,0.24994370341301,-1.13410854339600,-0.81649208068848
81,700481652,-0.86257416009903,-0.61299175024033,8.56868362426758,0.08253665268421,-0.16990147531033,9.77481079101562,0.29453805088997,-1.05106723308563,-0.80711734294891
82,700489985,-0.86266243457794,-0.61346352100372,8.56916618347168,0.08984693139791,-0.17106056213379,9.75063419342041,0.23014388978481,-1.14537882804871,-0.84118425846100
83,700498318,-0.86282199621201,-0.61371648311615,8.56953716278076,0.08816593885422,-0.16436517238617,9.78714179992676,0.21761852502823,-1.11533355712891,-0.77038651704788
84,700506651,-0.86325496435165,-0.61415469646454,8.56921577453613,0.09711421281099,-0.15143319964409,9.79139041900635,0.18898183107376,-1.13830935955048,-0.93142318725586
85,700514984,-0.86273938417435,-0.61360293626785,8.56936836242676,0.10140585154295,-0.15395063161850,9.79274940490723,0.29758617281914,-1.01928007602692,-0.79441267251968
86,700523317,-0.86335438489914,-0.61309659481049,8.57040500640869,0.10400948673487,-0.15774165093899,9.76235771179199,0.16843922436237,-1.02809143066406,-0.75089412927628
87,700531650,-0.86352390050888,-0.61370885372162,8.57071399688721,0.09550476074219,-0.15018823742867,9.77212142944336,0.21631219983101,-1.15862143039703,-0.77748167514801
88,700539983,-0.86297708749771,-0.61329263448715,8.57121849060059,0.09115582704544,-0.15350000560284,9.81056022644043,0.30629497766495,-1.03805518150330,-0.84279799461365
89,700548316,-0.86329394578934,-0.61394304037094,8.57050323486328,0.10719243437052,-0.14837107062340,9.79443836212158,0.19786997139454,-1.16074752807617,-0.90063494443893
90,700556649,-0.86315363645554,-0.61357730627060,8.57074451446533,0.09828721731901,-0.16970835626125,9.78777885437012,0.25732064247131,-1.04451000690460,-0.86961609125137
91,700564982,-0.86378842592239,-0.61407661437988,8.57090091705322,0.09963915497065,-0.14426600933075,9.76099109649658,0.15952545404434,-1.14435434341431,-0.79546284675598
92,700573315,-0.86397314071655,-0.61423468589783,8.57209110260010,0.08732905983925,-0.16944369673729,9.78011798858643,0.22030802071095,-1.10790526866913,-0.75504362583160
93,700581648,-0.86471968889236,-0.61408257484436,8.57195472717285,0.09730011969805,-0.13663360476494,9.77402400970459,0.14653903245926,-1.06725537776947,-0.82983714342117
94,700589981,-0.86497426033020,-0.61398535966873,8.57201766967773,0.10019702464342,-0.17266963422298,9.76574802398682,0.20921704173088,-1.07570815086365,-0.87110167741776
95,700598314,-0.86460959911346,-0.61549425125122,8.57153511047363,0.11363016068935,-0.15216280519962,9.80120563507080,0.28119304776192,-1.26456189155579,-0.87555855512619
96,700606647,-0.86536240577698,-0.61575156450272,8.57196807861328,0.09545469284058,-0.15191923081875,9.78814315795898,0.15020187199116,-1.11779236793518,-0.84763902425766
97,700614980,-0.86533939838409,-0.61610263586044,8.57160472869873,0.08549785614014,-0.13914392888546,9.76765155792236,0.23759762942791,-1.12673175334930,-0.85780787467957
98,700623313,-0.86571437120438,-0.61622124910355,8.57304477691650,0.11875155568123,-0.16013097763062,9.76058387756348,0.19725520908833,-1.10352516174316,-0.75079160928726
99,700631646,-0.86553949117661,-0.61573958396912,8.57326507568359,0.10629124939442,-0.15212666988373,9.78405189514160,0.25875499844551,-1.02650332450867,-0.78647220134735
100,700639979,-0.86517268419266,-0.61574810743332,8.57283592224121,0.08918164670467,-0.14088238775730,9.79334354400635,0.28339588642120,-1.08751630783081,-0.93208914995193
101,700648312,-0.86471575498581,-0.61522674560547,8.57301235198975,0.10214250534773,-0.15412203967571,9.78736400604248,0.29136192798615,-1.02358329296112,-0.79139018058777
102,700656645,-0.86491233110428,-0.61506795883179,8.57370376586914,0.09313716739416,-0.16490879654884,9.79462432861328,0.21674765646458,-1.06856179237366,-0.81431490182877
103,700664978,-0.86449927091599,-0.61438846588135,8.57435131072998,0.10177779942751,-0.15480898320675,9.79593276977539,0.28721240162849,-1.00339925289154,-0.73583292961121
104,700673311,-0.86534106731415,-0.61419683694839,8.57390499114990,0.08134928345680,-0.17141787707806,9.81100368499756,0.13946950435638,-1.06418180465698,-0.93695586919785
105,700681644,-0.86590290069580,-0.61489087343216,8.57510471343994,0.08458236604929,-0.16422212123871,9.77531147003174,0.17069329321384,-1.17009663581848,-0.67120826244354
106,700689977,-0.86514818668365,-0.61519759893417,8.57608509063721,0.08652088046074,-0.14629739522934,9.75452518463135,0.33042362332344,-1.12580966949463,-0.78383398056030
107,700698310,-0.86520481109619,-0.61445653438568,8.57546234130859,0.09260070323944,-0.15678316354752,9.79703426361084,0.23045125603676,-0.99420374631882,-0.88711047172546
108,700706643,-0.86552006006241,-0.61394554376602,8.57565402984619,0.10036154091358,-0.13838605582714,9.74549770355225,0.20204509794712,-1.02663147449493,-0.88104009628296
109,700714976,-0.86546123027802,-0.61333870887756,8.57555675506592,0.08677821606398,-0.16068834066391,9.76545524597168,0.24415488541126,-1.01133966445923,-0.82443249225616
110,700723309,-0.86613094806671,-0.61403381824493,8.57631683349609,0.08556235581636,-0.16392201185226,9.76575469970703,0.15978159010410,-1.17214572429657,-0.78975093364716
111,700731642,-0.86654347181320,-0.61398988962173,8.57663249969482,0.08767949044704,-0.15941514074802,9.79827213287354,0.18767549097538,-1.08011388778687,-0.77650833129883
112,700739975,-0.86717349290848,-0.61403059959412,8.57737255096436,0.11774294823408,-0.14500959217548,9.77395915985107,0.16626198589802,-1.09351015090942,-0.78887999057770
113,700748308,-0.86776578426361,-0.61344802379608,8.57731533050537,0.11355848610401,-0.17104566097260,9.76572704315186,0.16493006050587,-1.01438784599304,-0.82064169645309
114,700756641,-0.86770522594452,-0.61354202032089,8.57899665832520,0.08957505226135,-0.16019506752491,9.77817249298096,0.24925212562084,-1.10219335556030,-0.68726837635040
115,700764974,-0.86757874488831,-0.61327964067459,8.57905960083008,0.08966796845198,-0.17060218751431,9.75897502899170,0.25237703323364,-1.05408966541290,-0.80514496564865
116,700773307,-0.86781263351440,-0.61347222328186,8.58019828796387,0.10171342641115,-0.15496633946896,9.76722812652588,0.21369956433773,-1.11146557331085,-0.75399339199066
117,700781640,-0.86739462614059,-0.61306464672089,8.57997703552246,0.10081216692924,-0.15014532208443,9.79861545562744,0.28654640913010,-1.03569865226746,-0.84000599384308
118,700789973,-0.86797881126404,-0.61308956146240,8.58061790466309,0.08827323466539,-0.15914359688759,9.80674076080322,0.17107747495174,-1.09133291244507,-0.81377702951431
119,700798306,-0.86809432506561,-0.61343181133270,8.58093643188477,0.09705685824156,-0.15638947486877,9.80021762847900,0.22297193109989,-1.12662923336029,-0.77522766590118
120,700806639,-0.86841470003128,-0.61396974325180,8.58244514465332,0.09226451814175,-0.16771270334721,9.79379463195801,0.20337702333927,-1.15367782115936,-0.72282093763351
121,700814972,-0.86860424280167,-0.61464476585388,8.58239650726318,0.10109828412533,-0.15038852393627,9.76040458679199,0.21408377587795,-1.16663861274719,-0.82035988569260
122,700823305,-0.86873084306717,-0.61471122503281,8.58318424224854,0.08375263959169,-0.16445101797581,9.76576232910156,0.22602000832558,-1.09561049938202,-0.81357216835022
123,700831638,-0.86874192953110,-0.61394816637039,8.58270740509033,0.09291543066502,-0.16138243675232,9.77620506286621,0.23447269201279,-0.99317908287048,-0.86920619010925
124,700839971,-0.86914676427841,-0.61412292718887,8.58340072631836,0.09403842687607,-0.15864290297031,9.80146217346191,0.19254219532013,-1.10905790328979,-0.79766565561295
125,700848304,-0.86975634098053,-0.61351889371872,8.58351039886475,0.07932502776384,-0.16160418093204,9.77501773834229,0.16405917704105,-1.01228737831116,-0.79979169368744
126,700856637,-0.86910516023636,-0.61337590217590,8.58447647094727,0.08346644043922,-0.16910724341869,9.75134277343750,0.31879475712776,-1.07178914546967,-0.77143669128418
127,700864970,-0.86906147003174,-0.61292362213135,8.58436870574951,0.10561180114746,-0.15047463774681,9.76048374176025,0.24149101972580,-1.03093445301056,-0.82555955648422
128,700873303,-0.86934685707092,-0.61296981573105,8.58399105072021,0.08852351456881,-0.14570307731628,9.77150630950928,0.20563106238842,-1.09146094322205,-0.93244773149490
129,700881636,-0.86889886856079,-0.61263632774353,8.58442974090576,0.09763630479574,-0.16587442159653,9.77142047882080,0.29218158125877,-1.04614949226379,-0.76190829277039
130,700889969,-0.86885094642639,-0.61260384321213,8.58442783355713,0.09739319235086,-0.15556751191616,9.76300811767578,0.24548684060574,-1.08359742164612,-0.88175731897354
131,700898302,-0.86943078041077,-0.61328756809235,8.58412742614746,0.08398147672415,-0.17258346080780,9.81120491027832,0.16626198589802,-1.16640818119049,-0.85099452733994
132,700906635,-0.86933213472366,-0.61394548416138,8.58543300628662,0.09828006476164,-0.15742692351341,9.78975296020508,0.25337600708008,-1.16779136657715,-0.74684709310532
133,700914968,-0.86917519569397,-0.61423552036285,8.58577346801758,0.08282992243767,-0.16975127160549,9.78757095336914,0.25660341978073,-1.12053310871124,-0.77264058589935
134,700923301,-0.86932355165482,-0.61416316032410,8.58629989624023,0.09134180098772,-0.15086060762405,9.76994705200195,0.22343297302723,-1.07978093624115,-0.82202488183975
135,700931634,-0.86946994066238,-0.61480599641800,8.58638191223145,0.10270058363676,-0.17514482140541,9.78405952453613,0.21900172531605,-1.16220736503601,-0.80412048101425
136,700939967,-0.86971127986908,-0.61474347114563,8.58722591400146,0.09758623689413,-0.15711934864521,9.76955318450928,0.21203462779522,-1.08154821395874,-0.79989409446716
137,700948300,-0.87040215730667,-0.61493325233459,8.58681678771973,0.11406633257866,-0.14664012193680,9.75598526000977,0.15365979075432,-1.10575366020203,-0.86336618661880
138,700956633,-0.87052911520004,-0.61459678411484,8.58756065368652,0.10424553602934,-0.15775595605373,9.77499675750732,0.22543087601662,-1.04917168617249,-0.79784494638443
139,700964966,-0.87034291028976,-0.61398613452911,8.58774089813232,0.11777871102095,-0.17229053378105,9.77013301849365,0.25885745882988,-1.01100659370422,-0.79023748636246
140,700973299,-0.86934518814087,-0.61418968439102,8.58837509155273,0.08966088294983,-0.14645445346832,9.76954650878906,0.36116072535515,-1.11341238021851,-0.82983726263046
141,700981632,-0.87006980180740,-0.61421293020248,8.58866882324219,0.10071203112602,-0.15973013639450,9.78687000274658,0.15050923824310,-1.08764445781708,-0.77863430976868
142,700989965,-0.86986011266708,-0.61506271362305,8.58929538726807,0.09407410770655,-0.15491594374180,9.77041912078857,0.26449257135391,-1.18971717357635,-0.83472949266434
143,700998298,-0.86915701627731,-0.61482822895050,8.58893966674805,0.11174886673689,-0.17003023624420,9.79114055633545,0.32179161906242,-1.05706095695496,-0.85604053735733
144,701006631,-0.86973440647125,-0.61444252729416,8.59002590179443,0.09408849477768,-0.16887861490250,9.77602672576904,0.17166662216187,-1.04230725765228,-0.74774354696274
145,701014964,-0.86992347240448,-0.61492323875427,8.58929634094238,0.10105543583632,-0.15156194567680,9.78292942047119,0.21390447020531,-1.14105010032654,-0.90099352598190
146,701023297,-0.86954241991043,-0.61429423093796,8.58992099761963,0.09432445466518,-0.16868522763252,9.76857376098633,0.28703311085701,-1.01331198215485,-0.81021660566330
147,701031630,-0.86919760704041,-0.61521416902542,8.58983230590820,0.11668432503939,-0.14778488874435,9.77423858642578,0.27758148312569,-1.19458389282227,-0.82579010725021
148,701039963,-0.86914443969727,-0.61550581455231,8.59092235565186,0.09928861260414,-0.15998764336109,9.79861545562744,0.24686998128891,-1.12473380565643,-0.77369081974030
149,701048296,-0.86919134855270,-0.61534512042999,8.59138107299805,0.11332964152098,-0.16125369071960,9.76807212829590,0.23265409469604,-1.06561625003815,-0.75903946161270
150,701056629,-0.86887288093567,-0.61488240957260,8.59254741668701,0.10825112462044,-0.16389308869839,9.74280166625977,0.27929762005806,-1.03372645378113,-0.75860399007797
151,701064962,-0.86905837059021,-0.61488306522369,8.59263896942139,0.10137724131346,-0.15760573744774,9.78145599365234,0.21518521010876,-1.08585143089294,-0.80204570293427
152,701073295,-0.86911070346832,-0.61436235904694,8.59324836730957,0.10214252024889,-0.15361417829990,9.80551815032959,0.23421655595303,-1.02565789222717,-0.81311106681824
153,701081628,-0.86891174316406,-0.61399245262146,8.59348392486572,0.10181363672018,-0.15505960583687,9.77061939239502,0.26126518845558,-1.04192292690277,-0.78388518095016
154,701089961,-0.86858695745468,-0.61437636613846,8.59466743469238,0.09581232815981,-0.15307798981667,9.77890205383301,0.28045022487640,-1.13495385646820,-0.74771791696548
155,701098294,-0.86940795183182,-0.61360120773315,8.59489345550537,0.09257209300995,-0.16481581330299,9.81081104278564,0.13841931521893,-0.99102747440338,-0.78508907556534
156,701106627,-0.86880862712860,-0.61294418573380,8.59527778625488,0.11574739962816,-0.16053155064583,9.79569721221924,0.31280100345612,-1.00977706909180,-0.85360717773438
157,701114960,-0.87035506963730,-0.61274230480194,8.59520816802979,0.10966736823320,-0.16366390883923,9.81828594207764,0.05074179172516,-1.06003224849701,-0.82176864147186
158,701123293,-0.87066388130188,-0.61239844560623,8.59598255157471,0.08313754945993,-0.16289196908474,9.79357242584229,0.20381245017052,-1.04891574382782,-0.79246598482132
159,701131626,-0.87123394012451,-0.61253935098648,8.59585857391357,0.09291543066502,-0.16787007451057,9.76120567321777,0.16892588138580,-1.10116875171661,-0.82983714342117
160,701139959,-0.87210631370544,-0.61230832338333,8.59665489196777,0.10174203664064,-0.15432257950306,9.77164936065674,0.13718985021114,-1.06087756156921,-0.81354653835297
161,701148292,-0.87169378995895,-0.61216467618942,8.59662437438965,0.09962479770184,-0.14594660699368,9.77083396911621,0.28454852104187,-1.06763970851898,-0.81705564260483
162,701156625,-0.87217372655869,-0.61156809329987,8.59729576110840,0.11001788079739,-0.16910751163960,9.76677799224854,0.18396143615246,-1.01702606678009,-0.81126695871353
163,701164958,-0.87143397331238,-0.61174768209457,8.59790325164795,0.10497512668371,-0.17871378362179,9.77934551239014,0.32629972696304,-1.10690629482269,-0.74198031425476
164,701173291,-0.87103211879730,-0.61238485574722,8.59827709197998,0.11257144063711,-0.15055303275585,9.77459621429443,0.28905662894249,-1.16410279273987,-0.86241841316223
165,701181624,-0.87170463800430,-0.61268758773804,8.59756565093994,0.10862307250500,-0.14774912595749,9.76582622528076,0.15440258383751,-1.12078917026520,-0.89935415983200
166,701189957,-0.87202239036560,-0.61244302988052,8.59816837310791,0.09607705473900,-0.14892964065075,9.74886035919189,0.20276229083538,-1.05911016464233,-0.81679952144623
167,701198290,-0.87204307317734,-0.61216193437576,8.59797382354736,0.09014727920294,-0.15859283506870,9.77313709259033,0.23490813374519,-1.04986333847046,-0.83780312538147
168,701206623,-0.87269896268845,-0.61176025867462,8.59844684600830,0.08926747739315,-0.14093247056007,9.80119037628174,0.16162580251694,-1.04087281227112,-0.82681465148926
169,701214956,-0.87347424030304,-0.61136835813522,8.59899616241455,0.10692069679499,-0.15155443549156,9.80124759674072,0.14551445841789,-1.03918230533600,-0.74623233079910
170,701223289,-0.87413752079010,-0.61099785566330,8.59975528717041,0.10403099656105,-0.15207687020302,9.78854370117188,0.16103671491146,-1.04384410381317,-0.80299347639084
171,701231622,-0.87465608119965,-0.61056101322174,8.59977436065674,0.08679259568453,-0.14551028609276,9.77932357788086,0.17504768073559,-1.03244578838348,-0.81167662143707
172,701239955,-0.87501281499863,-0.61060053110123,8.60106945037842,0.07548400759697,-0.16833528876305,9.76978969573975,0.19966295361519,-1.09484195709229,-0.74976706504822
173,701248288,-0.87548089027405,-0.61162728071213,8.60102844238281,0.09911700338125,-0.15000261366367,9.77770709991455,0.17888982594013,-1.20780098438263,-0.82061600685120
174,701256621,-0.87542402744293,-0.61203378438950,8.60198688507080,0.08682128041983,-0.14616864919662,9.78578281402588,0.24973876774311,-1.13815557956696,-0.78665155172348
175,701264954,-0.87510544061661,-0.61180436611176,8.60158729553223,0.10589775443077,-0.15552395582199,9.75811672210693,0.27325266599655,-1.05688178539276,-0.86149638891220
176,701273287,-0.87521493434906,-0.61103707551956,8.60190010070801,0.08843052387238,-0.13875772058964,9.78512573242188,0.22778737545013,-0.99574053287506,-0.84766465425491
177,701281620,-0.87540531158447,-0.61174058914185,8.60148143768311,0.09710706025362,-0.15352180600166,9.79934501647949,0.21326410770416,-1.16804754734039,-0.86464691162109
178,701289953,-0.87623286247253,-0.61139655113220,8.60248184204102,0.09217153489590,-0.15835678577423,9.75199985504150,0.14226146042347,-1.04855716228485,-0.76277917623520
179,701298286,-0.87611466646194,-0.61175775527954,8.60249996185303,0.10410255193710,-0.14581102132797,9.79651927947998,0.25186476111412,-1.12893450260162,-0.81229144334793
180,701306619,-0.87592655420303,-0.61104303598404,8.60304927825928,0.10320113599300,-0.15209777653217,9.76527595520020,0.26293009519577,-1.00186228752136,-0.84295165538788
181,701314952,-0.87574034929276,-0.61056590080261,8.60375595092773,0.09585525095463,-0.16811326146126,9.78912353515625,0.25985640287399,-1.02891099452972,-0.72860962152481
182,701323285,-0.87577128410339,-0.61061400175095,8.60447883605957,0.10706375539303,-0.16552393138409,9.80910873413086,0.23723904788494,-1.09512376785278,-0.77722549438477
183,701331618,-0.87564355134964,-0.61039119958878,8.60480022430420,0.09270084649324,-0.16468705236912,9.76970386505127,0.25224900245667,-1.05903339385986,-0.77553498744965
184,701339951,-0.87546783685684,-0.60989958047867,8.60585784912109,0.09774360060692,-0.16000194847584,9.76396656036377,0.26346802711487,-1.02980744838715,-0.76119095087051
185,701348284,-0.87533503770828,-0.60991805791855,8.60575962066650,0.11489611864090,-0.15325681865215,9.76552581787109,0.25227457284927,-1.08646619319916,-0.82625108957291
186,701356617,-0.87504047155380,-0.61070549488068,8.60694026947021,0.09121305495501,-0.15553857386112,9.77844429016113,0.27701795101166,-1.18449199199677,-0.73859924077988
187,701364950,-0.87451553344727,-0.61118751764297,8.60644340515137,0.09507558494806,-0.16273432970047,9.78341579437256,0.30012199282646,-1.14192092418671,-0.87243354320526
188,701373283,-0.87439715862274,-0.61169141530991,8.60654258728027,0.10500365495682,-0.16103161871433,9.79181385040283,0.25470796227455,-1.14819645881653,-0.86559462547302
189,701381616,-0.87498581409454,-0.61200076341629,8.60652637481689,0.09468217939138,-0.14951588213444,9.75882434844971,0.16587780416012,-1.12199318408966,-0.81641536951065
190,701389949,-0.87520927190781,-0.61196374893188,8.60717201232910,0.07147113978863,-0.13829991221428,9.79168510437012,0.21298235654831,-1.08451938629150,-0.82722443342209
191,701398282,-0.87441152334213,-0.61154824495316,8.60650730133057,0.09466072171926,-0.15617516636848,9.77543258666992,0.33321556448936,-1.03341901302338,-0.89266884326935
192,701406615,-0.87432974576950,-0.61192727088928,8.60731697082520,0.10277920216322,-0.16372857987881,9.78045368194580,0.25068655610085,-1.13518440723419,-0.80094426870346
193,701414948,-0.87451833486557,-0.61198198795319,8.60743904113770,0.09339460730553,-0.16095298528671,9.78019714355469,0.21518518030643,-1.09107673168182,-0.80030393600464
194,701423281,-0.87420880794525,-0.61171114444733,8.60762500762939,0.08147803694010,-0.17429332435131,9.78679847717285,0.27688986063004,-1.05606210231781,-0.86830985546112
195,701431614,-0.87439811229706,-0.61064213514328,8.60758972167969,0.09129160642624,-0.14967985451221,9.80250549316406,0.21336656808853,-0.95614087581635,-0.81656897068024
196,701439947,-0.87520003318787,-0.61058783531189,8.60768890380859,0.07745813578367,-0.16717624664307,9.79145526885986,0.14451551437378,-1.08031880855560,-0.88290983438492
197,701448280,-0.87535369396210,-0.61080080270767,8.60821628570557,0.09967486560345,-0.15621094405651,9.78938102722168,0.21946278214455,-1.11159372329712,-0.75181627273560
198,701456613,-0.87516874074936,-0.61104023456573,8.60913467407227,0.10035431385040,-0.15325652062893,9.76148509979248,0.26436451077461,-1.11853516101837,-0.77240997552872
199,701464946,-0.87483239173889,-0.61088943481445,8.60946846008301,0.11445979028940,-0.17633903026581,9.77546882629395,0.27773514389992,-1.06751167774200,-0.77381885051727
200,701473279,-0.87484711408615,-0.61059433221817,8.60987091064453,0.09679227322340,-0.13921578228474,9.81010246276855,0.23757201433182,-1.05265545845032,-0.83887898921967
201,701481612,-0.87469530105591,-0.61005419492722,8.61052799224854,0.08242922276258,-0.15274129807949,9.75831508636475,0.25698763132095,-1.02281486988068,-0.73398870229721
202,701489945,-0.87441998720169,-0.60930073261261,8.61034107208252,0.08957505226135,-0.15347854793072,9.77966022491455,0.27248421311378,-0.99576616287231,-0.89241284132004
203,701498278,-0.87488889694214,-0.61000615358353,8.61006259918213,0.09041903167963,-0.15488733351231,9.74691486358643,0.18142561614513,-1.16932833194733,-0.84971380233765
204,701506611,-0.87428492307663,-0.61024993658066,8.60980319976807,0.10704229772091,-0.15862144529819,9.78872299194336,0.31152030825615,-1.11692154407501,-0.91385179758072
205,701514944,-0.87433183193207,-0.61007171869278,8.60969066619873,0.08975387364626,-0.16539518535137,9.80214881896973,0.23198813199997,-1.06349015235901,-0.82689154148102
206,701523277,-0.87423533201218,-0.60960143804550,8.61094284057617,0.10275059193373,-0.15624670684338,9.79703426361084,0.25253075361252,-1.03380334377289,-0.74208277463913
207,701531610,-0.87395572662354,-0.60902041196823,8.61133956909180,0.08831615000963,-0.16485157608986,9.79578304290771,0.27186948060989,-1.01502799987793,-0.76534050703049
208,701539943,-0.87391746044159,-0.60882598161697,8.61146354675293,0.11209212243557,-0.16730469465256,9.78967475891113,0.24523068964481,-1.06495022773743,-0.87010270357132
209,701548276,-0.87490248680115,-0.60916268825531,8.61071681976318,0.11185611039400,-0.14876449108124,9.77301597595215,0.11744125932455,-1.12506687641144,-0.90322190523148
210,701556609,-0.87520736455917,-0.60918658971786,8.61125469207764,0.08916018903255,-0.14907954633236,9.79642677307129,0.20424789190292,-1.09056448936462,-0.83163011074066
211,701564942,-0.87609118223190,-0.60866236686707,8.61175060272217,0.07954676449299,-0.15502355992794,9.80128288269043,0.13173401355743,-1.02312207221985,-0.75312250852585
212,701573275,-0.87546437978745,-0.60939925909042,8.61282157897949,0.09516857564449,-0.15061742067337,9.77854442596436,0.31687372922897,-1.17762732505798,-0.78316801786423
213,701581608,-0.87505322694778,-0.60948646068573,8.61412620544434,0.09597691893578,-0.15209829807281,9.77129840850830,0.28785276412964,-1.09796690940857,-0.65655684471130
214,701589941,-0.87504267692566,-0.60870224237442,8.61472702026367,0.09084110707045,-0.15805636346340,9.77934551239014,0.24156783521175,-0.99507457017899,-0.81918156147003
215,701598274,-0.87546753883362,-0.60892194509506,8.61517429351807,0.10278635472059,-0.16583865880966,9.77374458312988,0.18724004924297,-1.11284875869751,-0.76075553894043
216,701606607,-0.87546539306641,-0.60873121023178,8.61573600769043,0.07923204451799,-0.15575315058231,9.75475406646729,0.24149101972580,-1.06610298156738,-0.80291664600372
217,701614940,-0.87529754638672,-0.60881012678146,8.61588764190674,0.10187801718712,-0.15233439207077,9.78097629547119,0.25755116343498,-1.09458601474762,-0.79612892866135
218,701623273,-0.87496954202652,-0.61009782552719,8.61725044250488,0.08803727477789,-0.15735571086407,9.76345348358154,0.28134676814079,-1.24412190914154,-0.74328672885895
219,701631606,-0.87482202053070,-0.61059391498566,8.61707782745361,0.09333021193743,-0.15045973658562,9.77980422973633,0.25360652804375,-1.14386773109436,-0.83565151691437
220,701639939,-0.87450426816940,-0.61075979471207,8.61761093139648,0.06025563180447,-0.16479466855526,9.80784988403320,0.27955374121666,-1.10967266559601,-0.82607185840607
221,701648272,-0.87411355972290,-0.61041623353958,8.61788082122803,0.09917416423559,-0.16045972704887,9.79252052307129,0.28434363007545,-1.04348552227020,-0.78191292285919
222,701656605,-0.87421065568924,-0.61071753501892,8.61922264099121,0.09645608812571,-0.14386512339115,9.76651287078857,0.23006705939770,-1.12675738334656,-0.75074040889740
223,701664938,-0.87408018112183,-0.61051231622696,8.61907291412354,0.09571219235659,-0.15867866575718,9.78285789489746,0.25214654207230,-1.06016039848328,-0.83216810226440
224,701673271,-0.87437230348587,-0.61011248826981,8.61970138549805,0.09981792420149,-0.15593197941780,9.76986122131348,0.20598965883255,-1.04077041149139,-0.82468873262405
225,701681604,-0.87486875057220,-0.60973352193832,8.61991405487061,0.10306525975466,-0.13890078663826,9.75546264648438,0.17781400680542,-1.03972017765045,-0.78767609596252
226,701689937,-0.87433302402496,-0.60949087142944,8.62045955657959,0.08194296807051,-0.15465876460075,9.75601291656494,0.30562904477119,-1.05990433692932,-0.82643049955368
227,701698270,-0.87442696094513,-0.60954594612122,8.62091445922852,0.08803004026413,-0.16133236885071,9.75458240509033,0.22573825716972,-1.09161472320557,-0.75850152969360
228,701706603,-0.87506455183029,-0.60941570997238,8.62122344970703,0.09146340191364,-0.15466591715813,9.79429531097412,0.16439215838909,-1.07330036163330,-0.85990834236145
229,701714936,-0.87574285268784,-0.60983717441559,8.62170505523682,0.10272193700075,-0.17146766185760,9.77681350708008,0.15642614662647,-1.13579916954041,-0.75642675161362
230,701723269,-0.87627702951431,-0.60947632789612,8.62224864959717,0.08420332521200,-0.15399384498596,9.78579711914062,0.17635400593281,-1.04668736457825,-0.81290620565414
231,701731602,-0.87629401683807,-0.60956692695618,8.62265586853027,0.10096237808466,-0.15878595411777,9.78941631317139,0.23677800595760,-1.09684002399445,-0.76464903354645
232,701739935,-0.87601810693741,-0.60916799306870,8.62374687194824,0.09365217387676,-0.14161913096905,9.79203414916992,0.27389302849770,-1.04125702381134,-0.73240065574646
233,701748268,-0.87567996978760,-0.60941535234451,8.62398719787598,0.08937477320433,-0.15485905110836,9.78064727783203,0.27863165736198,-1.11582016944885,-0.78621613979340
234,701756601,-0.87612026929855,-0.60947781801224,8.62441349029541,0.09781512618065,-0.16299183666706,9.75382423400879,0.18839269876480,-1.09584105014801,-0.83357685804367
235,701764934,-0.87621027231216,-0.60874861478806,8.62472152709961,0.09321585297585,-0.14865753054619,9.75776576995850,0.22509787976742,-0.99886554479599,-0.77517640590668
236,701773267,-0.87613654136658,-0.60891497135162,8.62536239624023,0.08716454356909,-0.14893649518490,9.74404621124268,0.25165987014771,-1.10841751098633,-0.82648169994354
237,701781600,-0.87669306993484,-0.60864919424057,8.62617874145508,0.09484660625458,-0.17649587988853,9.78500175476074,0.17105185985565,-1.05580592155457,-0.71577697992325
238,701789933,-0.87728351354599,-0.60845518112183,8.62743186950684,0.09350196272135,-0.15209090709686,9.77518272399902,0.17128238081932,-1.06682002544403,-0.73954689502716
239,701798266,-0.87723290920258,-0.60811096429825,8.62724590301514,0.09546184539795,-0.13908703625202,9.78560447692871,0.24261803925037,-1.04287075996399,-0.83449894189835
240,701806599,-0.86635351181030,-0.60560661554337,8.62580966949463,0.08418180793524,-0.14545306563377,9.81076049804688,0.22161434590816,-1.09479081630707,-0.81262439489365
241,701814932,-0.86646825075150,-0.60538893938065,8.62622737884521,0.10840848833323,-0.14556750655174,9.77562618255615,0.22399649024010,-1.06003224849701,-0.76375234127045
242,701823265,-0.86621624231339,-0.60523158311844,8.62683868408203,0.08810871839523,-0.15328542888165,9.77863693237305,0.27122914791107,-1.07038056850433,-0.80988377332687
243,701831598,-0.86669629812241,-0.60504537820816,8.62634181976318,0.09883803874254,-0.15974475443363,9.75801563262939,0.17789085209370,-1.06274735927582,-0.87256181240082
244,701839931,-0.86646521091461,-0.60513019561768,8.62692832946777,0.10418115556240,-0.16604609787464,9.77456760406494,0.26754066348076,-1.09853053092957,-0.82576447725296
245,701848264,-0.86716032028198,-0.60572272539139,8.62744140625000,0.08640634268522,-0.16400752961636,9.77236461639404,0.15465874969959,-1.15808355808258,-0.75312250852585
246,701856597,-0.86705154180527,-0.60582864284515,8.62793254852295,0.11061156541109,-0.15510940551758,9.78943824768066,0.25240269303322,-1.10193729400635,-0.82663547992706
247,701864930,-0.86716789007187,-0.60545957088470,8.62767601013184,0.10985336452723,-0.17143218219280,9.79001712799072,0.22220347821712,-1.04120576381683,-0.84446287155151
248,701873263,-0.86710882186890,-0.60465514659882,8.62899303436279,0.10176349431276,-0.15368598699570,9.78515338897705,0.24838124215603,-0.99297428131104,-0.72878903150558
249,701881596,-0.86676347255707,-0.60479485988617,8.62903022766113,0.09648469835520,-0.15357868373394,9.76291561126709,0.27870848774910,-1.10308969020844,-0.80970430374146
250,701889929,-0.86757004261017,-0.60503906011581,8.62953472137451,0.09302991628647,-0.15912245213985,9.75076961517334,0.14256881177425,-1.11799716949463,-0.81259876489639
251,701898262,-0.86659896373749,-0.60478579998016,8.62977218627930,0.12121208012104,-0.16371427476406,9.75424575805664,0.35416802763939,-1.05552423000336,-0.78391087055206
252,701906595,-0.86737197637558,-0.60469102859497,8.62992382049561,0.08528334647417,-0.16093181073666,9.79357242584229,0.14643657207489,-1.07739889621735,-0.87901645898819
253,701914928,-0.86730241775513,-0.60460287332535,8.62960624694824,0.07267288118601,-0.17602431774139,9.77072620391846,0.24384748935699,-1.07404315471649,-0.85135310888290
254,701923261,-0.86786127090454,-0.60471940040588,8.62946605682373,0.09579087048769,-0.16245536506176,9.75333786010742,0.17379257082939,-1.10280799865723,-0.89761239290237
255,701931594,-0.86773324012756,-0.60477423667908,8.63003635406494,0.08275838941336,-0.17288421094418,9.78955268859863,0.25237703323364,-1.09240865707397,-0.74607861042023
256,701939927,-0.86808913946152,-0.60427516698837,8.63058853149414,0.09262210875750,-0.15647532045841,9.78789329528809,0.19776749610901,-1.02903914451599,-0.82366412878036
257,701948260,-0.86839628219604,-0.60441696643829,8.63131046295166,0.10549733787775,-0.15526703000069,9.76858711242676,0.20053382217884,-1.10411441326141,-0.72750830650330
258,701956593,-0.86886340379715,-0.60418254137039,8.63169670104980,0.08402439206839,-0.15287026762962,9.75471878051758,0.18365406990051,-1.06092882156372,-0.82358723878860
259,701964926,-0.86815297603607,-0.60412466526031,8.63149547576904,0.09214292466640,-0.14537438750267,9.80706310272217,0.32125374674797,-1.07750117778778,-0.83716279268265
260,701973259,-0.86815917491913,-0.60407823324203,8.63261795043945,0.08917449414730,-0.16194751858711,9.76310825347900,0.24102993309498,-1.08439147472382,-0.74866563081741
261,701981592,-0.86791211366653,-0.60439103841782,8.63323307037354,0.10202807933092,-0.16103883087635,9.76613521575928,0.26551714539528,-1.12455451488495,-0.74087888002396
262,701989925,-0.86781847476959,-0.60419207811356,8.63397884368896,0.08676391094923,-0.17235462367535,9.77698516845703,0.25176230072975,-1.06515514850616,-0.81877177953720
263,701998258,-0.86887216567993,-0.60353422164917,8.63407421112061,0.08940338343382,-0.16784861683846,9.80630493164062,0.11026929318905,-1.00721573829651,-0.80163586139679
264,702006591,-0.86894804239273,-0.60343557596207,8.63431262969971,0.10021848231554,-0.16400752961636,9.79948043823242,0.23132218420506,-1.07727062702179,-0.85381209850311
265,702014924,-0.86949729919434,-0.60255134105682,8.63515281677246,0.11100497096777,-0.15332119166851,9.79411602020264,0.17151290178299,-0.98029524087906,-0.71170431375504
266,702023257,-0.86941277980804,-0.60240566730499,8.63554286956787,0.08693565428257,-0.16093181073666,9.75685691833496,0.24930334091187,-1.07145619392395,-0.84894537925720
267,702031590,-0.86918061971664,-0.60215789079666,8.63537025451660,0.08608446270227,-0.15375751256943,9.79656219482422,0.26487678289413,-1.05442273616791,-0.83416599035263
268,702039923,-0.86889052391052,-0.60131424665451,8.63625240325928,0.08389569818974,-0.15314951539040,9.75619125366211,0.27573722600937,-0.98828667402267,-0.79031431674957
269,702048256,-0.86863368749619,-0.60104298591614,8.63619041442871,0.09635594487190,-0.16307051479816,9.76773643493652,0.26574766635895,-1.05401289463043,-0.82100021839142
270,702056589,-0.86872923374176,-0.60075211524963,8.63677215576172,0.10084800422192,-0.17111775279045,9.75154972076416,0.23037441074848,-1.05329561233521,-0.81838750839233
271,702064922,-0.86861974000931,-0.60095131397247,8.63696956634521,0.10385928303003,-0.14654029905796,9.79904460906982,0.24994370341301,-1.11023616790771,-0.78936660289764
272,702073255,-0.86842322349548,-0.60164922475815,8.63738822937012,0.10527554154396,-0.16432225704193,9.77428150177002,0.26298129558563,-1.17291414737701,-0.84115862846375
273,702081588,-0.86795341968536,-0.60128927230835,8.63751888275146,0.11039698123932,-0.15930096805096,9.77164936065674,0.29256576299667,-1.04243528842926,-0.79835718870163
274,702089921,-0.86831688880920,-0.60092985630035,8.63835144042969,0.09730006754398,-0.14618952572346,9.76732254028320,0.19779311120510,-1.04584205150604,-0.78263008594513
275,702098254,-0.86818617582321,-0.60083818435669,8.63781452178955,0.08160678297281,-0.14518125355244,9.77166366577148,0.25176230072975,-1.07394075393677,-0.87768465280533
276,702106587,-0.86826860904694,-0.60087871551514,8.63900566101074,0.09903111308813,-0.15998049080372,9.77832221984863,0.23022073507309,-1.09399676322937,-0.75532531738281
277,702114920,-0.86796158552170,-0.60120135545731,8.63903141021729,0.10555442422628,-0.15496604144573,9.80329418182373,0.27315017580986,-1.12496435642242,-0.81052404642105
278,702123253,-0.86819821596146,-0.60102987289429,8.63964557647705,0.10309392213821,-0.14925122261047,9.74860954284668,0.21239320933819,-1.06933021545410,-0.81359773874283
279,702131586,-0.86823141574860,-0.60105949640274,8.63942623138428,0.11137691885233,-0.14166206121445,9.80092525482178,0.23111721873283,-1.08823359012604,-0.84051829576492
280,702139919,-0.86772286891937,-0.60000193119049,8.64052772521973,0.09642747789621,-0.17371393740177,9.77562618255615,0.30224797129631,-0.96249330043793,-0.76347064971924
281,702148252,-0.86774337291718,-0.60048300027847,8.64065837860107,0.09488961100578,-0.14825697243214,9.80078983306885,0.23401165008545,-1.14358580112457,-0.79817789793015
282,702156585,-0.86664634943008,-0.60073429346085,8.64103889465332,0.06791624426842,-0.16463698446751,9.76451015472412,0.37263587117195,-1.11963665485382,-0.83729088306427
283,702164918,-0.86638993024826,-0.60099542140961,8.64119815826416,0.09165661036968,-0.15211981534958,9.77368736267090,0.26638805866241,-1.11607635021210,-0.79479688405991
284,702173251,-0.86637330055237,-0.60114979743958,8.64158630371094,0.08880254626274,-0.15963000059128,9.78197097778320,0.24246434867382,-1.10770046710968,-0.81833636760712
285,702181584,-0.86575782299042,-0.60104572772980,8.64174175262451,0.09377377480268,-0.15460154414177,9.75380992889404,0.31049573421478,-1.07417130470276,-0.79436135292053
286,702189917,-0.86610674858093,-0.60154610872269,8.64156818389893,0.09727150946856,-0.16587442159653,9.76877307891846,0.19758820533752,-1.14701819419861,-0.91485083103180
287,702198250,-0.86676812171936,-0.60091090202332,8.64153099060059,0.10041876137257,-0.14092531800270,9.76840114593506,0.15734826028347,-1.01003324985504,-0.81679952144623
288,702206583,-0.86679840087891,-0.60055094957352,8.64200496673584,0.10960308462381,-0.15464474260807,9.76651287078857,0.23729027807713,-1.04540657997131,-0.81436616182327
289,702214916,-0.86702328920364,-0.60135060548782,8.64219284057617,0.08739349991083,-0.15970183908939,9.78219985961914,0.20860232412815,-1.18116199970245,-0.79287576675415
290,702223249,-0.86705291271210,-0.60107070207596,8.64275455474854,0.06863152980804,-0.16938647627831,9.76855850219727,0.23649621009827,-1.05580580234528,-0.83611261844635
291,702231582,-0.86743080615997,-0.60026139020920,8.64218807220459,0.09558337181807,-0.17027314007282,9.77899551391602,0.18998076021671,-0.98713415861130,-0.88032281398773
292,702239915,-0.86690223217010,-0.60042220354080,8.64159393310547,0.08801573514938,-0.16186168789864,9.78678417205811,0.30373355746269,-1.10721373558044,-0.96333855390549
293,702248248,-0.86740380525589,-0.60048377513885,8.64095878601074,0.10800798982382,-0.16522385179996,9.77842235565186,0.17371574044228,-1.09156322479248,-0.88972324132919
294,702256581,-0.86698502302170,-0.60063481330872,8.64104270935059,0.08880960196257,-0.14463731646538,9.75432586669922,0.29069593548775,-1.10588169097900,-0.87578904628754
295,702264914,-0.86639004945755,-0.60054779052734,8.64097118377686,0.09976785629988,-0.15015247464180,9.79410171508789,0.30865153670311,-1.07509350776672,-0.82141011953354
296,702273247,-0.86609655618668,-0.59940457344055,8.64140510559082,0.08115615695715,-0.16513767838478,9.79166221618652,0.27545550465584,-0.95081311464310,-0.84215760231018
297,702281580,-0.86677098274231,-0.59929502010345,8.64192390441895,0.08930324763060,-0.16437947750092,9.78834342956543,0.15588824450970,-1.07419693470001,-0.75143206119537
298,702289913,-0.86725270748138,-0.60025221109390,8.64249038696289,0.11067593842745,-0.15986603498459,9.77063369750977,0.18216843903065,-1.20349764823914,-0.81779849529266
299,702298246,-0.86710244417191,-0.59923243522644,8.64288330078125,0.10782195627689,-0.15316382050514,9.79129028320312,0.25506651401520,-0.96454232931137,-0.76441842317581
300,702306579,-0.86709475517273,-0.59866851568222,8.64357757568359,0.09753616899252,-0.14730565249920,9.75794410705566,0.24167029559612,-1.02084255218506,-0.79582142829895
301,702314912,-0.86723464727402,-0.59811031818390,8.64403247833252,0.07805194705725,-0.15543894469738,9.77182865142822,0.21974451839924,-1.02007400989532,-0.75901377201080
302,702323245,-0.86740994453430,-0.59788268804550,8.64457416534424,0.09937445074320,-0.15915074944496,9.76238632202148,0.21889926493168,-1.06072390079498,-0.83006769418716
303,702331578,-0.86761456727982,-0.59810459613800,8.64437103271484,0.08748642355204,-0.14998081326485,9.77335834503174,0.21134306490421,-1.11192679405212,-0.83887910842896
304,702339911,-0.86803048849106,-0.59843212366104,8.64475154876709,0.08235067874193,-0.15069609880447,9.79586887359619,0.19195307791233,-1.12775647640228,-0.82345920801163
305,702348244,-0.86760443449020,-0.59847700595856,8.64564800262451,0.09325169026852,-0.16523809731007,9.81209850311279,0.28772467374802,-1.09322834014893,-0.70591545104980
306,702356577,-0.86822468042374,-0.59776741266251,8.64644336700439,0.09344474226236,-0.16103909909725,9.77134895324707,0.16644130647182,-1.00416767597198,-0.77771228551865
307,702364910,-0.86793559789658,-0.59788703918457,8.64642620086670,0.09544753283262,-0.16363558173180,9.78224277496338,0.27056315541267,-1.10022091865540,-0.81667143106461
308,702373243,-0.86772459745407,-0.59815859794617,8.64735603332520,0.10050467401743,-0.14834311604500,9.76473903656006,0.26564523577690,-1.12178814411163,-0.80637449026108
309,702381576,-0.86841905117035,-0.59861052036285,8.64814376831055,0.09098416566849,-0.14924407005310,9.80646228790283,0.15340366959572,-1.14140880107880,-0.71943986415863
310,702389909,-0.86839342117310,-0.59840250015259,8.64924335479736,0.10021854937077,-0.15431569516659,9.77393054962158,0.24525630474091,-1.06451475620270,-0.74910104274750
311,702398242,-0.86815625429153,-0.59850752353668,8.64894199371338,0.08711455762386,-0.15762750804424,9.76388835906982,0.26349365711212,-1.09827435016632,-0.85022616386414
312,702406575,-0.86787986755371,-0.59811836481094,8.64972114562988,0.10293648391962,-0.15170437097549,9.80455303192139,0.27555793523788,-1.04233288764954,-0.78350096940994
313,702414908,-0.86743295192719,-0.59776282310486,8.64985466003418,0.09285113960505,-0.15254896879196,9.76977539062500,0.28882610797882,-1.04269134998322,-0.79682040214539
314,702423241,-0.86774176359177,-0.59765762090683,8.65057277679443,0.10213544219732,-0.15937249362469,9.79481697082520,0.20396615564823,-1.07663023471832,-0.83098971843719
315,702431574,-0.86793911457062,-0.59823364019394,8.65015983581543,0.10237155109644,-0.13137660920620,9.79628372192383,0.21223953366280,-1.15444636344910,-0.86375045776367
316,702439907,-0.86796873807907,-0.59745991230011,8.65142059326172,0.11300061643124,-0.15351431071758,9.75056934356689,0.23703414201736,-0.99686759710312,-0.75783556699753
317,702448240,-0.86810946464539,-0.59784245491028,8.65166187286377,0.10200662910938,-0.14237704873085,9.76878833770752,0.21971890330315,-1.13195705413818,-0.78585749864578
318,702456573,-0.86879819631577,-0.59803718328476,8.65262126922607,0.10481061041355,-0.15412230789661,9.76679897308350,0.15803982317448,-1.11249017715454,-0.77881360054016
319,702464906,-0.86881035566330,-0.59787940979004,8.65236186981201,0.09159215539694,-0.14321422576904,9.76913070678711,0.23442146182060,-1.06582093238831,-0.84507751464844
320,702473239,-0.86830770969391,-0.59877645969391,8.65350627899170,0.08101301640272,-0.15312060713768,9.77355194091797,0.30199182033539,-1.19842600822449,-0.75010001659393
321,702481572,-0.86846029758453,-0.59978926181793,8.65307331085205,0.09465356916189,-0.15490911900997,9.78739261627197,0.21784906089306,-1.20613598823547,-0.86749005317688
322,702489905,-0.86838108301163,-0.59987783432007,8.65360069274902,0.09049785137177,-0.15364338457584,9.79162693023682,0.24940583109856,-1.09919643402100,-0.85135322809219
323,702498238,-0.86803507804871,-0.59898620843887,8.65429115295410,0.09835159033537,-0.15834963321686,9.78565406799316,0.27847793698311,-0.98026949167252,-0.72866100072861
324,702506571,-0.86831897497177,-0.59889853000641,8.65577602386475,0.10832975059748,-0.15201196074486,9.76150703430176,0.20634825527668,-1.07906353473663,-0.74518209695816
325,702514904,-0.86818665266037,-0.59924757480621,8.65549755096436,0.10120565444231,-0.15061774849892,9.79023933410645,0.25294053554535,-1.12729513645172,-0.84712678194046
326,702523237,-0.86838394403458,-0.59849292039871,8.65622997283936,0.10304385423660,-0.16427934169769,9.78101921081543,0.21595363318920,-0.99799472093582,-0.80906397104263
327,702531570,-0.86836397647858,-0.59822386503220,8.65633678436279,0.09239319711924,-0.14868587255478,9.79242134094238,0.23926256597042,-1.05352616310120,-0.80012458562851
328,702539903,-0.86746871471405,-0.59837049245834,8.65739727020264,0.11227817833424,-0.15335695445538,9.79685592651367,0.34766197204590,-1.10741865634918,-0.77653390169144
329,702548236,-0.86725753545761,-0.59876304864883,8.65718746185303,0.09132034331560,-0.13689826428890,9.80624771118164,0.26221293210983,-1.13241815567017,-0.83877658843994
330,702556569,-0.86717098951340,-0.59933018684387,8.65745925903320,0.09198547899723,-0.15090319514275,9.75457572937012,0.25035351514816,-1.15529167652130,-0.86848914623260
331,702564902,-0.86663347482681,-0.60003966093063,8.65746021270752,0.11438111215830,-0.14043176174164,9.79355144500732,0.30042934417725,-1.17176151275635,-0.81492972373962
332,702573235,-0.86687308549881,-0.60002470016479,8.65767765045166,0.10320121794939,-0.13944467902184,9.77565479278564,0.20988303422928,-1.08577454090118,-0.86439073085785
333,702581568,-0.86722755432129,-0.59936630725861,8.65821075439453,0.09782943129539,-0.14943003654480,9.77149868011475,0.19528292119503,-1.00695955753326,-0.74879378080368
334,702589901,-0.86712491512299,-0.59947538375854,8.65817070007324,0.09426731616259,-0.14688363671303,9.77667045593262,0.25291493535042,-1.10147619247437,-0.89717692136765
335,702598234,-0.86709332466125,-0.59890824556351,8.65880298614502,0.10457456111908,-0.14505250751972,9.81035327911377,0.24013347923756,-1.01933133602142,-0.73788213729858
336,702606567,-0.86738437414169,-0.59856152534485,8.65865135192871,0.10629840195179,-0.15713365375996,9.79141902923584,0.20388929545879,-1.04525291919708,-0.90621882677078
337,702614900,-0.86758071184158,-0.59870362281799,8.65809917449951,0.08656363189220,-0.16891406476498,9.79622650146484,0.21316166222095,-1.10227024555206,-0.88032293319702
338,702623233,-0.86791616678238,-0.59840494394302,8.65858840942383,0.10408823937178,-0.15297815203667,9.75818061828613,0.19981664419174,-1.05275774002075,-0.83462697267532
339,702631566,-0.86743247509003,-0.59854716062546,8.65933227539062,0.10115550458431,-0.15645413100719,9.79370880126953,0.29481983184814,-1.10342276096344,-0.72420406341553
340,702639899,-0.86733889579773,-0.59819167852402,8.65962123870850,0.08454668521881,-0.15007409453392,9.79876518249512,0.25101944804192,-1.04568815231323,-0.84197819232941
341,702648232,-0.86752200126648,-0.59933835268021,8.65960979461670,0.10302232950926,-0.15892152488232,9.77386665344238,0.21421183645725,-1.22396337985992,-0.81631278991699
342,702656565,-0.86726504564285,-0.59901714324951,8.66027736663818,0.09330883622169,-0.15990895032883,9.76463890075684,0.27174142003059,-1.04986345767975,-0.81710696220398
343,702664898,-0.86785101890564,-0.59918272495270,8.66000270843506,0.11357279121876,-0.15203337371349,9.77624893188477,0.16562162339687,-1.10465216636658,-0.84623026847839
344,702673231,-0.86804240942001,-0.59946334362030,8.66124439239502,0.08961790800095,-0.15839943289757,9.75509834289551,0.21838693320751,-1.12393963336945,-0.75171363353729
345,702681564,-0.86846071481705,-0.59990197420120,8.66151332855225,0.10096947103739,-0.16229057312012,9.78508281707764,0.18618984520435,-1.13841187953949,-0.78147745132446
346,702689897,-0.86896145343781,-0.60010951757431,8.66230678558350,0.10564748942852,-0.15289202332497,9.78727817535400,0.18032422661781,-1.11453950405121,-0.81495535373688
347,702698230,-0.86904579401016,-0.60079169273376,8.66241836547852,0.10984621196985,-0.15183340013027,9.74672889709473,0.22676281630993,-1.16697180271149,-0.80148220062256
348,702706563,-0.86879140138626,-0.60042488574982,8.66299152374268,0.10817236453295,-0.16063825786114,9.78173542022705,0.27089613676071,-1.04427945613861,-0.82246017456055
349,702714896,-0.86904501914978,-0.60115844011307,8.66258144378662,0.08609876781702,-0.16451539099216,9.78478145599365,0.20501632988453,-1.17442548274994,-0.86392968893051
350,702723229,-0.86866647005081,-0.60205012559891,8.66255187988281,0.08016181737185,-0.16753353178501,9.79696369171143,0.28572675585747,-1.19327747821808,-0.90939497947693
351,702731562,-0.86831456422806,-0.60286480188370,8.66213226318359,0.09083395451307,-0.16627499461174,9.78711318969727,0.27683863043785,-1.18292927742004,-0.86631178855896
352,702739895,-0.86862635612488,-0.60310995578766,8.66305923461914,0.08770106732845,-0.15528851747513,9.80950164794922,0.20355632901192,-1.11835587024689,-0.78675407171249
353,702748228,-0.86843943595886,-0.60318428277969,8.66344642639160,0.10492505133152,-0.15565301477909,9.80284976959229,0.25878062844276,-1.09627652168274,-0.76759463548660
354,702756561,-0.86780750751495,-0.60314506292343,8.66429901123047,0.10970306396484,-0.15732648968697,9.77322292327881,0.31625896692276,-1.08377671241760,-0.79328560829163
355,702764894,-0.86768966913223,-0.60371458530426,8.66459751129150,0.09497544914484,-0.15943686664104,9.74831676483154,0.25091704726219,-1.15567588806152,-0.77812206745148
356,702773227,-0.86762231588364,-0.60360497236252,8.66555500030518,0.07941086590290,-0.16201904416084,9.76918125152588,0.24976438283920,-1.07501661777496,-0.76359874010086
357,702781560,-0.86750233173370,-0.60365855693817,8.66521835327148,0.11006079614162,-0.16020222008228,9.80558967590332,0.24920089542866,-1.09202444553375,-0.85427314043045
358,702789893,-0.86695170402527,-0.60343426465988,8.66598033905029,0.09516857564449,-0.17074550688267,9.76348018646240,0.30596202611923,-1.06261944770813,-0.80962759256363
359,702798226,-0.86681377887726,-0.60394650697708,8.66567897796631,0.09442467987537,-0.15447279810905,9.77572631835938,0.25399073958397,-1.14650595188141,-0.85099440813065
360,702806559,-0.86690878868103,-0.60426592826843,8.66542911529541,0.07715771347284,-0.16546671092510,9.77729225158691,0.22707018256187,-1.12509250640869,-0.92504519224167
361,702814892,-0.86694794893265,-0.60397809743881,8.66439247131348,0.08285138010979,-0.15977305173874,9.76920223236084,0.23037441074848,-1.04973530769348,-0.93828785419464
362,702823225,-0.86765354871750,-0.60364228487015,8.66400527954102,0.10282211750746,-0.15829956531525,9.79418087005615,0.15412087738514,-1.04584205150604,-0.92343163490295
363,702831558,-0.86722153425217,-0.60306459665298,8.66355419158936,0.09956748783588,-0.17241899669170,9.75322341918945,0.28821137547493,-1.01638567447662,-0.86646556854248
364,702839891,-0.86671257019043,-0.60294723510742,8.66406631469727,0.09341613203287,-0.15872873365879,9.77435302734375,0.30135145783424,-1.07476031780243,-0.83339756727219
365,702848224,-0.86679661273956,-0.60342830419540,8.66418552398682,0.09716415405273,-0.14698345959187,9.75930404663086,0.22645543515682,-1.14315044879913,-0.80099552869797
366,702856557,-0.86719495058060,-0.60364741086960,8.66505622863770,0.09333744645119,-0.17732612788677,9.76152801513672,0.19185061752796,-1.11558949947357,-0.77789145708084
367,702864890,-0.86656767129898,-0.60402983427048,8.66518592834473,0.09515435993671,-0.14859347045422,9.77133464813232,0.31231439113617,-1.13193154335022,-0.79902333021164
368,702873223,-0.86634910106659,-0.60429185628891,8.66625499725342,0.10821536183357,-0.16372142732143,9.76841545104980,0.26782241463661,-1.12125027179718,-0.76751768589020
369,702881556,-0.86652052402496,-0.60400241613388,8.66520214080811,0.10723542422056,-0.15807068347931,9.76685619354248,0.21339218318462,-1.04840338230133,-0.93928676843643
370,702889889,-0.86709457635880,-0.60349398851395,8.66631221771240,0.10297948122025,-0.14724127948284,9.77546882629395,0.17340835928917,-1.02939772605896,-0.75714385509491
371,702898222,-0.86667090654373,-0.60338222980499,8.66608905792236,0.10919538885355,-0.14862923324108,9.75104904174805,0.28667452931404,-1.07114875316620,-0.84064632654190
372,702906555,-0.86638146638870,-0.60266286134720,8.66709899902344,0.07594173401594,-0.16535942256451,9.77279376983643,0.27458459138870,-1.00396263599396,-0.77955639362335
373,702914888,-0.86655479669571,-0.60247164964676,8.66671276092529,0.09368085116148,-0.15915106236935,9.77815818786621,0.21492902934551,-1.06164598464966,-0.85975456237793
374,702923221,-0.86582469940186,-0.60241663455963,8.66711521148682,0.09437461197376,-0.16175438463688,9.78698444366455,0.32819518446922,-1.08223986625671,-0.84136354923248
375,702931554,-0.86602926254272,-0.60233563184738,8.66730499267578,0.09375946223736,-0.17901420593262,9.74102020263672,0.21195778250694,-1.07563138008118,-0.79103159904480
376,702939887,-0.86626940965652,-0.60244178771973,8.66838645935059,0.08342354744673,-0.14588911831379,9.77087688446045,0.21272622048855,-1.10221898555756,-0.75804048776627
377,702948220,-0.86611211299896,-0.60337209701538,8.66906452178955,0.11718510091305,-0.16686896979809,9.77864456176758,0.25463110208511,-1.19929683208466,-0.73465466499329
378,702956553,-0.86590236425400,-0.60275715589523,8.67011547088623,0.11719217896461,-0.15063172578812,9.77915954589844,0.26669541001320,-1.01515603065491,-0.75911623239517
379,702964886,-0.86553287506104,-0.60275644063950,8.66992473602295,0.10878052562475,-0.13266408443451,9.77757167816162,0.27952814102173,-1.08603072166443,-0.83590769767761
380,702973219,-0.86574983596802,-0.60237151384354,8.67019939422607,0.08804434537888,-0.14865753054619,9.77876567840576,0.21485219895840,-1.04240965843201,-0.84848433732986
381,702981552,-0.86641705036163,-0.60245376825333,8.67007446289062,0.10735696554184,-0.15009495615959,9.77529048919678,0.15632367134094,-1.09422731399536,-0.82917118072510
382,702989885,-0.86628717184067,-0.60272026062012,8.67088127136230,0.10409539937973,-0.16899336874485,9.80077552795410,0.25629600882530,-1.12142956256866,-0.79497611522675
383,702998218,-0.86589467525482,-0.60305923223495,8.67053604125977,0.09265793114901,-0.14806385338306,9.77558326721191,0.28203833103180,-1.12555360794067,-0.85755175352097
384,703006551,-0.86561942100525,-0.60359585285187,8.67097949981689,0.07984003424644,-0.15207658708096,9.78491020202637,0.27430284023285,-1.15226924419403,-0.84561550617218
385,703014884,-0.86529952287674,-0.60412383079529,8.67169189453125,0.09020457416773,-0.17888572812080,9.80558204650879,0.27463582158089,-1.15024554729462,-0.72904515266418
386,703023217,-0.86559826135635,-0.60424792766571,8.67251777648926,0.10942418873310,-0.16269141435623,9.79495334625244,0.20509316027164,-1.10493397712708,-0.80970436334610
387,703031550,-0.86553305387497,-0.60451990365982,8.67279911041260,0.09436037391424,-0.17529502511024,9.75951099395752,0.24415490031242,-1.11799728870392,-0.78086274862289
388,703039883,-0.86577707529068,-0.60407465696335,8.67356300354004,0.11164157092571,-0.17871378362179,9.77225017547607,0.21131744980812,-1.03644156455994,-0.78895688056946
389,703048216,-0.86599361896515,-0.60419648885727,8.67312335968018,0.11797183752060,-0.15700490772724,9.78050422668457,0.20993426442146,-1.09932446479797,-0.86646550893784
390,703056549,-0.86599367856979,-0.60431110858917,8.67377567291260,0.08444646745920,-0.17014467716217,9.76369476318359,0.23972360789776,-1.10283362865448,-0.78680533170700
391,703064882,-0.86591124534607,-0.60447996854782,8.67422199249268,0.10825827717781,-0.14599667489529,9.77018260955811,0.24832996726036,-1.10611224174500,-0.76067864894867
392,703073215,-0.86557608842850,-0.60519349575043,8.67456245422363,0.09475371241570,-0.16735506057739,9.77603340148926,0.28021973371506,-1.17483520507812,-0.85281324386597
393,703081548,-0.86563551425934,-0.60543650388718,8.67445659637451,0.09965333342552,-0.14597491919994,9.77906703948975,0.22809475660324,-1.11438572406769,-0.82660973072052
394,703089881,-0.86539340019226,-0.60561692714691,8.67466068267822,0.09557637572289,-0.17573852837086,9.76214981079102,0.26935929059982,-1.10928845405579,-0.87358629703522
395,703098214,-0.86614137887955,-0.60529434680939,8.67426395416260,0.11430958658457,-0.16465128958225,9.75205039978027,0.14566814899445,-1.04614937305450,-0.86108660697937
396,703106547,-0.86570167541504,-0.60580098628998,8.67461585998535,0.09290836751461,-0.15536722540855,9.77191352844238,0.29269385337830,-1.14914417266846,-0.84448850154877
397,703114880,-0.86512476205826,-0.60561257600784,8.67445755004883,0.09236466139555,-0.14993789792061,9.79271411895752,0.30519357323647,-1.06236314773560,-0.83209121227264
398,703123213,-0.86540454626083,-0.60514765977859,8.67574501037598,0.08184294402599,-0.17139692604542,9.76236629486084,0.20829494297504,-1.03462302684784,-0.72986471652985
399,703131546,-0.86552667617798,-0.60460311174393,8.67595386505127,0.10598360747099,-0.16797710955143,9.79543304443359,0.22181926667690,-1.02027893066406,-0.78857260942459
400,703139879,-0.86501681804657,-0.60440051555634,8.67656040191650,0.10631985962391,-0.14953018724918,9.78079032897949,0.30040374398232,-1.06543695926666,-0.81846439838409
401,703148212,-0.86496978998184,-0.60428947210312,8.67667388916016,0.12252112478018,-0.16600348055363,9.79170513153076,0.24371945858002,-1.07201981544495,-0.79984289407730
402,703156545,-0.86538642644882,-0.60461431741714,8.67730808258057,0.09563350677490,-0.16754104197025,9.76612663269043,0.18882812559605,-1.12714147567749,-0.82701957225800
403,703164878,-0.86604273319244,-0.60503888130188,8.67753601074219,0.08069121837616,-0.15363591909409,9.78429508209229,0.15875703096390,-1.13853979110718,-0.78780412673950
404,703173211,-0.86601471900940,-0.60375326871872,8.67789268493652,0.09953180700541,-0.16471566259861,9.78817176818848,0.24300223588943,-0.93347245454788,-0.84512895345688
405,703181544,-0.86595308780670,-0.60316133499146,8.67768192291260,0.08307311683893,-0.15339271724224,9.79284286499023,0.24282294511795,-1.01413154602051,-0.83816176652908
406,703189877,-0.86618947982788,-0.60331875085831,8.67853355407715,0.09274376183748,-0.15445849299431,9.76084804534912,0.21218831837177,-1.10746979713440,-0.82151252031326
407,703198210,-0.86645096540451,-0.60305839776993,8.67838001251221,0.10149175673723,-0.14469516277313,9.78090476989746,0.20440159738064,-1.05426907539368,-0.83204001188278
408,703206543,-0.86742806434631,-0.60315680503845,8.67873191833496,0.09866631776094,-0.16034528613091,9.77524662017822,0.12269218266010,-1.10068202018738,-0.83588212728500
409,703214876,-0.86755555868149,-0.60427689552307,8.67841625213623,0.09792242199183,-0.14437298476696,9.75024795532227,0.22166557610035,-1.21873807907104,-0.85337662696838
410,703223209,-0.86737209558487,-0.60439896583557,8.67862510681152,0.09265077114105,-0.14575348794460,9.77827262878418,0.26118832826614,-1.10311532020569,-0.85409373044968
411,703231542,-0.86799901723862,-0.60400009155273,8.67863082885742,0.09317293018103,-0.14545306563377,9.76448917388916,0.16101108491421,-1.03813207149506,-0.81277805566788
412,703239875,-0.86780464649200,-0.60340046882629,8.67963123321533,0.10007557272911,-0.17772720754147,9.78154277801514,0.26554277539253,-1.01723086833954,-0.75235408544540
413,703248208,-0.86823660135269,-0.60333037376404,8.67945671081543,0.07252267748117,-0.15151152014732,9.77119159698486,0.18375653028488,-1.07696330547333,-0.83396112918854
414,703256541,-0.86854100227356,-0.60370033979416,8.67960929870605,0.09976076334715,-0.16106089949608,9.74591350555420,0.20363317430019,-1.13213634490967,-0.87058949470520
415,703264874,-0.86841195821762,-0.60379505157471,8.67900466918945,0.09302987903357,-0.16572421789169,9.79133319854736,0.25119879841805,-1.09627652168274,-0.88629102706909
416,703273207,-0.86862182617188,-0.60450279712677,8.67952919006348,0.09139896184206,-0.12470948696136,9.77865982055664,0.21492902934551,-1.17437422275543,-0.82819789648056
417,703281540,-0.86863523721695,-0.60473728179932,8.68037796020508,0.08007607609034,-0.16488733887672,9.76947402954102,0.23511303961277,-1.11479556560516,-0.71354854106903
418,703289873,-0.86890584230423,-0.60529136657715,8.68117141723633,0.09302981197834,-0.16187566518784,9.76564121246338,0.20765459537506,-1.15498423576355,-0.81764477491379
419,703298206,-0.86892575025558,-0.60594910383224,8.68159103393555,0.08124914020300,-0.15293493866920,9.73961162567139,0.23472884297371,-1.16543483734131,-0.76449531316757
420,703306539,-0.86858153343201,-0.60501432418823,8.68225097656250,0.09304418414831,-0.15473745763302,9.76292228698730,0.28185904026031,-0.97650438547134,-0.80345451831818
421,703314872,-0.86860394477844,-0.60495316982269,8.68244743347168,0.10569762438536,-0.17465125024319,9.76363754272461,0.23349936306477,-1.07908928394318,-0.79095476865768
422,703323205,-0.86898499727249,-0.60494202375412,8.68361186981201,0.10031147301197,-0.14158336818218,9.74763679504395,0.19656364619732,-1.08831048011780,-0.77007919549942
423,703331538,-0.86934697628021,-0.60542285442352,8.68390369415283,0.09830152243376,-0.16254121065140,9.79038906097412,0.19241413474083,-1.14322733879089,-0.77986383438110
424,703339871,-0.86861181259155,-0.60538774728775,8.68523883819580,0.08800858259201,-0.17429332435131,9.76755714416504,0.32880994677544,-1.08610761165619,-0.74320983886719
425,703348204,-0.86794394254684,-0.60499268770218,8.68536090850830,0.08335198462009,-0.14804211258888,9.77247905731201,0.31654068827629,-1.03918218612671,-0.79907447099686
426,703356537,-0.86870223283768,-0.60483682155609,8.68702888488770,0.08917449414730,-0.17148940265179,9.80781364440918,0.15155942738056,-1.07107198238373,-0.69784706830978
427,703364870,-0.86909252405167,-0.60411554574966,8.68721771240234,0.07189322263002,-0.16367851197720,9.78103351593018,0.18859761953354,-0.99999254941940,-0.78985333442688
428,703373203,-0.86912727355957,-0.60460638999939,8.68804550170898,0.08457521349192,-0.16103194653988,9.77403068542480,0.23785376548767,-1.14842700958252,-0.77586799860001
429,703381536,-0.86923265457153,-0.60477370023727,8.68836784362793,0.08573397248983,-0.15143284201622,9.78689193725586,0.22363787889481,-1.10652208328247,-0.77571421861649
430,703389869,-0.86948925256729,-0.60487800836563,8.68901824951172,0.08383131772280,-0.16439378261566,9.80647659301758,0.20885846018791,-1.10104072093964,-0.81485289335251
431,703398202,-0.86962246894836,-0.60528552532196,8.68830680847168,0.08044802397490,-0.14955164492130,9.74446773529053,0.21969328820705,-1.13382697105408,-0.89909815788269
432,703406535,-0.86989861726761,-0.60531306266785,8.68896198272705,0.09665636718273,-0.16128230094910,9.76333713531494,0.20811565220356,-1.09194743633270,-0.81764471530914
433,703414868,-0.87049853801727,-0.60505658388138,8.68939971923828,0.10534707456827,-0.15372174978256,9.78678417205811,0.16364935040474,-1.05524241924286,-0.76075559854507
434,703423201,-0.87022393941879,-0.60505992174149,8.69031620025635,0.08610592037439,-0.17381408810616,9.76621246337891,0.27466148138046,-1.08889961242676,-0.79781943559647
435,703431534,-0.87006235122681,-0.60525101423264,8.69039154052734,0.10915953665972,-0.15562440454960,9.76360893249512,0.25550198554993,-1.10962128639221,-0.80465829372406
436,703439867,-0.86991256475449,-0.60470652580261,8.69132804870605,0.09665628522635,-0.14020974934101,9.78481769561768,0.25808906555176,-1.02284049987793,-0.80770653486252
437,703448200,-0.86991459131241,-0.60445529222488,8.69154644012451,0.09218584001064,-0.14532430469990,9.80261325836182,0.23698291182518,-1.05611348152161,-0.78718954324722
438,703456533,-0.86994433403015,-0.60462331771851,8.69218158721924,0.09807270020247,-0.16582466661930,9.76955318450928,0.23636814951897,-1.10839200019836,-0.81270128488541
439,703464866,-0.86992073059082,-0.60455816984177,8.69239044189453,0.10305108129978,-0.15441586077213,9.75337314605713,0.23997978866100,-1.07893562316895,-0.78857266902924
440,703473199,-0.87029081583023,-0.60501569509506,8.69239807128906,0.09375230967999,-0.15922228991985,9.78300094604492,0.19361799955368,-1.14297115802765,-0.89154195785522
441,703481532,-0.87046068906784,-0.60542929172516,8.69226646423340,0.09780075401068,-0.14352148771286,9.74617099761963,0.21577434241772,-1.13521003723145,-0.82917118072510
442,703489865,-0.87047839164734,-0.60528278350830,8.69290542602539,0.09730727225542,-0.17458659410477,9.78040409088135,0.23959554731846,-1.07099509239197,-0.81544190645218
443,703498198,-0.87105047702789,-0.60577428340912,8.69275474548340,0.10240720212460,-0.16060246527195,9.76393127441406,0.16623638570309,-1.14361155033112,-0.83257788419724
444,703506531,-0.87093991041183,-0.60607689619064,8.69285678863525,0.10342287272215,-0.15555253624916,9.78364467620850,0.25355532765388,-1.12422156333923,-0.87696743011475
445,703514864,-0.87082827091217,-0.60635620355606,8.69330787658691,0.08973234146833,-0.15533801913261,9.77247905731201,0.25089141726494,-1.12078928947449,-0.76014083623886
446,703523197,-0.87070173025131,-0.60677266120911,8.69321346282959,0.10000380873680,-0.16588838398457,9.76162147521973,0.25417003035545,-1.13687491416931,-0.91828310489655
447,703531530,-0.87101590633392,-0.60677385330200,8.69295310974121,0.09302987903357,-0.16386447846889,9.77131271362305,0.19769065082073,-1.08495497703552,-0.84541064500809
448,703539863,-0.87180835008621,-0.60648787021637,8.69330120086670,0.10019702464342,-0.15639691054821,9.79269218444824,0.14510463178158,-1.05452513694763,-0.83109229803085
449,703548196,-0.87173980474472,-0.60647219419479,8.69348239898682,0.11074746400118,-0.17949344217777,9.80015277862549,0.24479523301125,-1.08549284934998,-0.79215860366821
450,703556529,-0.87237441539764,-0.60601669549942,8.69453239440918,0.11141993850470,-0.15558202564716,9.78808784484863,0.16462267935276,-1.03341901302338,-0.76813244819641
451,703564862,-0.87215262651443,-0.60581070184708,8.69489955902100,0.09478940069675,-0.14735543727875,9.79000377655029,0.26400592923164,-1.06284987926483,-0.76895213127136
452,703573195,-0.87171339988708,-0.60614138841629,8.69524765014648,0.08612022548914,-0.16152550280094,9.75786590576172,0.29264262318611,-1.12839663028717,-0.81879740953445
453,703581528,-0.87139213085175,-0.60560381412506,8.69465541839600,0.09305133670568,-0.15358585119247,9.79410934448242,0.27407234907150,-1.01956176757812,-0.88524073362350
454,703589861,-0.87134599685669,-0.60523980855942,8.69563961029053,0.10006111860275,-0.17170399427414,9.77139854431152,0.24620401859283,-1.04548335075378,-0.77023285627365
455,703598194,-0.87149423360825,-0.60424119234085,8.69537544250488,0.07903176546097,-0.16081736981869,9.77002525329590,0.21743926405907,-0.96531099081039,-0.84410434961319
456,703606527,-0.87151086330414,-0.60322010517120,8.69613170623779,0.09924569725990,-0.15082484483719,9.77468204498291,0.23936505615711,-0.96664285659790,-0.78488421440125
457,703614860,-0.87108349800110,-0.60398077964783,8.69654560089111,0.09704262018204,-0.15529537200928,9.74020481109619,0.28739169239998,-1.17831885814667,-0.76603209972382
458,703623193,-0.87157171964645,-0.60410654544830,8.69796371459961,0.09430303424597,-0.16560235619545,9.79470348358154,0.18324421346188,-1.10521578788757,-0.71767240762711
459,703631526,-0.87065321207047,-0.60421538352966,8.69818019866943,0.09073390811682,-0.17116068303585,9.78592586517334,0.34643253684044,-1.09888911247253,-0.78793227672577
460,703639859,-0.86988121271133,-0.60349231958389,8.69889450073242,0.09270809590816,-0.15179075300694,9.77963829040527,0.33331802487373,-1.00257956981659,-0.79564207792282
461,703648192,-0.86986804008484,-0.60316610336304,8.69893836975098,0.09270799905062,-0.15108950436115,9.78073310852051,0.23790504038334,-1.04627752304077,-0.80811637639999
462,703656525,-0.87027800083160,-0.60297948122025,8.69915103912354,0.09044770151377,-0.15990179777145,9.80204868316650,0.19069798290730,-1.06612837314606,-0.86313563585281
463,703664858,-0.87006646394730,-0.60303437709808,8.69894123077393,0.10298671573400,-0.14327891170979,9.75519752502441,0.26187995076180,-1.09215259552002,-0.83747023344040
464,703673191,-0.87048178911209,-0.60326081514359,8.69996166229248,0.09302271902561,-0.16606755554676,9.77511787414551,0.19080042839050,-1.11743378639221,-0.76462322473526
465,703681524,-0.87063169479370,-0.60392779111862,8.69982910156250,0.11757127940655,-0.16152550280094,9.78016757965088,0.21866872906685,-1.16402614116669,-0.83193749189377
466,703689857,-0.87095582485199,-0.60362142324448,8.70068168640137,0.10116980969906,-0.15103228390217,9.77868747711182,0.20066191256046,-1.05339825153351,-0.79638499021530
467,703698190,-0.87110108137131,-0.60360902547836,8.70057010650635,0.08182143419981,-0.15453031659126,9.76710700988770,0.21977013349533,-1.08357179164886,-0.82643043994904
468,703706523,-0.87157446146011,-0.60324311256409,8.69981765747070,0.08362388610840,-0.13878661394119,9.78884410858154,0.18170738220215,-1.04307579994202,-0.96000874042511
469,703714856,-0.87138211727142,-0.60285985469818,8.69910907745361,0.11559700220823,-0.16090290248394,9.78156375885010,0.25898551940918,-1.03813207149506,-0.89879077672958
470,703723189,-0.87192451953888,-0.60250478982925,8.69968986511230,0.11986733973026,-0.15392202138901,9.78393077850342,0.17430487275124,-1.04625189304352,-0.83893024921417
471,703731522,-0.87225329875946,-0.60324138402939,8.70007801055908,0.10506095737219,-0.16704034805298,9.77108383178711,0.19735768437386,-1.17332410812378,-0.76872158050537
472,703739855,-0.87192970514297,-0.60223865509033,8.70013141632080,0.08315171301365,-0.15282736718655,9.77687072753906,0.27865725755692,-0.96812844276428,-0.87281781435013
473,703748188,-0.87246435880661,-0.60184216499329,8.70022106170654,0.11116948723793,-0.13485254347324,9.75054073333740,0.17253750562668,-1.03826022148132,-0.80281418561935
474,703756521,-0.87332755327225,-0.60164666175842,8.70078468322754,0.09104858338833,-0.16362157464027,9.77044773101807,0.13706177473068,-1.06543684005737,-0.82901751995087
475,703764854,-0.87391257286072,-0.60085481405258,8.70042419433594,0.08981829881668,-0.16367879509926,9.75460338592529,0.16503250598907,-0.99013102054596,-0.85593801736832
476,703773187,-0.87404847145081,-0.60071372985840,8.70130920410156,0.07291608303785,-0.16340669989586,9.79149055480957,0.22381716966629,-1.07263445854187,-0.78040170669556
477,703781520,-0.87336009740829,-0.60114282369614,8.70191669464111,0.08879539370537,-0.15939395129681,9.80968093872070,0.31899967789650,-1.13795077800751,-0.74128878116608
478,703789853,-0.87264418601990,-0.60093659162521,8.70324325561523,0.09767206758261,-0.17578826844692,9.76757144927979,0.32906606793404,-1.06454038619995,-0.73975193500519
479,703798186,-0.87294423580170,-0.59995037317276,8.70332336425781,0.09664206206799,-0.15498064458370,9.78463840484619,0.19986785948277,-0.96787226200104,-0.80248111486435
480,703806519,-0.87051618099213,-0.60097146034241,8.70313358306885,0.09034040570259,-0.16011638939381,9.76634883880615,0.24500013887882,-1.10608661174774,-0.89295059442520
481,703814852,-0.87072360515594,-0.60119169950485,8.70367908477783,0.06795910745859,-0.14584618806839,9.78389549255371,0.21170166134834,-1.11338675022125,-0.74830710887909
482,703823185,-0.87096124887466,-0.60194706916809,8.70467758178711,0.10294365137815,-0.14616803824902,9.79752159118652,0.21264936029911,-1.17959952354431,-0.77661079168320
483,703831518,-0.87104606628418,-0.60162591934204,8.70525169372559,0.09586240351200,-0.13531033694744,9.80523872375488,0.22714701294899,-1.04832661151886,-0.74497711658478
484,703839851,-0.87116074562073,-0.60183823108673,8.70576000213623,0.08856650441885,-0.16131091117859,9.77437400817871,0.22609685361385,-1.11464190483093,-0.82612305879593
485,703848184,-0.87139976024628,-0.60147744417191,8.70544719696045,0.07755118608475,-0.14207722246647,9.78453826904297,0.20683495700359,-1.04123151302338,-0.85204476118088
486,703856517,-0.87156438827515,-0.60072362422943,8.70613670349121,0.10916662216187,-0.17147482931614,9.78118419647217,0.22028243541718,-0.99932658672333,-0.82146137952805
487,703864850,-0.87167400121689,-0.60016053915024,8.70623683929443,0.09225021302700,-0.15312090516090,9.75657081604004,0.22353541851044,-1.01764070987701,-0.80053448677063
488,703873183,-0.87233167886734,-0.59943562746048,8.70705795288086,0.09622004628181,-0.16161848604679,9.73719406127930,0.16157460212708,-1.00206732749939,-0.79497623443604
489,703881516,-0.87251561880112,-0.59955555200577,8.70709323883057,0.09396690130234,-0.16023798286915,9.78084754943848,0.21413502097130,-1.09950387477875,-0.81026792526245
490,703889849,-0.87258386611938,-0.60007262229919,8.70785903930664,0.08691426366568,-0.16894333064556,9.76513957977295,0.23188567161560,-1.15127015113831,-0.81754225492477
491,703898182,-0.87298738956451,-0.59927242994308,8.70833587646484,0.10989627987146,-0.15410800278187,9.79034614562988,0.18762426078320,-0.99028468132019,-0.75573515892029
492,703906515,-0.87369602918625,-0.59898024797440,8.70876026153564,0.07614201307297,-0.17410019040108,9.78759956359863,0.15496611595154,-1.05321907997131,-0.82325428724289
493,703914848,-0.87389320135117,-0.59934288263321,8.70843029022217,0.08738622069359,-0.16042365133762,9.76125621795654,0.21244445443153,-1.12983095645905,-0.85434997081757
494,703923181,-0.87375926971436,-0.60038626194000,8.70890235900879,0.08619899302721,-0.14047501981258,9.77201366424561,0.25614234805107,-1.21241128444672,-0.82532906532288
495,703931514,-0.87404680252075,-0.60033285617828,8.70867824554443,0.09091971814632,-0.14978738129139,9.76866722106934,0.20107172429562,-1.07914042472839,-0.84156847000122
496,703939847,-0.87430399656296,-0.60003471374512,8.70910358428955,0.11365152150393,-0.15745553374290,9.76756477355957,0.20906336605549,-1.05265533924103,-0.81641536951065
497,703948180,-0.87385392189026,-0.59999907016754,8.70919704437256,0.09799394756556,-0.14981628954411,9.77706336975098,0.29077282547951,-1.08206045627594,-0.80289101600647
498,703956513,-0.87392175197601,-0.60004234313965,8.70979213714600,0.07919634878635,-0.15706244111061,9.76703548431396,0.23188567161560,-1.09325408935547,-0.84715235233307
499,703964846,-0.87367218732834,-0.59954303503036,8.70934677124023,0.10435282438993,-0.16201904416084,9.74425315856934,0.26467189192772,-1.02504324913025,-0.86661916971207
500,703973179,-0.87312823534012,-0.59949308633804,8.70945549011230,0.09726435691118,-0.16789153218269,9.78892993927002,0.30619254708290,-1.08200919628143,-0.86631178855896
501,703981512,-0.87293487787247,-0.59975522756577,8.70956707000732,0.08386000245810,-0.15708389878273,9.79162693023682,0.25855007767677,-1.11833024024963,-0.80066251754761
502,703989845,-0.87307000160217,-0.59997010231018,8.71019363403320,0.09549045562744,-0.15407223999500,9.77387332916260,0.22440630197525,-1.11428332328796,-0.80030393600464
503,703998178,-0.87312197685242,-0.60055077075958,8.71019840240479,0.10415962338448,-0.15221217274666,9.77977561950684,0.22878633439541,-1.15544533729553,-0.81516021490097
504,704006511,-0.87336015701294,-0.59991562366486,8.71101951599121,0.10172057896852,-0.16017360985279,9.78509616851807,0.21318726241589,-1.01323509216309,-0.77427983283997
505,704014844,-0.87351244688034,-0.60026240348816,8.71087074279785,0.10106967389584,-0.15912213921547,9.76700687408447,0.21741361916065,-1.12688541412354,-0.83129721879959
506,704023177,-0.87356317043304,-0.60039639472961,8.71107769012451,0.09855909645557,-0.14598983526230,9.77429580688477,0.23390918970108,-1.10431933403015,-0.84118425846100
507,704031510,-0.87372237443924,-0.60144364833832,8.71096420288086,0.08292284607887,-0.15015214681625,9.78297996520996,0.21638903021812,-1.21159172058105,-0.82891499996185
508,704039843,-0.87373375892639,-0.60129672288895,8.71111297607422,0.08419618755579,-0.13984555006027,9.81383609771729,0.23790504038334,-1.07061100006104,-0.85235220193863
509,704048176,-0.87403911352158,-0.60149157047272,8.71156692504883,0.09549760818481,-0.16309912502766,9.79468154907227,0.19981664419174,-1.10885298252106,-0.76039695739746
510,704056509,-0.87406498193741,-0.60196232795715,8.71245574951172,0.08337359875441,-0.16485187411308,9.79229927062988,0.23831480741501,-1.14619851112366,-0.77681565284729
511,704064842,-0.87418282032013,-0.60178750753403,8.71263408660889,0.09829436987638,-0.14308546483517,9.76915931701660,0.22222912311554,-1.06582117080688,-0.79208183288574
512,704073175,-0.87386178970337,-0.60232645273209,8.71205139160156,0.09161361306906,-0.17633903026581,9.76784324645996,0.27740219235420,-1.15119326114655,-0.93559849262238
513,704081508,-0.87395977973938,-0.60301852226257,8.71185398101807,0.10879466682673,-0.16005170345306,9.75476932525635,0.22409896552563,-1.16881597042084,-0.84028786420822
514,704089841,-0.87294661998749,-0.60285466909409,8.71242237091064,0.09599830210209,-0.16945800185204,9.76497554779053,0.36108383536339,-1.06881785392761,-0.81738859415054
515,704098174,-0.87260597944260,-0.60326063632965,8.71241760253906,0.10374483466148,-0.16358551383018,9.78114032745361,0.27709478139877,-1.13357090950012,-0.81441736221313
516,704106507,-0.87251114845276,-0.60421389341354,8.71424388885498,0.10637708008289,-0.16371427476406,9.78859424591064,0.25240266323090,-1.20485508441925,-0.67587000131607
517,704114840,-0.87286663055420,-0.60399562120438,8.71351432800293,0.11448840796947,-0.15096789598465,9.79759216308594,0.19284957647324,-1.05841875076294,-0.90127539634705
518,704123173,-0.87303060293198,-0.60365867614746,8.71380710601807,0.10219267010689,-0.15005949139595,9.74916076660156,0.22102522850037,-1.04794239997864,-0.85942149162292
519,704131506,-0.87266892194748,-0.60307914018631,8.71419620513916,0.08838768303394,-0.15048865973949,9.78081130981445,0.27845233678818,-1.01710295677185,-0.76598089933395
520,704139839,-0.87282568216324,-0.60275840759277,8.71510505676270,0.09110575914383,-0.16248397529125,9.77570438385010,0.22286945581436,-1.05027329921722,-0.77346026897430
521,704148172,-0.87245690822601,-0.60341757535934,8.71521377563477,0.09742895513773,-0.14323599636555,9.77235031127930,0.28088572621346,-1.16553735733032,-0.80207139253616
522,704156505,-0.87273043394089,-0.60283851623535,8.71575927734375,0.10171342641115,-0.13876515626907,9.77496814727783,0.20573353767395,-1.01917755603790,-0.83373051881790
523,704164838,-0.87215495109558,-0.60258954763412,8.71554565429688,0.11890170723200,-0.14332866668701,9.76305103302002,0.30491182208061,-1.05529356002808,-0.84013408422470
524,704173171,-0.87250787019730,-0.60322725772858,8.71600246429443,0.09323724359274,-0.16261956095695,9.77070522308350,0.19807486236095,-1.16499948501587,-0.82919681072235
525,704181504,-0.87336003780365,-0.60376048088074,8.71590042114258,0.10388074070215,-0.15923659503460,9.80294990539551,0.13419297337532,-1.14878559112549,-0.82663536071777
526,704189837,-0.87332910299301,-0.60401934385300,8.71496868133545,0.09701400995255,-0.14774912595749,9.75951099395752,0.24154222011566,-1.11722886562347,-0.99643200635910
527,704198170,-0.87386262416840,-0.60404843091965,8.71513175964355,0.11636245250702,-0.15996618568897,9.77282905578613,0.17207641899586,-1.08918130397797,-0.79479682445526
528,704206503,-0.87280631065369,-0.60375243425369,8.71554851531982,0.09920993447304,-0.14961601793766,9.79494571685791,0.36625793576241,-1.05365431308746,-0.83139967918396
529,704214836,-0.87303376197815,-0.60378026962280,8.71586608886719,0.09464641660452,-0.16300614178181,9.79567527770996,0.20942199230194,-1.08941185474396,-0.77530449628830
530,704223169,-0.87336331605911,-0.60341554880142,8.71639633178711,0.08916025608778,-0.15686929225922,9.79749965667725,0.20150719583035,-1.04427957534790,-0.82310062646866
531,704231502,-0.87377619743347,-0.60280019044876,8.71643352508545,0.10019696503878,-0.14462305605412,9.79252910614014,0.18580563366413,-1.01159560680389,-0.80880784988403
532,704239835,-0.87389892339706,-0.60232168436050,8.71734428405762,0.09271515160799,-0.15713365375996,9.81350708007812,0.22617368400097,-1.03277862071991,-0.75870639085770
533,704248168,-0.87392967939377,-0.60142445564270,8.71680736541748,0.09557628631592,-0.16583865880966,9.76864433288574,0.23147583007812,-0.97752881050110,-0.87730032205582
534,704256501,-0.87465363740921,-0.60094922780991,8.71714305877686,0.09438181668520,-0.15550310909748,9.76340866088867,0.15232785046101,-1.02988433837891,-0.85045671463013
535,704264834,-0.87464183568954,-0.60110342502594,8.71772480010986,0.08926026523113,-0.14839975535870,9.77466773986816,0.23821237683296,-1.10506224632263,-0.74431127309799
536,704273167,-0.87527579069138,-0.60048806667328,8.71817779541016,0.09476086497307,-0.15343563258648,9.78677749633789,0.16393110156059,-1.01459264755249,-0.83408921957016
537,704281500,-0.87574398517609,-0.60098975896835,8.71842861175537,0.10385213047266,-0.15836393833160,9.77951717376709,0.18001686036587,-1.14676225185394,-0.78391087055206
538,704289833,-0.87522602081299,-0.60176897048950,8.71977710723877,0.10562603175640,-0.16291315853596,9.77150630950928,0.30314445495605,-1.18395400047302,-0.72284650802612
539,704298166,-0.87478864192963,-0.60159027576447,8.71948623657227,0.08848781883717,-0.15719087421894,9.79738521575928,0.28795522451401,-1.06372070312500,-0.84930402040482
540,704306499,-0.87518072128296,-0.60245352983475,8.72059345245361,0.08572687953711,-0.15098252892494,9.81186199188232,0.19479624927044,-1.19345676898956,-0.75829654932022
541,704314832,-0.87483370304108,-0.60269385576248,8.72046852111816,0.09315853565931,-0.13817831873894,9.78676319122314,0.27778634428978,-1.11415505409241,-0.82786482572556
542,704323165,-0.87536257505417,-0.60261482000351,8.72033023834229,0.09059790521860,-0.14864322543144,9.79240608215332,0.17450977861881,-1.07788538932800,-0.89397519826889
543,704331498,-0.87530523538589,-0.60245430469513,8.72102355957031,0.10507526248693,-0.14578925073147,9.77551174163818,0.24500013887882,-1.06728124618530,-0.73127365112305
544,704339831,-0.87574207782745,-0.60246402025223,8.72148704528809,0.10428839176893,-0.15619632601738,9.77147102355957,0.18713758885860,-1.08905315399170,-0.83557468652725
545,704348164,-0.87569934129715,-0.60242593288422,8.72070980072021,0.11407361924648,-0.14674089848995,9.81051731109619,0.24154222011566,-1.08001136779785,-0.90685915946960
546,704356497,-0.87609094381332,-0.60228425264359,8.72088050842285,0.09733588993549,-0.14229150116444,9.78006744384766,0.19215798377991,-1.07104635238647,-0.85012358427048
547,704364830,-0.87602180242538,-0.60228216648102,8.72059726715088,0.09158500283957,-0.15020969510078,9.79622650146484,0.24269489943981,-1.08459627628326,-0.84763902425766
548,704373163,-0.87655127048492,-0.60302901268005,8.72098350524902,0.09423155337572,-0.13224890828133,9.77932357788086,0.17602102458477,-1.17793452739716,-0.85867881774902
549,704381496,-0.87590456008911,-0.60304492712021,8.72058677673340,0.10258617252111,-0.14994536340237,9.78521060943604,0.31395366787910,-1.08764445781708,-0.86198300123215
550,704389829,-0.87530773878098,-0.60373061895370,8.72055244445801,0.10776472836733,-0.16294892132282,9.78331565856934,0.31141787767410,-1.16940498352051,-0.86869394779205
551,704398162,-0.87532001733780,-0.60446029901505,8.72057914733887,0.09446051716805,-0.12226387113333,9.76257896423340,0.23508742451668,-1.17401564121246,-0.81316226720810
552,704406495,-0.87562286853790,-0.60458356142044,8.72154903411865,0.11538250744343,-0.16238383948803,9.79481697082520,0.20317210257053,-1.10388386249542,-0.78311675786972
553,704414828,-0.87542784214020,-0.60389184951782,8.72209453582764,0.11893747001886,-0.15940110385418,9.78481769561768,0.25952345132828,-1.00357854366302,-0.74669343233109
554,704423161,-0.87551862001419,-0.60330283641815,8.72256183624268,0.09989660233259,-0.16202619671822,9.78298664093018,0.22955478727818,-1.01792252063751,-0.81136935949326
555,704431494,-0.87551224231720,-0.60278493165970,8.72219753265381,0.10927391052246,-0.16392141580582,9.77855968475342,0.23736710846424,-1.02281475067139,-0.85724437236786
556,704439827,-0.87503373622894,-0.60264194011688,8.72340583801270,0.09413141012192,-0.17268393933773,9.77081966400146,0.29730445146561,-1.07304441928864,-0.72630441188812
557,704448160,-0.87489944696426,-0.60349351167679,8.72306537628174,0.09791526943445,-0.15148290991783,9.79396629333496,0.25171107053757,-1.18725812435150,-0.85588681697845
558,704456493,-0.87446576356888,-0.60393130779266,8.72350215911865,0.07815911620855,-0.16027374565601,9.79499626159668,0.29248896241188,-1.14053785800934,-0.84021103382111
559,704464826,-0.87370598316193,-0.60465824604034,8.72305679321289,0.08835201710463,-0.15440876781940,9.77797222137451,0.32578742504120,-1.17235064506531,-0.86882209777832
560,704473159,-0.87418729066849,-0.60475677251816,8.72411918640137,0.09798679500818,-0.15837824344635,9.77698516845703,0.18388457596302,-1.10214209556580,-0.74466979503632
561,704481492,-0.87412697076797,-0.60447454452515,8.72380638122559,0.09660622477531,-0.16065971553326,9.76463222503662,0.24246434867382,-1.04981231689453,-0.85043108463287
562,704489825,-0.87486648559570,-0.60466766357422,8.72417831420898,0.09345904737711,-0.16222648322582,9.77998924255371,0.15196925401688,-1.11282324790955,-0.81782406568527
563,704498158,-0.87442356348038,-0.60434544086456,8.72416210174561,0.10714967548847,-0.14817143976688,9.78100490570068,0.28874927759171,-1.04704582691193,-0.81574922800064
564,704506491,-0.87450629472733,-0.60535705089569,8.72560882568359,0.11308644711971,-0.16128945350647,9.81314945220947,0.23211622238159,-1.21107947826385,-0.71449631452560
565,704514824,-0.87504720687866,-0.60496670007706,8.72551345825195,0.07634939253330,-0.15222652256489,9.78010463714600,0.17023220658302,-1.03859329223633,-0.82440692186356
566,704523157,-0.87456434965134,-0.60554236173630,8.72573852539062,0.09682088345289,-0.15574599802494,9.79016780853271,0.29784229397774,-1.15752017498016,-0.85693711042404
567,704531490,-0.87440603971481,-0.60579138994217,8.72604179382324,0.10210683196783,-0.18021588027477,9.80231285095215,0.25601428747177,-1.11587131023407,-0.77658516168594
568,704539823,-0.87494057416916,-0.60639184713364,8.72613143920898,0.10771472007036,-0.15046039223671,9.78712749481201,0.17404873669147,-1.15987658500671,-0.87163954973221
569,704548156,-0.87510025501251,-0.60666853189468,8.72596740722656,0.10658451169729,-0.14096108078957,9.76385974884033,0.21695256233215,-1.11917555332184,-0.83414036035538
570,704556489,-0.87543529272079,-0.60627180337906,8.72633647918701,0.09563357383013,-0.16138988733292,9.79344367980957,0.19997031986713,-1.03956651687622,-0.84850984811783
571,704564822,-0.87590265274048,-0.60646671056747,8.72641658782959,0.11044704914093,-0.14559611678123,9.78674888610840,0.17988876998425,-1.10972404479980,-0.80453038215637
572,704573155,-0.87643843889236,-0.60669380426407,8.72674751281738,0.08362388610840,-0.16317780315876,9.77744960784912,0.17504768073559,-1.11489796638489,-0.84144043922424
573,704581488,-0.87673646211624,-0.60598087310791,8.72680854797363,0.08290144801140,-0.15262021124363,9.76363086700439,0.20155841112137,-1.00127315521240,-0.80624645948410
574,704589821,-0.87682759761810,-0.60621160268784,8.72732257843018,0.08914580941200,-0.14226259291172,9.77396678924561,0.22827407717705,-1.11556398868561,-0.83782887458801
575,704598154,-0.87656122446060,-0.60572063922882,8.72765254974365,0.11371589452028,-0.15802775323391,9.80327892303467,0.26874455809593,-1.02768146991730,-0.77346020936966
576,704606487,-0.87673097848892,-0.60517817735672,8.72836875915527,0.09295126050711,-0.16159731149673,9.78146266937256,0.21930906176567,-1.02299404144287,-0.80417168140411
577,704614820,-0.87649792432785,-0.60479384660721,8.72782516479492,0.10388074070215,-0.14967323839664,9.76154899597168,0.26477435231209,-1.03818333148956,-0.87778699398041
578,704623153,-0.87671333551407,-0.60508245229721,8.72869968414307,0.11069024354219,-0.14778488874435,9.77706336975098,0.21300797164440,-1.12419593334198,-0.76539176702499
579,704631486,-0.87669688463211,-0.60500192642212,8.72844600677490,0.09343758970499,-0.16040965914726,9.75821590423584,0.23844289779663,-1.07478606700897,-0.84448850154877
580,704639819,-0.87686133384705,-0.60521948337555,8.72886753082275,0.10567609965801,-0.14964462816715,9.79694175720215,0.22002626955509,-1.11535906791687,-0.83744466304779
581,704648152,-0.87679207324982,-0.60549944639206,8.72880172729492,0.10057612508535,-0.17247650027275,9.76259326934814,0.24464155733585,-1.11927795410156,-0.82317751646042
582,704656485,-0.87698876857758,-0.60612082481384,8.72955226898193,0.09855908900499,-0.14084693789482,9.80616855621338,0.21702940762043,-1.16397476196289,-0.77438229322433
583,704664818,-0.87689346075058,-0.60555237531662,8.72983551025391,0.11257144063711,-0.14116850495338,9.78317928314209,0.24771527945995,-1.01797378063202,-0.77876245975494
584,704673151,-0.87682098150253,-0.60527902841568,8.73097801208496,0.10102675110102,-0.16161848604679,9.75531196594238,0.24920089542866,-1.05665123462677,-0.74351716041565
585,704681484,-0.87654292583466,-0.60535043478012,8.73069763183594,0.11600480973721,-0.15339986979961,9.80694103240967,0.26961544156075,-1.09432971477509,-0.84827941656113
586,704689817,-0.87660330533981,-0.60528337955475,8.73074722290039,0.10935266315937,-0.14448027312756,9.79790687561035,0.23203934729099,-1.07893550395966,-0.88168036937714
587,704698150,-0.87628597021103,-0.60536962747574,8.73025131225586,0.10563318431377,-0.15669733285904,9.81131839752197,0.27309894561768,-1.09445774555206,-0.87427783012390
588,704706483,-0.87681740522385,-0.60521000623703,8.73085212707520,0.10359462350607,-0.15548135340214,9.78264331817627,0.17701998353004,-1.06991934776306,-0.80581098794937
589,704714816,-0.87661153078079,-0.60490858554840,8.73085308074951,0.11248552799225,-0.16548788547516,9.77592658996582,0.26031744480133,-1.04960727691650,-0.81354653835297
590,704723149,-0.87667959928513,-0.60544282197952,8.73144435882568,0.08997561037540,-0.16180446743965,9.77155590057373,0.23203934729099,-1.15221786499023,-0.81375139951706
591,704731482,-0.87731474637985,-0.60606610774994,8.73113632202148,0.08123483508825,-0.15156158804893,9.76249313354492,0.15939739346504,-1.16069626808167,-0.85207033157349
592,704739815,-0.87761449813843,-0.60609436035156,8.73234939575195,0.09516148269176,-0.15593941509724,9.77296543121338,0.20557983219624,-1.09235739707947,-0.75253337621689
593,704748148,-0.87777334451675,-0.60562974214554,8.73231697082520,0.08883824199438,-0.16965800523758,9.79521083831787,0.21659396588802,-1.03067839145660,-0.81733745336533
594,704756481,-0.87783074378967,-0.60649371147156,8.73270893096924,0.09164930135012,-0.16509443521500,9.78719234466553,0.23255164921284,-1.19153571128845,-0.84628146886826
595,704764814,-0.87862563133240,-0.60706746578217,8.73288440704346,0.10222123563290,-0.15077447891235,9.79897308349609,0.14013546705246,-1.15452325344086,-0.79400277137756
596,704773147,-0.87837541103363,-0.60698086023331,8.73355865478516,0.09127019345760,-0.14626105129719,9.79705619812012,0.27023017406464,-1.07826960086823,-0.81777286529541
597,704781480,-0.87802672386169,-0.60743266344070,8.73351764678955,0.11314358562231,-0.14612512290478,9.76928901672363,0.27758145332336,-1.13999974727631,-0.82005250453949
598,704789813,-0.87808418273926,-0.60768002271652,8.73425292968750,0.09152062237263,-0.15988749265671,9.78390884399414,0.23372989892960,-1.11891937255859,-0.79828047752380
599,704798146,-0.87888884544373,-0.60790026187897,8.73471641540527,0.13115456700325,-0.16111807525158,9.75207901000977,0.13918773829937,-1.11290001869202,-0.75903940200806
600,704806479,-0.87897163629532,-0.60740524530411,8.73494815826416,0.10810799151659,-0.15083171427250,9.77257251739502,0.23024635016918,-1.02757906913757,-0.85324853658676
601,704814812,-0.87798911333084,-0.60785335302353,8.73496818542480,0.10061904042959,-0.17666806280613,9.75684261322021,0.35416805744171,-1.14040982723236,-0.81216341257095
602,704823145,-0.87883877754211,-0.60740911960602,8.73513031005859,0.10227850079536,-0.14950157701969,9.77302265167236,0.13793265819550,-1.03454625606537,-0.85575872659683
603,704831478,-0.87942528724670,-0.60796368122101,8.73548793792725,0.11435255408287,-0.13958802819252,9.79368686676025,0.16644129157066,-1.15352416038513,-0.77179527282715
604,704839811,-0.87991797924042,-0.60869663953781,8.73578548431396,0.08958935737610,-0.16606040298939,9.78861522674561,0.17973506450653,-1.17450213432312,-0.85294115543365
605,704848144,-0.87950307130814,-0.60852938890457,8.73629379272461,0.10786487162113,-0.15960139036179,9.76988983154297,0.28649520874023,-1.06725537776947,-0.75243091583252
606,704856477,-0.87998503446579,-0.60864412784576,8.73672008514404,0.08820891380310,-0.15370775759220,9.77476024627686,0.18211719393730,-1.10147607326508,-0.84169644117355
607,704864810,-0.88020533323288,-0.60892736911774,8.73667430877686,0.09543322771788,-0.14675487577915,9.78965282440186,0.21054899692535,-1.11976468563080,-0.81956583261490
608,704873143,-0.88051718473434,-0.60856533050537,8.73682403564453,0.11996033042669,-0.14919400215149,9.78648376464844,0.20209632813931,-1.04484307765961,-0.82399713993073
609,704881476,-0.88129544258118,-0.60906922817230,8.73751831054688,0.09282243996859,-0.14536006748676,9.79413795471191,0.14221023023129,-1.14837574958801,-0.73186272382736
610,704889809,-0.88093394041061,-0.60842353105545,8.73824882507324,0.08635619282722,-0.14897200465202,9.75773715972900,0.28459975123405,-1.01149332523346,-0.79308068752289
611,704898142,-0.88171064853668,-0.60853081941605,8.73853015899658,0.09737880527973,-0.14755599200726,9.78156280517578,0.14213337004185,-1.09873545169830,-0.78068339824677
612,704906475,-0.88145112991333,-0.60870325565338,8.73862361907959,0.07887440174818,-0.16815619170666,9.81920146942139,0.27151089906693,-1.10933971405029,-0.84589737653732
613,704914808,-0.88187491893768,-0.60886222124100,8.73829269409180,0.09033319354057,-0.15771271288395,9.79721355438232,0.18552389740944,-1.10303854942322,-0.85370963811874
614,704923141,-0.88186234235764,-0.60876858234406,8.73877716064453,0.07501901686192,-0.15255583822727,9.79872989654541,0.24087628722191,-1.07719397544861,-0.82968360185623
615,704931474,-0.88146430253983,-0.60848790407181,8.73797702789307,0.09767197817564,-0.14845693111420,9.78318691253662,0.28260186314583,-1.05037569999695,-0.90934377908707
616,704939807,-0.88155090808868,-0.60813575983047,8.73797893524170,0.07755827903748,-0.16947945952415,9.79222774505615,0.22832530736923,-1.04645669460297,-0.87322771549225
617,704948140,-0.88115990161896,-0.60778802633286,8.73772239685059,0.08997561037540,-0.16699741780758,9.77000427246094,0.28388252854347,-1.04330623149872,-0.84448850154877
618,704956473,-0.88124734163284,-0.60738641023636,8.73844623565674,0.10319406539202,-0.17962934076786,9.76330852508545,0.22883756458759,-1.04033493995667,-0.80348002910614
619,704964806,-0.88138467073441,-0.60754621028900,8.73799228668213,0.09339466691017,-0.16991578042507,9.79488849639893,0.21877117455006,-1.10380709171295,-0.86964160203934
620,704973139,-0.88185548782349,-0.60749399662018,8.73845386505127,0.09242903441191,-0.17152518033981,9.77712821960449,0.18337230384350,-1.08308506011963,-0.84154278039932
621,704981472,-0.88240385055542,-0.60749816894531,8.73875236511230,0.10152745246887,-0.15447995066643,9.78969573974609,0.17107747495174,-1.08669650554657,-0.77766090631485
622,704989805,-0.88307023048401,-0.60650777816772,8.73862075805664,0.08321612328291,-0.16642491519451,9.76668548583984,0.15880824625492,-0.96759057044983,-0.88249999284744
623,704998138,-0.88376098871231,-0.60608428716660,8.73922252655029,0.08429625630379,-0.14508827030659,9.76857280731201,0.15296821296215,-1.03662085533142,-0.74075090885162
624,705006471,-0.88399994373322,-0.60617876052856,8.74000453948975,0.09742165356874,-0.16436488926411,9.80737113952637,0.21193216741085,-1.10055398941040,-0.79574465751648
625,705014804,-0.88452029228210,-0.60618567466736,8.74020385742188,0.09262936562300,-0.15250606834888,9.80324268341064,0.17433048784733,-1.08585143089294,-0.79128777980804
626,705023137,-0.88476049900055,-0.60553634166718,8.74147987365723,0.10737121105194,-0.14628228545189,9.79214763641357,0.21190655231476,-1.01274836063385,-0.72914749383926
627,705031470,-0.88465410470963,-0.60571241378784,8.74129962921143,0.10185648500919,-0.15037421882153,9.75149250030518,0.24835562705994,-1.10590732097626,-0.83685541152954
628,705039803,-0.88457989692688,-0.60569179058075,8.74173164367676,0.11307929456234,-0.14634716510773,9.78672027587891,0.24963632225990,-1.08605635166168,-0.81193280220032
629,705048136,-0.88542360067368,-0.60518902540207,8.74134159088135,0.09165652841330,-0.13892966508865,9.77134132385254,0.13406491279602,-1.02465915679932,-0.86054861545563
630,705056469,-0.88522446155548,-0.60500824451447,8.74176979064941,0.10743570327759,-0.16206911206245,9.76669216156006,0.26441574096680,-1.06674337387085,-0.82550841569901
631,705064802,-0.88592892885208,-0.60518890619278,8.74199295043945,0.10516825318336,-0.14819259941578,9.78031826019287,0.15153381228447,-1.10798203945160,-0.78762495517731
632,705073135,-0.88604462146759,-0.60499465465546,8.74281311035156,0.09012582153082,-0.16153980791569,9.80312824249268,0.22517473995686,-1.06556510925293,-0.78616499900818
633,705081468,-0.88640969991684,-0.60451817512512,8.74264240264893,0.09954611212015,-0.16123223304749,9.78343677520752,0.19377167522907,-1.02829623222351,-0.83421719074249
634,705089801,-0.88570553064346,-0.60489892959595,8.74265289306641,0.08075569570065,-0.17342102527618,9.78079032897949,0.32235512137413,-1.13369882106781,-0.88121938705444
635,705098134,-0.88576006889343,-0.60502040386200,8.74208259582520,0.10279358178377,-0.15096822381020,9.76420974731445,0.22888879477978,-1.09932446479797,-0.88278180360794
636,705106467,-0.88593107461929,-0.60448527336121,8.74269294738770,0.09998959302902,-0.15476606786251,9.78306484222412,0.21946275234222,-1.02360892295837,-0.80319839715958
637,705114800,-0.88546824455261,-0.60369861125946,8.74255275726318,0.08377418667078,-0.15319986641407,9.78722095489502,0.29213038086891,-0.99218028783798,-0.82860779762268
638,705123133,-0.88568121194839,-0.60431283712387,8.74298095703125,0.10335149616003,-0.13895145058632,9.77810764312744,0.21400694549084,-1.16128528118134,-0.81382822990417
639,705131466,-0.88552153110504,-0.60453230142593,8.74263286590576,0.09084102511406,-0.14370030164719,9.79662036895752,0.25529709458351,-1.11272072792053,-0.85678333044052
640,705139799,-0.88530814647675,-0.60403800010681,8.74264812469482,0.08496146649122,-0.16498032212257,9.77610492706299,0.26467186212540,-1.02786064147949,-0.87673681974411
641,705148132,-0.88588160276413,-0.60395890474319,8.74289608001709,0.10257892310619,-0.14686216413975,9.75493240356445,0.16751708090305,-1.07727062702179,-0.78296309709549
642,705156465,-0.88615041971207,-0.60421431064606,8.74362182617188,0.09705692529678,-0.15742692351341,9.77152061462402,0.20737285912037,-1.11866331100464,-0.80161035060883
643,705164798,-0.88667964935303,-0.60369318723679,8.74392032623291,0.10006122291088,-0.16686920821667,9.77785873413086,0.17351083457470,-1.02299416065216,-0.77848064899445
644,705173131,-0.88586223125458,-0.60376322269440,8.74394321441650,0.10822966694832,-0.13891535997391,9.80518150329590,0.33769804239273,-1.09755706787109,-0.83659929037094
645,705181464,-0.88581538200378,-0.60378497838974,8.74411296844482,0.07923919707537,-0.15035991370678,9.79249954223633,0.24282294511795,-1.08848965167999,-0.79320877790451
646,705189797,-0.88585841655731,-0.60397964715958,8.74483013153076,0.08359535038471,-0.17279152572155,9.74373817443848,0.23475445806980,-1.11228537559509,-0.79641062021255
647,705198130,-0.88609260320663,-0.60370743274689,8.74482631683350,0.08476833999157,-0.15126116573811,9.75733566284180,0.20688617229462,-1.05321884155273,-0.81446850299835
648,705206463,-0.88667732477188,-0.60393553972244,8.74522304534912,0.10077640414238,-0.16636797785759,9.78692722320557,0.16995044052601,-1.11494910717010,-0.84520566463470
649,705214796,-0.88686281442642,-0.60326123237610,8.74431133270264,0.11106219142675,-0.15513801574707,9.77231407165527,0.21203462779522,-1.00396263599396,-0.92125433683395
650,705223129,-0.88698416948318,-0.60285067558289,8.74518775939941,0.08421041816473,-0.14162628352642,9.75236511230469,0.22604562342167,-1.03946399688721,-0.76751762628555
651,705231462,-0.88650566339493,-0.60275387763977,8.74481487274170,0.11144844442606,-0.15595343708992,9.78115463256836,0.29364156723022,-1.07414567470551,-0.85929352045059
652,705239795,-0.88564854860306,-0.60193657875061,8.74482631683350,0.10080501437187,-0.15271319448948,9.80081081390381,0.34120720624924,-0.98987489938736,-0.87384241819382
653,705248128,-0.88597011566162,-0.60233521461487,8.74467086791992,0.10920967161655,-0.14403712749481,9.77275085449219,0.19766505062580,-1.13321220874786,-0.83319264650345
654,705256461,-0.88681155443192,-0.60324084758759,8.74551773071289,0.09637736529112,-0.15447250008583,9.76531219482422,0.13957194983959,-1.19816970825195,-0.75486427545547
655,705264794,-0.88737320899963,-0.60234582424164,8.74485015869141,0.09791526943445,-0.15875734388828,9.81593894958496,0.16772203147411,-0.97588956356049,-0.89277142286301
656,705273127,-0.88723641633987,-0.60243535041809,8.74544906616211,0.10356601327658,-0.16927203536034,9.76997566223145,0.25737184286118,-1.09993922710419,-0.80437660217285
657,705281460,-0.88707780838013,-0.60236483812332,8.74536228179932,0.10297948122025,-0.16001625359058,9.78934478759766,0.25457990169525,-1.07824397087097,-0.82435584068298
658,705289793,-0.88770848512650,-0.60221785306931,8.74546146392822,0.08651368319988,-0.16408653557301,9.76756477355957,0.16316266357899,-1.06953513622284,-0.86562025547028
659,705298126,-0.88671445846558,-0.60177654027939,8.74595642089844,0.08357381820679,-0.16562408208847,9.80644798278809,0.35693433880806,-1.03298366069794,-0.75332742929459
660,705306459,-0.88648259639740,-0.60289144515991,8.74689865112305,0.07279455661774,-0.15333582460880,9.78031826019287,0.26795050501823,-1.22396337985992,-0.76941317319870
661,705314792,-0.88608610630035,-0.60309439897537,8.74628925323486,0.09240757673979,-0.15370029211044,9.79093265533447,0.28324222564697,-1.10933983325958,-0.88664960861206
662,705323125,-0.88633382320404,-0.60274189710617,8.74649620056152,0.11194914579391,-0.17331337928772,9.79310703277588,0.20908898115158,-1.04422819614410,-0.85475969314575
663,705331458,-0.88651967048645,-0.60283207893372,8.74669742584229,0.10688493400812,-0.15928666293621,9.78556156158447,0.21523642539978,-1.09786450862885,-0.78949475288391
664,705339791,-0.88662725687027,-0.60357856750488,8.74743843078613,0.08544071018696,-0.15415807068348,9.78545379638672,0.22722390294075,-1.17813956737518,-0.78409016132355
665,705348124,-0.88739824295044,-0.60395777225494,8.74759006500244,0.09423155337572,-0.15476606786251,9.77975273132324,0.14292743802071,-1.13070213794708,-0.79694855213165
666,705356457,-0.88689190149307,-0.60383909940720,8.74823284149170,0.09503266960382,-0.15129692852497,9.75169277191162,0.30127462744713,-1.07540082931519,-0.80591344833374
667,705364790,-0.88637059926987,-0.60409641265869,8.74837017059326,0.08833752572536,-0.17803397774696,9.78416728973389,0.29799604415894,-1.11661422252655,-0.79735833406448
668,705373123,-0.88684040307999,-0.60400807857513,8.74901771545410,0.07393893599510,-0.15925805270672,9.79058265686035,0.18337228894234,-1.07893538475037,-0.78913605213165
669,705381456,-0.88737684488297,-0.60424107313156,8.74835205078125,0.09426016360521,-0.15851415693760,9.77858734130859,0.17240940034389,-1.11179852485657,-0.89502537250519
670,705389789,-0.88683468103409,-0.60388177633286,8.74863910675049,0.10287933796644,-0.15706928074360,9.75770092010498,0.30429705977440,-1.04658472537994,-0.82407391071320
671,705398122,-0.88663733005524,-0.60352581739426,8.74894809722900,0.10431713610888,-0.14691253006458,9.77363777160645,0.26047113537788,-1.04284512996674,-0.77694374322891
672,705406455,-0.88706827163696,-0.60347509384155,8.74973869323730,0.09085535258055,-0.14814224839211,9.79937362670898,0.18772672116756,-1.08285462856293,-0.80099552869797
673,705414788,-0.88739979267120,-0.60335505008698,8.75006294250488,0.08141360431910,-0.17488673329353,9.79895210266113,0.19607698917389,-1.07222473621368,-0.77392131090164
674,705423121,-0.88819783926010,-0.60374975204468,8.75082015991211,0.10668465495110,-0.15685468912125,9.75794410705566,0.14484849572182,-1.13646519184113,-0.78224593400955
675,705431454,-0.88891333341599,-0.60374951362610,8.75067329406738,0.09672074019909,-0.15526676177979,9.79910182952881,0.15091906487942,-1.08549284934998,-0.83147650957108
676,705439787,-0.88897967338562,-0.60415649414062,8.75132465362549,0.10226419568062,-0.16338524222374,9.78484630584717,0.23093792796135,-1.13705420494080,-0.81738865375519
677,705448120,-0.88920927047729,-0.60484862327576,8.75137615203857,0.10025431215763,-0.15199823677540,9.76674938201904,0.20975498855114,-1.16891860961914,-0.80862861871719
678,705456453,-0.88937020301819,-0.60448360443115,8.75224304199219,0.10541144758463,-0.15088921785355,9.78560447692871,0.22061538696289,-1.04504787921906,-0.78537082672119
679,705464786,-0.89014339447021,-0.60384708642960,8.75313282012939,0.09488961100578,-0.16721200942993,9.77340888977051,0.14420814812183,-1.01026380062103,-0.70719629526138
680,705473119,-0.89012545347214,-0.60383981466293,8.75321960449219,0.09996098279953,-0.14657606184483,9.80385112762451,0.24151660501957,-1.08682489395142,-0.86059993505478
681,705481452,-0.89013558626175,-0.60356038808823,8.75340557098389,0.10757167637348,-0.15870040655136,9.76646995544434,0.23588149249554,-1.05350065231323,-0.79185128211975
682,705489785,-0.89000385999680,-0.60372143983841,8.75306701660156,0.07759404182434,-0.14025294780731,9.77720642089844,0.25337600708008,-1.10639405250549,-0.89617800712585
683,705498118,-0.88985604047775,-0.60416382551193,8.75268363952637,0.07562700659037,-0.14795655012131,9.77410984039307,0.25391390919685,-1.13836061954498,-0.86059981584549
684,705506451,-0.88967722654343,-0.60347723960876,8.75291442871094,0.08737197518349,-0.16063854098320,9.77704238891602,0.26031744480133,-1.00475668907166,-0.86766934394836
685,705514784,-0.88962626457214,-0.60343283414841,8.75327396392822,0.09858763217926,-0.14957310259342,9.79325008392334,0.24343767762184,-1.08103609085083,-0.77020722627640
686,705523117,-0.88910025358200,-0.60272568464279,8.75343608856201,0.10056172311306,-0.14864295721054,9.77609157562256,0.30178689956665,-1.00388586521149,-0.84830504655838
687,705531450,-0.88923287391663,-0.60360133647919,8.75369644165039,0.11018245667219,-0.14237764477730,9.80576801300049,0.22128136456013,-1.19168949127197,-0.78365474939346
688,705539783,-0.88909810781479,-0.60408407449722,8.75450706481934,0.08843067288399,-0.16490195691586,9.75991821289062,0.25619357824326,-1.14663398265839,-0.80145657062531
689,705548116,-0.88980615139008,-0.60342603921890,8.75489521026611,0.09330158680677,-0.16657488048077,9.78764820098877,0.15122643113136,-1.00713884830475,-0.76562219858170
690,705556449,-0.89002859592438,-0.60296177864075,8.75514316558838,0.08846636116505,-0.14237017929554,9.77889442443848,0.21339218318462,-1.03208720684052,-0.85504156351089
691,705564782,-0.89004123210907,-0.60271364450455,8.75521469116211,0.10618395358324,-0.15513086318970,9.78353691101074,0.23480565845966,-1.05693292617798,-0.80432534217834
692,705573115,-0.89016765356064,-0.60256808996201,8.75627231597900,0.11114802956581,-0.14442305266857,9.79487419128418,0.22494420409203,-1.07055962085724,-0.77591913938522
693,705581448,-0.89053755998611,-0.60295164585114,8.75672054290771,0.09548330307007,-0.16900737583637,9.77764320373535,0.19210673868656,-1.13336586952209,-0.76093477010727
694,705589781,-0.89056408405304,-0.60283029079437,8.75718593597412,0.10366615653038,-0.16083882749081,9.75810909271240,0.23639374971390,-1.07371020317078,-0.82896625995636
695,705598114,-0.88991081714630,-0.60311150550842,8.75769901275635,0.08148510009050,-0.15200479328632,9.75665760040283,0.31648945808411,-1.11996960639954,-0.75196987390518
