sep=,
DeviceTag:,Xsens DOT
FirmwareVersion:,3.0.0
AppVersion:,2023.6.0
StartTime: ,2025-03-06_12:19:49_000 PST
© Movella Technologies B. V. 2005-2025

PacketCounter,SampleTimeFine,Euler_X,Euler_Y,Euler_Z,Acc_X,Acc_Y,Acc_Z,Gyr_X,Gyr_Y,Gyr_Z
0,613251808,-0.93184936046600,-0.52603638172150,4.96283483505249,0.00000000000000,0.00000000000000,0.00000000000000,0.00000000000000,0.00000000000000,0.00000000000000
1,613260141,-0.93195831775665,-0.52635055780411,4.96370840072632,0.09664206206799,-0.15550996363163,9.76743602752686,0.25128841400146,-1.10446012020111,-0.77693086862564
2,613268474,-0.93206024169922,-0.52640658617020,4.96343135833740,0.09089832752943,-0.14551743865013,9.78857994079590,0.25028946995735,-1.07377409934998,-0.84429639577866
3,613276807,-0.93182694911957,-0.52679264545441,4.96415615081787,0.09414572268724,-0.13848619163036,9.80452346801758,0.29214313626289,-1.11291289329529,-0.80064964294434
4,613285140,-0.93172949552536,-0.52620869874954,4.96382188796997,0.08617021143436,-0.13789223134518,9.78064823150635,0.27498161792755,-0.99667543172836,-0.85013651847839
5,613293473,-0.93137091398239,-0.52614414691925,4.96409225463867,0.10484637320042,-0.15950839221478,9.77413845062256,0.30564182996750,-1.05807268619537,-0.83269315958023
6,613301806,-0.93185907602310,-0.52571296691895,4.96407032012939,0.09001852571964,-0.13515296578407,9.78690624237061,0.20492668449879,-1.01634728908539,-0.81204807758331
7,613310139,-0.93255209922791,-0.52539330720901,4.96472120285034,0.09363792836666,-0.17087455093861,9.77441024780273,0.17995281517506,-1.02771985530853,-0.79918974637985
8,613318472,-0.93274438381195,-0.52538764476776,4.96445369720459,0.09066943824291,-0.14319276809692,9.77749252319336,0.24017186462879,-1.06624376773834,-0.84275954961777
9,613326805,-0.93295282125473,-0.52489787340164,4.96483278274536,0.09553337097168,-0.14515264332294,9.77556133270264,0.23807150125504,-1.00715160369873,-0.83225768804550
10,613335138,-0.93285584449768,-0.52505695819855,4.96485137939453,0.08945345133543,-0.13686965405941,9.78439521789551,0.27562198042870,-1.08609485626221,-0.80979412794113
11,613343471,-0.93379712104797,-0.52486699819565,4.96592807769775,0.11035405844450,-0.15882888436317,9.79587554931641,0.15095749497414,-1.04488146305084,-0.75574797391891
12,613351804,-0.93363481760025,-0.52529549598694,4.96580266952515,0.08302304893732,-0.16161848604679,9.78425216674805,0.28289642930031,-1.11834311485291,-0.82728856801987
13,613360137,-0.93370461463928,-0.52531266212463,4.96634721755981,0.09966056048870,-0.14921545982361,9.75067710876465,0.25484880805016,-1.06875383853912,-0.80648976564407
14,613368470,-0.93316715955734,-0.52514183521271,4.96669626235962,0.10290079563856,-0.16304190456867,9.79322910308838,0.32933503389359,-1.04708421230316,-0.76883685588837
15,613376803,-0.93304365873337,-0.52574926614761,4.96725177764893,0.07702888548374,-0.14843548834324,9.80729961395264,0.27715879678726,-1.13934671878815,-0.81696599721909
16,613385136,-0.93209373950958,-0.52488946914673,4.96672344207764,0.09207866340876,-0.16011667251587,9.79617595672607,0.37679821252823,-0.96299284696579,-0.87324047088623
17,613393469,-0.93193310499191,-0.52503222227097,4.96729898452759,0.09861624240875,-0.16593880951405,9.76043319702148,0.28312695026398,-1.08361029624939,-0.80974286794662
18,613401802,-0.93135327100754,-0.52468794584274,4.96759176254272,0.09925990551710,-0.15116792917252,9.78353786468506,0.33335644006729,-1.02625989913940,-0.77577829360962
19,613410135,-0.93086075782776,-0.52460497617722,4.96755647659302,0.08854514360428,-0.16228401660919,9.76573371887207,0.32170197367668,-1.05553698539734,-0.87124258279800
20,613418468,-0.93054008483887,-0.52459907531738,4.96722269058228,0.09601261466742,-0.14714112877846,9.76903057098389,0.30208146572113,-1.06619250774384,-0.85062307119370
21,613426801,-0.92995393276215,-0.52467072010040,4.96791458129883,0.09105569124222,-0.14562472701073,9.77390956878662,0.33399683237076,-1.07513189315796,-0.80244272947311
22,613435134,-0.92880159616470,-0.52449387311935,4.96788167953491,0.08778683841228,-0.16434371471405,9.77447414398193,0.40097802877426,-1.04618763923645,-0.81478881835938
23,613443467,-0.92814874649048,-0.52453255653381,4.96798181533813,0.10258607566357,-0.14971615374088,9.80689144134521,0.34150180220604,-1.07023954391479,-0.85866606235504
24,613451800,-0.92777407169342,-0.52432525157928,4.96874237060547,0.07787299901247,-0.14722695946693,9.74686431884766,0.30968889594078,-1.04393386840820,-0.71899157762527
25,613460133,-0.92824810743332,-0.52489691972733,4.96983814239502,0.10224989056587,-0.15575315058231,9.79018211364746,0.20607933402061,-1.13586330413818,-0.74678301811218
26,613468466,-0.92845666408539,-0.52462011575699,4.96983814239502,0.07323087751865,-0.14195559918880,9.80280685424805,0.23942908644676,-1.03420031070709,-0.81020385026932
27,613476799,-0.92882686853409,-0.52453786134720,4.97028541564941,0.09565490484238,-0.14535263180733,9.81217765808105,0.21898888051510,-1.05571639537811,-0.82997804880142
28,613485132,-0.92931866645813,-0.52432215213776,4.97011423110962,0.09590531885624,-0.16454400122166,9.79146194458008,0.20418386161327,-1.04075753688812,-0.83156609535217
29,613493465,-0.92951864004135,-0.52442032098770,4.97108459472656,0.09971778094769,-0.15562440454960,9.80083942413330,0.23860940337181,-1.07905077934265,-0.76225399971008
30,613501798,-0.92983323335648,-0.52405142784119,4.97166204452515,0.09049061685801,-0.16714763641357,9.77543258666992,0.22695492208004,-1.02469742298126,-0.74002093076706
31,613510131,-0.92991960048676,-0.52384638786316,4.97219848632812,0.10851585119963,-0.16953696310520,9.77601909637451,0.25431090593338,-1.04165399074554,-0.78861099481583
32,613518464,-0.93069022893906,-0.52431011199951,4.97216415405273,0.10074774175882,-0.15981566905975,9.78361606597900,0.17055237293243,-1.12297928333282,-0.81614643335342
33,613526797,-0.93093878030777,-0.52447241544724,4.97221040725708,0.08133505284786,-0.16221249103546,9.75905323028564,0.23253883421421,-1.08517277240753,-0.86094570159912
34,613535130,-0.93137323856354,-0.52447891235352,4.97280168533325,0.09335896372795,-0.15285652875900,9.76820850372314,0.21276460587978,-1.06903576850891,-0.73976463079453
35,613543463,-0.93182235956192,-0.52414202690125,4.97324037551880,0.08862365782261,-0.15498037636280,9.77412414550781,0.20858950912952,-1.02615749835968,-0.82231932878494
36,613551796,-0.93124914169312,-0.52310651540756,4.97300434112549,0.10405240952969,-0.15667587518692,9.77109146118164,0.33271610736847,-0.94237339496613,-0.83735495805740
37,613560129,-0.93167644739151,-0.52357423305511,4.97387552261353,0.07305914163589,-0.16596026718616,9.77013969421387,0.21214988827705,-1.12292802333832,-0.75966691970825
38,613568462,-0.93197441101074,-0.52377170324326,4.97399854660034,0.09792242199183,-0.16073869168758,9.78885173797607,0.22695492208004,-1.09139692783356,-0.79683321714401
39,613576795,-0.93237364292145,-0.52485352754593,4.97450447082520,0.08104170858860,-0.13797834515572,9.78420257568359,0.21550536155701,-1.19690203666687,-0.80272454023361
40,613585128,-0.93248206377029,-0.52505987882614,4.97514104843140,0.10405234247446,-0.15360704064369,9.78433132171631,0.25169825553894,-1.09293365478516,-0.73546147346497
41,613593461,-0.93321001529694,-0.52462530136108,4.97518205642700,0.09237181395292,-0.14990213513374,9.78523254394531,0.17539347708225,-1.01329910755157,-0.87631416320801
42,613601794,-0.93325239419937,-0.52360486984253,4.97465085983276,0.09591247141361,-0.14158336818218,9.78621959686279,0.25915199518204,-0.94373089075089,-0.87257450819016
43,613610127,-0.93302893638611,-0.52361106872559,4.97503900527954,0.07359559834003,-0.14575348794460,9.78192043304443,0.28896698355675,-1.06698656082153,-0.82698112726212
44,613618460,-0.93318945169449,-0.52372044324875,4.97511386871338,0.09459642320871,-0.16911496222019,9.76216411590576,0.24337367713451,-1.08020353317261,-0.80308312177658
45,613626793,-0.93393373489380,-0.52337342500687,4.97526884078979,0.10473907738924,-0.14953733980656,9.78028202056885,0.17436890304089,-1.02433884143829,-0.83630472421646
46,613635126,-0.93359476327896,-0.52350932359695,4.97490262985229,0.09974639862776,-0.14566048979759,9.76137065887451,0.30351588129997,-1.08261120319366,-0.85564345121384
47,613643459,-0.93423724174500,-0.52297139167786,4.97594356536865,0.08493990451097,-0.14603906869888,9.76184082031250,0.18653565645218,-1.00297653675079,-0.76325297355652
48,613651792,-0.93437981605530,-0.52213776111603,4.97612905502319,0.09640602022409,-0.15925090014935,9.77249336242676,0.24752314388752,-0.96734708547592,-0.78697180747986
49,613660125,-0.93454575538635,-0.52201634645462,4.97672414779663,0.09202847629786,-0.16312058269978,9.79175567626953,0.24298942089081,-1.05213022232056,-0.79250437021255
50,613668458,-0.93452304601669,-0.52200233936310,4.97643041610718,0.08731475472450,-0.16148974001408,9.77779293060303,0.26683631539345,-1.06493747234344,-0.84580773115158
51,613676791,-0.93434846401215,-0.52159708738327,4.97608423233032,0.08713593333960,-0.15593913197517,9.75665664672852,0.28284519910812,-1.01685953140259,-0.89952063560486
52,613685124,-0.93399733304977,-0.52104341983795,4.97563028335571,0.09428171813488,-0.15210551023483,9.76067638397217,0.30425873398781,-0.99980056285858,-0.86486470699310
53,613693457,-0.93404906988144,-0.52143931388855,4.97616291046143,0.09741456806660,-0.16495171189308,9.76712799072266,0.25812745094299,-1.11345076560974,-0.79924100637436
54,613701790,-0.93402796983719,-0.52170974016190,4.97624015808105,0.08504722267389,-0.16666810214520,9.76283740997314,0.26624715328217,-1.09982395172119,-0.80236589908600
55,613710123,-0.93364429473877,-0.52227872610092,4.97753047943115,0.11045420169830,-0.15530967712402,9.78227138519287,0.30930468440056,-1.13645231723785,-0.72086143493652
56,613718456,-0.93402528762817,-0.52244192361832,4.97742700576782,0.09546184539795,-0.15370744466782,9.75057697296143,0.21860469877720,-1.08696556091309,-0.82290858030319
57,613726789,-0.93393838405609,-0.52292245626450,4.97799921035767,0.08935331553221,-0.15558864176273,9.76415252685547,0.27285563945770,-1.12395262718201,-0.81368750333786
58,613735122,-0.93410468101501,-0.52309316396713,4.97780227661133,0.10049028694630,-0.15988034009933,9.77219963073730,0.24419333040714,-1.08673512935638,-0.83576685190201
59,613743455,-0.93407022953033,-0.52254992723465,4.97925615310669,0.09678525477648,-0.16626830399036,9.75037002563477,0.26793769001961,-1.00361680984497,-0.69578504562378
60,613751788,-0.93367844820023,-0.52271014451981,4.97900581359863,0.10140594840050,-0.15613971650600,9.78928089141846,0.31143066287041,-1.08606910705566,-0.84078723192215
61,613760121,-0.93305784463882,-0.52318638563156,4.97948741912842,0.09322300553322,-0.15156158804893,9.77282905578613,0.33594349026680,-1.12318420410156,-0.82739102840424
62,613768454,-0.93214219808578,-0.52302330732346,4.98041105270386,0.09920278191566,-0.15320673584938,9.77764987945557,0.37503078579903,-1.04910778999329,-0.70031875371933
63,613776787,-0.93246746063232,-0.52250844240189,4.98054313659668,0.10380920767784,-0.15550281107426,9.76733589172363,0.22408613562584,-1.00459027290344,-0.84847152233124
64,613785120,-0.93259340524673,-0.52211838960648,4.98044824600220,0.08408167213202,-0.14767044782639,9.78425979614258,0.24926495552063,-1.01944661140442,-0.82244747877121
65,613793453,-0.93222886323929,-0.52249997854233,4.98097085952759,0.09737155586481,-0.16548071801662,9.76550483703613,0.30566748976707,-1.11206769943237,-0.83412760496140
66,613801786,-0.93140131235123,-0.52328032255173,4.98093318939209,0.09836578369141,-0.16191859543324,9.80216407775879,0.36242857575417,-1.16117000579834,-0.81673538684845
67,613810119,-0.93152540922165,-0.52562248706818,4.97142553329468,0.09184250235558,-0.15034560859203,9.76998996734619,0.17818541824818,-1.09155058860779,-0.84473180770874
68,613818452,-0.93211281299591,-0.52549707889557,4.97226572036743,0.09103423357010,-0.14181941747665,9.78551864624023,0.19404064118862,-1.05400013923645,-0.70918124914169
69,613826785,-0.93203312158585,-0.52490693330765,4.97249269485474,0.09943882375956,-0.14960171282291,9.78264331817627,0.27236893773079,-0.99467766284943,-0.83630472421646
70,613835118,-0.93186235427856,-0.52472788095474,4.97285270690918,0.09833013266325,-0.15432974696159,9.77224254608154,0.28407466411591,-1.04672563076019,-0.76645469665527
71,613843451,-0.93144178390503,-0.52546405792236,4.97373867034912,0.08990399539471,-0.14592486619949,9.78199958801270,0.31476053595543,-1.15558624267578,-0.76028174161911
72,613851784,-0.93053281307220,-0.52484214305878,4.97379779815674,0.09894527494907,-0.15160450339317,9.77257919311523,0.37290486693382,-0.99239790439606,-0.80203288793564
73,613860117,-0.93070572614670,-0.52534949779510,4.97470760345459,0.09860915690660,-0.16148288547993,9.77654838562012,0.24293820559978,-1.12761545181274,-0.76386773586273
74,613868450,-0.93096506595612,-0.52599483728409,4.97495937347412,0.08980400860310,-0.16904343664646,9.77137756347656,0.23143744468689,-1.14508438110352,-0.78131103515625
75,613876783,-0.93098288774490,-0.52632880210876,4.97566843032837,0.11652703583241,-0.16430824995041,9.76790046691895,0.26189273595810,-1.10714972019196,-0.77329367399216
76,613885116,-0.93073815107346,-0.52624475955963,4.97579717636108,0.09792957454920,-0.15667587518692,9.76440334320068,0.29360318183899,-1.05709958076477,-0.79452800750732
77,613893449,-0.93197315931320,-0.52623820304871,4.97634506225586,0.08635627478361,-0.17240497469902,9.76429557800293,0.11417544633150,-1.06524479389191,-0.81107467412949
78,613901782,-0.93242454528809,-0.52559328079224,4.97703313827515,0.08345221728086,-0.16505184769630,9.78958129882812,0.21063864231110,-0.99091231822968,-0.72631722688675
79,613910115,-0.93303149938583,-0.52548396587372,4.97794246673584,0.11117669939995,-0.14815711975098,9.76878070831299,0.19063393771648,-1.05387210845947,-0.77485626935959
80,613918448,-0.93256455659866,-0.52496844530106,4.97792625427246,0.07917481660843,-0.14143316447735,9.75895309448242,0.31914055347443,-1.00558936595917,-0.81092107295990
81,613926781,-0.93222051858902,-0.52480304241180,4.97827577590942,0.10187803208828,-0.15990924835205,9.77441024780273,0.30397692322731,-1.04629027843475,-0.81673544645309
82,613935114,-0.93204975128174,-0.52505850791931,4.97900867462158,0.09978931397200,-0.16261988878250,9.78394508361816,0.28535535931587,-1.09831273555756,-0.72362762689590
83,613943447,-0.93084293603897,-0.52459120750427,4.97937154769897,0.09310855716467,-0.13312156498432,9.78059673309326,0.40781700611115,-1.01014864444733,-0.83594614267349
84,613951780,-0.92976260185242,-0.52452665567398,4.97931528091431,0.09961776435375,-0.15215557813644,9.77777862548828,0.39352431893349,-1.05935359001160,-0.81637698411942
85,613960113,-0.92902278900146,-0.52470183372498,4.97980546951294,0.10054036229849,-0.14689794182777,9.76785087585449,0.35179865360260,-1.08714485168457,-0.79890799522400
86,613968446,-0.92890650033951,-0.52516752481461,4.97982740402222,0.10013980418444,-0.17214746773243,9.76526832580566,0.27813217043877,-1.12279999256134,-0.80856454372406
87,613976779,-0.92889541387558,-0.52458930015564,4.98085594177246,0.09481808543205,-0.15377897024155,9.78227138519287,0.26366010308266,-0.99800741672516,-0.75641393661499
88,613985112,-0.92865675687790,-0.52382296323776,4.98070716857910,0.09635594487190,-0.16407191753387,9.79141235351562,0.29327017068863,-0.97426301240921,-0.82703244686127
89,613993445,-0.92814558744431,-0.52366185188293,4.98085260391235,0.09962490200996,-0.16682605445385,9.79317188262939,0.32349497079849,-1.04703295230865,-0.85052061080933
90,614001778,-0.92844778299332,-0.52393865585327,4.98076915740967,0.09092686325312,-0.15917190909386,9.74851703643799,0.22813317179680,-1.09926044940948,-0.82132041454315
91,614010111,-0.92787373065948,-0.52434605360031,4.98101663589478,0.09551906585693,-0.15370029211044,9.77170658111572,0.33033397793770,-1.11460340023041,-0.86109930276871
92,614018444,-0.92797684669495,-0.52411174774170,4.98137426376343,0.09950312227011,-0.16632479429245,9.77211475372314,0.25285091996193,-1.03986108303070,-0.76627540588379
93,614026777,-0.92808812856674,-0.52304244041443,4.98231124877930,0.09791540354490,-0.15126164257526,9.77720832824707,0.25008457899094,-0.93819820880890,-0.75533819198608
94,614035110,-0.92783552408218,-0.52279806137085,4.98257970809937,0.09140618145466,-0.15369313955307,9.78245735168457,0.29380810260773,-1.03794014453888,-0.77826291322708
95,614043443,-0.92810374498367,-0.52267855405807,4.98365688323975,0.09772922843695,-0.15945807099342,9.79274368286133,0.23120689392090,-1.05338537693024,-0.75643950700760
96,614051776,-0.92730981111526,-0.52253836393356,4.98347091674805,0.08652794361115,-0.16779139637947,9.74687194824219,0.35835590958595,-1.04933834075928,-0.83315414190292
97,614060109,-0.92756146192551,-0.52261942625046,4.98452281951904,0.09567642956972,-0.16289883852005,9.75992584228516,0.23422938585281,-1.07702744007111,-0.73597383499146
98,614068442,-0.92729789018631,-0.52222621440887,4.98457813262939,0.08916009962559,-0.14784184098244,9.78562641143799,0.29580593109131,-1.02000999450684,-0.80275005102158
99,614076775,-0.92784750461578,-0.52284193038940,4.98498296737671,0.08797281235456,-0.15372890233994,9.77130603790283,0.19616663455963,-1.13980782032013,-0.82710921764374
100,614085108,-0.92812675237656,-0.52237212657928,4.98480749130249,0.09905972331762,-0.16233377158642,9.79084014892578,0.23031038045883,-1.01071214675903,-0.82982426881790
101,614093441,-0.92809367179871,-0.52296787500381,4.98549985885620,0.09893812239170,-0.14330720901489,9.77676296234131,0.26698997616768,-1.13773298263550,-0.79480975866318
102,614101774,-0.92833948135376,-0.52328240871429,4.98584794998169,0.10260038077831,-0.14975906908512,9.79839324951172,0.23417814075947,-1.10476756095886,-0.77006626129150
103,614110107,-0.92852509021759,-0.52350437641144,4.98686075210571,0.08511883020401,-0.15782748162746,9.78079032897949,0.24101710319519,-1.09449625015259,-0.74437522888184
104,614118440,-0.92810583114624,-0.52382773160934,4.98690891265869,0.09109860658646,-0.14465910196304,9.76490402221680,0.31527280807495,-1.10520291328430,-0.80572134256363
105,614126773,-0.92837893962860,-0.52294158935547,4.98729896545410,0.09971778094769,-0.15397925674915,9.76252937316895,0.23043847084045,-0.96045702695847,-0.80666911602020
106,614135106,-0.92812323570251,-0.52274239063263,4.98816490173340,0.08931040018797,-0.18328444659710,9.77501106262207,0.29434600472450,-1.04488146305084,-0.70610761642456
107,614143439,-0.92880487442017,-0.52288460731506,4.98848724365234,0.09684949368238,-0.15978020429611,9.77398777008057,0.18061876296997,-1.08307230472565,-0.84944486618042
108,614151772,-0.92897790670395,-0.52269917726517,4.98843431472778,0.10285788029432,-0.15852846205235,9.76333045959473,0.24324555695057,-1.04339587688446,-0.81758075952530
109,614160105,-0.92897844314575,-0.52322608232498,4.98981332778931,0.10116980969906,-0.16658970713615,9.77444553375244,0.26437729597092,-1.13115036487579,-0.72478038072586
110,614168438,-0.92864328622818,-0.52296698093414,4.99032068252563,0.10514687001705,-0.17347101867199,9.78166294097900,0.30446359515190,-1.03676164150238,-0.74924200773239
111,614176771,-0.92853713035583,-0.52323061227798,4.99054384231567,0.10398087650537,-0.16241960227489,9.79224205017090,0.27449494600296,-1.09731388092041,-0.85638642311096
112,614185104,-0.92813372612000,-0.52336686849594,4.99028539657593,0.09966046363115,-0.14588908851147,9.77046966552734,0.31212225556374,-1.08250880241394,-0.84176057577133
113,614193437,-0.92760211229324,-0.52393043041229,4.99053001403809,0.09774360060692,-0.14842864871025,9.76117706298828,0.32667115330696,-1.13412141799927,-0.82641756534576
114,614201770,-0.92745316028595,-0.52445453405380,4.99123048782349,0.09826575964689,-0.15119679272175,9.76984691619873,0.28207674622536,-1.13122689723969,-0.72718805074692
115,614210103,-0.92730170488358,-0.52504676580429,4.99240732192993,0.10391657799482,-0.15465189516544,9.76235008239746,0.28115466237068,-1.13837349414825,-0.73246467113495
116,614218436,-0.92732441425323,-0.52533304691315,4.99289655685425,0.10861599445343,-0.13705590367317,9.76142787933350,0.26155978441238,-1.10220611095428,-0.75213640928268
117,614226769,-0.92733299732208,-0.52470034360886,4.99393606185913,0.08941768854856,-0.16070292890072,9.80153369903564,0.26358327269554,-0.99168086051941,-0.73986715078354
118,614235102,-0.92724537849426,-0.52402293682098,4.99356031417847,0.11312936246395,-0.15030269324780,9.77836513519287,0.27364966273308,-0.98525148630142,-0.85369682312012
119,614243435,-0.92746007442474,-0.52445459365845,4.99468755722046,0.09329453110695,-0.16469420492649,9.75933170318604,0.23858381807804,-1.11880421638489,-0.74048197269440
120,614251768,-0.92798602581024,-0.52529793977737,4.99482965469360,0.08334492892027,-0.14062489569187,9.75167846679688,0.20111015439034,-1.16782987117767,-0.79542440176010
121,614260101,-0.92844790220261,-0.52500361204147,4.99539613723755,0.08100594580173,-0.16542379558086,9.75838088989258,0.20756494998932,-1.03076803684235,-0.81717097759247
122,614268434,-0.92876774072647,-0.52575927972794,4.99535560607910,0.09509705007076,-0.15372890233994,9.76151371002197,0.22431664168835,-1.15784025192261,-0.81645369529724
123,614276767,-0.92880415916443,-0.52576684951782,4.99607276916504,0.10259322822094,-0.13864354789257,9.76466083526611,0.25858852267265,-1.06731951236725,-0.79798585176468
124,614285100,-0.92857038974762,-0.52541947364807,4.99598979949951,0.09632733464241,-0.15701206028461,9.76785755157471,0.29178452491760,-1.02533781528473,-0.81904077529907
125,614293433,-0.92864471673965,-0.52580368518829,4.99617052078247,0.10329412668943,-0.13949441909790,9.76604175567627,0.25249230861664,-1.11183714866638,-0.85564345121384
126,614301766,-0.92809259891510,-0.52568709850311,4.99600982666016,0.10651309043169,-0.14887957274914,9.77145576477051,0.33051326870918,-1.05218148231506,-0.82967072725296
127,614310099,-0.92845481634140,-0.52586019039154,4.99592971801758,0.09160646051168,-0.13066098093987,9.79648399353027,0.21896328032017,-1.08545446395874,-0.88481807708740
128,614318432,-0.92833155393600,-0.52597850561142,4.99599123001099,0.10988197475672,-0.14764183759689,9.79865074157715,0.27869564294815,-1.08184278011322,-0.80239146947861
129,614326765,-0.92886495590210,-0.52626800537109,4.99654912948608,0.09740026295185,-0.15324251353741,9.74949645996094,0.19834382832050,-1.10118162631989,-0.79171031713486
130,614335098,-0.92876923084259,-0.52695608139038,4.99669837951660,0.09458204358816,-0.15701206028461,9.77559757232666,0.27534022927284,-1.14997661113739,-0.79342645406723
131,614343431,-0.92883378267288,-0.52664089202881,4.99619722366333,0.10031862556934,-0.15651135146618,9.79426670074463,0.25484880805016,-1.02679777145386,-0.93033474683762
132,614351764,-0.92863595485687,-0.52718025445938,4.99618291854858,0.09546899795532,-0.15072470903397,9.76886653900146,0.28707152605057,-1.13099646568298,-0.81368738412857
133,614360097,-0.92877084016800,-0.52719354629517,4.99675273895264,0.08990415930748,-0.16174037754536,9.75792312622070,0.24775366485119,-1.06793427467346,-0.80231457948685
134,614368430,-0.92883670330048,-0.52711528539658,4.99660205841064,0.08817317336798,-0.16540263593197,9.80963802337646,0.25518178939819,-1.05699694156647,-0.82879978418350
135,614376763,-0.92955875396729,-0.52689319849014,4.99699258804321,0.08795845508575,-0.15629647672176,9.78142738342285,0.17575207352638,-1.03865730762482,-0.83218091726303
136,614385096,-0.92911642789841,-0.52754050493240,4.99709606170654,0.08239350467920,-0.14627534151077,9.78380203247070,0.31704020500183,-1.14490509033203,-0.79885685443878
137,614393429,-0.92874544858932,-0.52711009979248,4.99809265136719,0.10043323785067,-0.15066801011562,9.77627086639404,0.30720430612564,-1.01624476909637,-0.74916511774063
138,614401762,-0.92842429876328,-0.52807772159576,4.99819946289062,0.09731442481279,-0.14639008045197,9.77095508575439,0.30310606956482,-1.18278849124908,-0.80006068944931
139,614410095,-0.92866623401642,-0.52766352891922,4.99849939346313,0.10079793632030,-0.17031662166119,9.75938224792480,0.23374271392822,-1.01670587062836,-0.83533143997192
140,614418428,-0.92896968126297,-0.52824538946152,4.99912118911743,0.09369508922100,-0.15221965312958,9.75685691833496,0.22782582044601,-1.13722085952759,-0.73768997192383
141,614426761,-0.92896312475204,-0.52839058637619,5.00004625320435,0.09164937585592,-0.16029520332813,9.75517559051514,0.26422366499901,-1.08466041088104,-0.77298647165298
142,614435094,-0.92872023582458,-0.52719432115555,4.99954986572266,0.10189224779606,-0.16641804575920,9.75689220428467,0.29296278953552,-0.92231738567352,-0.86752849817276
143,614443427,-0.92851555347443,-0.52740538120270,5.00075578689575,0.10638423264027,-0.14061774313450,9.77058315277100,0.28727647662163,-1.09265196323395,-0.73205482959747
144,614451760,-0.92872536182404,-0.52761447429657,5.00054121017456,0.10880189388990,-0.16663977503777,9.77162742614746,0.23789221048355,-1.09157633781433,-0.83671468496323
145,614460093,-0.92874765396118,-0.52699702978134,5.00093984603882,0.08104886114597,-0.16775561869144,9.79335784912109,0.26053518056870,-0.99191123247147,-0.81735020875931
146,614468426,-0.92932987213135,-0.52619481086731,5.00052118301392,0.09715700149536,-0.15661837160587,9.78717136383057,0.19370764493942,-0.96954995393753,-0.85953682661057
147,614476759,-0.92948716878891,-0.52613121271133,5.00162029266357,0.08370965719223,-0.15511628985405,9.76924610137939,0.24460314214230,-1.05986571311951,-0.74452894926071
148,614485092,-0.92973303794861,-0.52716964483261,5.00249910354614,0.10342295467854,-0.13819292187691,9.79455947875977,0.23497216403484,-1.19290602207184,-0.70756757259369
149,614493425,-0.92935192584991,-0.52649372816086,5.00296783447266,0.10885196179152,-0.13527455925941,9.78940963745117,0.30899730324745,-0.98555886745453,-0.80587500333786
150,614501758,-0.92944914102554,-0.52676302194595,5.00293064117432,0.09731435775757,-0.15254122018814,9.82328605651855,0.25205686688423,-1.09869682788849,-0.81550598144531
151,614510091,-0.92999684810638,-0.52700948715210,5.00371503829956,0.10067626088858,-0.12201319634914,9.79536819458008,0.19708873331547,-1.09626376628876,-0.79078829288483
152,614518424,-0.92982470989227,-0.52695012092590,5.00424766540527,0.08792989701033,-0.15618947148323,9.74108505249023,0.28479188680649,-1.06078779697418,-0.74647563695908
153,614526757,-0.92945772409439,-0.52727574110031,5.00521373748779,0.10329429060221,-0.14734169840813,9.78520393371582,0.30792152881622,-1.10640692710876,-0.76732558012009
154,614535090,-0.92907744646072,-0.52739280462265,5.00515556335449,0.10084784030914,-0.16015902161598,9.78672027587891,0.30884364247322,-1.08061325550079,-0.81765758991241
155,614543423,-0.92811447381973,-0.52712607383728,5.00552988052368,0.10564748942852,-0.15890756249428,9.76927375793457,0.37810450792313,-1.03384160995483,-0.83187347650528
156,614551756,-0.92830449342728,-0.52756565809250,5.00547838211060,0.10675625503063,-0.16318526864052,9.77243614196777,0.24073538184166,-1.11908578872681,-0.81760638952255
157,614560089,-0.92877161502838,-0.52718240022659,5.00573492050171,0.09966056048870,-0.14918684959412,9.76259326934814,0.20669408142567,-1.01949787139893,-0.85369682312012
158,614568422,-0.92908227443695,-0.52727347612381,5.00575923919678,0.07384595274925,-0.15516662597656,9.76780033111572,0.22621208429337,-1.07779562473297,-0.80738627910614
159,614576755,-0.92953401803970,-0.52633440494537,5.00655174255371,0.09923866391182,-0.15885800123215,9.78030490875244,0.20825652778149,-0.95443761348724,-0.77508670091629
160,614585088,-0.92874872684479,-0.52641850709915,5.00692367553711,0.10818675160408,-0.13380108773708,9.76494693756104,0.35868895053864,-1.07738590240479,-0.76650595664978
161,614593421,-0.92939943075180,-0.52666300535202,5.00735664367676,0.08785127848387,-0.15811391174793,9.79012489318848,0.18533179163933,-1.09488046169281,-0.82969629764557
162,614601754,-0.92924863100052,-0.52691406011581,5.00759887695312,0.09108430147171,-0.16908605396748,9.75838088989258,0.28176933526993,-1.09805655479431,-0.78146469593048
163,614610087,-0.92891275882721,-0.52625447511673,5.00753784179688,0.09593392908573,-0.14633285999298,9.78748512268066,0.30238884687424,-0.98584067821503,-0.87329179048538
164,614618420,-0.92901235818863,-0.52630966901779,5.00826215744019,0.08826608210802,-0.16134667396545,9.78297901153564,0.25236424803734,-1.07472205162048,-0.72375577688217
165,614626753,-0.92852890491486,-0.52645516395569,5.00960206985474,0.10077631473541,-0.15864264965057,9.77511119842529,0.32231670618057,-1.08481395244598,-0.72239822149277
166,614635086,-0.92855483293533,-0.52649849653244,5.00951576232910,0.09558343887329,-0.15355007350445,9.76022624969482,0.25999727845192,-1.07146894931793,-0.82144850492477
167,614643419,-0.92843830585480,-0.52663868665695,5.00966072082520,0.10206391662359,-0.15344993770123,9.77725696563721,0.27802971005440,-1.08284175395966,-0.84040302038193
168,614651752,-0.92785048484802,-0.52681267261505,5.00903749465942,0.08622047305107,-0.16305653750896,9.76109123229980,0.33266490697861,-1.08588993549347,-0.88648301362991
169,614660085,-0.92837405204773,-0.52696567773819,5.00989961624146,0.09294404089451,-0.15886464715004,9.80430889129639,0.20041857659817,-1.08514714241028,-0.77408778667450
170,614668418,-0.92839848995209,-0.52666020393372,5.00970792770386,0.10090515762568,-0.15825664997101,9.78433799743652,0.26176467537880,-1.03025579452515,-0.83207845687866
171,614676751,-0.92840337753296,-0.52620863914490,5.00977277755737,0.07040543109179,-0.16028089821339,9.76546859741211,0.26109868288040,-1.01109623908997,-0.85151958465576
172,614685084,-0.92870736122131,-0.52561032772064,5.00905561447144,0.07757265120745,-0.15767040848732,9.78430271148682,0.22618649899960,-0.99349939823151,-0.89542245864868
173,614693417,-0.92913377285004,-0.52571910619736,5.00941133499146,0.10739994049072,-0.16533796489239,9.74991893768311,0.21204744279385,-1.07828235626221,-0.83515208959579
174,614701750,-0.92931616306305,-0.52475529909134,5.00959014892578,0.08358812332153,-0.16995869576931,9.77867984771729,0.24183677136898,-0.95218354463577,-0.78625458478928
175,614710083,-0.92935973405838,-0.52431523799896,5.01017665863037,0.09764345735312,-0.15857137739658,9.76727104187012,0.25748711824417,-1.01360654830933,-0.80556780099869
176,614718416,-0.92856007814407,-0.52372580766678,5.00948381423950,0.09622004628181,-0.16541664302349,9.78234958648682,0.35871458053589,-0.99493372440338,-0.89239990711212
177,614726749,-0.92873293161392,-0.52351051568985,5.00949048995972,0.08742197602987,-0.16216896474361,9.76215744018555,0.24135009944439,-1.03965616226196,-0.86115044355392
178,614735082,-0.92864310741425,-0.52260005474091,5.00864076614380,0.09530448168516,-0.16116070747375,9.77545452117920,0.27487918734550,-0.95525735616684,-0.91099590063095
179,614743415,-0.92870146036148,-0.52282643318176,5.00904607772827,0.09742887318134,-0.14113274216652,9.78320121765137,0.25492566823959,-1.09347164630890,-0.82856917381287
180,614751748,-0.92865139245987,-0.52232986688614,5.00963449478149,0.10184918344021,-0.14607484638691,9.78385734558105,0.26955142617226,-1.00827884674072,-0.73935484886169
181,614760081,-0.92806977033615,-0.52155864238739,5.01008892059326,0.09444613754749,-0.15751275420189,9.77227878570557,0.33297219872475,-0.97326409816742,-0.81827229261398
182,614768414,-0.92816168069839,-0.52143609523773,5.00957393646240,0.11800044775009,-0.15452286601067,9.74259376525879,0.25177511572838,-1.05077278614044,-0.87252324819565
183,614776747,-0.92756223678589,-0.52210730314255,5.00991487503052,0.09722859412432,-0.17203302681446,9.76576900482178,0.33484208583832,-1.14682614803314,-0.80851334333420
184,614785080,-0.92772954702377,-0.52289503812790,5.00986862182617,0.11262151598930,-0.15317097306252,9.75295829772949,0.24421891570091,-1.16165673732758,-0.81658178567886
185,614793413,-0.92761170864105,-0.52288216352463,5.01034641265869,0.11495325714350,-0.15111783146858,9.78407382965088,0.27690267562866,-1.06404101848602,-0.81194555759430
186,614801746,-0.92773497104645,-0.52287644147873,5.01093578338623,0.09040477871895,-0.15689760446548,9.79615497589111,0.24982841312885,-1.06770372390747,-0.73863768577576
187,614810079,-0.92860853672028,-0.52264946699142,5.01227378845215,0.09548330307007,-0.14257761836052,9.77129173278809,0.15833438932896,-1.04050147533417,-0.72485721111298
188,614818412,-0.92873263359070,-0.52276045084000,5.01344919204712,0.11012516915798,-0.15623955428600,9.78531837463379,0.25021266937256,-1.08256018161774,-0.66937685012817
189,614826745,-0.92900788784027,-0.52289336919785,5.01430606842041,0.09050498902798,-0.14426597952843,9.77222156524658,0.23031041026115,-1.08220148086548,-0.76663404703140
190,614835078,-0.92915910482407,-0.52288162708282,5.01445436477661,0.09887374937534,-0.11885879188776,9.77727127075195,0.24654980003834,-1.06593632698059,-0.79222267866135
191,614843411,-0.92894488573074,-0.52291470766068,5.01494693756104,0.10715664923191,-0.16435058414936,9.76946830749512,0.28794243931770,-1.07008600234985,-0.81565970182419
192,614851744,-0.92907840013504,-0.52326637506485,5.01489496231079,0.09565497189760,-0.15554572641850,9.78189945220947,0.24788174033165,-1.10840463638306,-0.81788808107376
193,614860077,-0.92928397655487,-0.52281910181046,5.01498556137085,0.11186330765486,-0.16276293992996,9.78456020355225,0.23745675384998,-1.01132678985596,-0.86811751127243
194,614868410,-0.92900437116623,-0.52260363101959,5.01538515090942,0.08991838991642,-0.15670448541641,9.78444576263428,0.29721474647522,-1.04219198226929,-0.76179295778275
195,614876743,-0.92905598878860,-0.52185088396072,5.01628637313843,0.08009753376245,-0.15257729589939,9.76144218444824,0.25789692997932,-0.97651708126068,-0.76760733127594
196,614885076,-0.92851501703262,-0.52209937572479,5.01651000976562,0.09644178301096,-0.15202651917934,9.76432418823242,0.32872027158737,-1.09667348861694,-0.78435915708542
197,614893409,-0.92890906333923,-0.52150523662567,5.01745796203613,0.08954644203186,-0.15234839916229,9.78964519500732,0.21588957309723,-0.99567651748657,-0.76635223627090
198,614901742,-0.92891949415207,-0.52165871858597,5.01774120330811,0.09120590239763,-0.15423674881458,9.77575492858887,0.26289165019989,-1.08588981628418,-0.77629059553146
199,614910075,-0.92840981483459,-0.52207505702972,5.01847028732300,0.09272230416536,-0.15925090014935,9.78336524963379,0.32500621676445,-1.11624264717102,-0.78284782171249
200,614918408,-0.92902719974518,-0.52163338661194,5.01875114440918,0.07699320465326,-0.15057449042797,9.77717781066895,0.18807250261307,-1.01465666294098,-0.77577823400497
201,614926741,-0.92886924743652,-0.52146440744400,5.01946544647217,0.07872419059277,-0.16211917996407,9.78244304656982,0.28299888968468,-1.04646956920624,-0.77749454975128
202,614935074,-0.92922377586365,-0.52118784189224,5.01977014541626,0.09675657004118,-0.15988060832024,9.77106285095215,0.22152473032475,-1.03381621837616,-0.77372920513153
203,614943407,-0.92899781465530,-0.52100324630737,5.02016496658325,0.09598399698734,-0.16416490077972,9.76908779144287,0.29042696952820,-1.04347264766693,-0.84168374538422
204,614951740,-0.92908215522766,-0.52069395780563,5.01990032196045,0.08494000881910,-0.15814220905304,9.77210712432861,0.25238984823227,-1.02900063991547,-0.84196549654007
205,614960073,-0.92927873134613,-0.52040219306946,5.01937198638916,0.08561237901449,-0.14855739474297,9.78388786315918,0.23740553855896,-1.02941048145294,-0.92866969108582
206,614968406,-0.92817896604538,-0.52016216516495,5.01884555816650,0.07059843838215,-0.15509478747845,9.75913238525391,0.39506116509438,-1.03722298145294,-0.87285637855530
207,614976739,-0.92855632305145,-0.51995217800140,5.01855611801147,0.08800135552883,-0.16610300540924,9.78005409240723,0.21855345368385,-1.03837537765503,-0.91027861833572
208,614985072,-0.92884349822998,-0.51955288648605,5.01863670349121,0.09501836448908,-0.16505184769630,9.76166343688965,0.22828686237335,-1.01954901218414,-0.79972755908966
209,614993405,-0.92910188436508,-0.51982218027115,5.01854419708252,0.10351594537497,-0.16190460324287,9.74344539642334,0.23187287151814,-1.09698081016541,-0.87331730127335
210,615001738,-0.92939716577530,-0.51908528804779,5.01877784729004,0.08827323466539,-0.14356471598148,9.78908061981201,0.22746720910072,-0.97951400279999,-0.78036332130432
211,615010071,-0.92982238531113,-0.51949268579483,5.01842403411865,0.10857300460339,-0.14898656308651,9.75164985656738,0.21184252202511,-1.11373245716095,-0.89242553710938
212,615018404,-0.93003237247467,-0.51923173666000,5.01812839508057,0.10888772457838,-0.15086776018143,9.77031135559082,0.23830205202103,-1.03432846069336,-0.84606373310089
213,615026737,-0.92977720499039,-0.51876944303513,5.01800394058228,0.09282235056162,-0.15969409048557,9.78310108184814,0.29232242703438,-1.00984108448029,-0.88384473323822
214,615035070,-0.92897891998291,-0.51867824792862,5.01818609237671,0.08885966241360,-0.15801317989826,9.77605533599854,0.35945737361908,-1.05615174770355,-0.78855985403061
215,615043403,-0.92860198020935,-0.51865786314011,5.01934480667114,0.07903891801834,-0.14631140232086,9.77820777893066,0.30899733304977,-1.06475806236267,-0.74468266963959
216,615051736,-0.92863464355469,-0.51867336034775,5.01966857910156,0.09840881079435,-0.14849302172661,9.77065467834473,0.26009973883629,-1.06836962699890,-0.77252537012100
217,615060069,-0.92886483669281,-0.51798695325851,5.02061605453491,0.10249308496714,-0.17196150124073,9.78633403778076,0.23589432239532,-0.98573827743530,-0.75026661157608
218,615068402,-0.92884808778763,-0.51775872707367,5.02032756805420,0.09172090888023,-0.15337125957012,9.76755046844482,0.26481279730797,-1.03837537765503,-0.84573078155518
219,615076735,-0.92938172817230,-0.51823997497559,5.02079486846924,0.08959650993347,-0.15018823742867,9.76511096954346,0.19980382919312,-1.12374770641327,-0.83653527498245
220,615085068,-0.92955875396729,-0.51748669147491,5.02081871032715,0.10481061041355,-0.14812107384205,9.76064777374268,0.24129889905453,-0.97646582126617,-0.80620807409286
221,615093401,-0.92986333370209,-0.51702123880386,5.02113485336304,0.08287999033928,-0.15957993268967,9.79844379425049,0.22580227255821,-1.00935447216034,-0.83512651920319
222,615101734,-0.93024224042892,-0.51657223701477,5.02100086212158,0.10441011190414,-0.15430855751038,9.79621219635010,0.21924506127834,-1.01245391368866,-0.82557243108749
223,615110067,-0.92999911308289,-0.51680856943130,5.02160406112671,0.09870208054781,-0.15230548381805,9.75913906097412,0.29170769453049,-1.09426569938660,-0.80515778064728
224,615118400,-0.93039983510971,-0.51648068428040,5.02066993713379,0.08320902287960,-0.17709724605083,9.78879451751709,0.21425028145313,-1.02615749835968,-0.92119038105011
225,615126733,-0.93032532930374,-0.51663857698441,5.02113914489746,0.08468250930309,-0.16306336224079,9.77692031860352,0.27211281657219,-1.08473718166351,-0.81271404027939
226,615135066,-0.92974084615707,-0.51633560657501,5.02106571197510,0.07724345475435,-0.17869921028614,9.75812339782715,0.33422729372978,-1.03002524375916,-0.81878465414047
227,615143399,-0.92953228950500,-0.51628148555756,5.02097606658936,0.08574828505516,-0.15072470903397,9.77094078063965,0.28719961643219,-1.05927681922913,-0.88059186935425
228,615151732,-0.92969161272049,-0.51595801115036,5.02109289169312,0.09215722978115,-0.17294143140316,9.77076244354248,0.24427014589310,-1.02774548530579,-0.79637217521667
229,615160065,-0.92965525388718,-0.51550680398941,5.02233123779297,0.11065448075533,-0.16010208427906,9.78177070617676,0.26804012060165,-1.01301729679108,-0.73192673921585
230,615168398,-0.93029654026031,-0.51542425155640,5.02282571792603,0.08229340612888,-0.12818583846092,9.77414608001709,0.18666373193264,-1.05804705619812,-0.75065070390701
231,615176731,-0.93104958534241,-0.51489853858948,5.02332496643066,0.09399551153183,-0.15297785401344,9.77709197998047,0.17401030659676,-1.00310468673706,-0.80723255872726
232,615185064,-0.93130528926849,-0.51466250419617,5.02296495437622,0.09600552916527,-0.14749191701412,9.80714893341064,0.23197531700134,-1.03735089302063,-0.85379940271378
233,615193397,-0.93054777383804,-0.51485604047775,5.02250576019287,0.08375263959169,-0.13493838906288,9.75599098205566,0.35200363397598,-1.08750343322754,-0.93256300687790
234,615201730,-0.93031287193298,-0.51483863592148,5.02270126342773,0.07112786918879,-0.14490228891373,9.79565429687500,0.29196387529373,-1.06486070156097,-0.78738164901733
235,615210063,-0.93080711364746,-0.51464766263962,5.02374792098999,0.09741456806660,-0.13837890326977,9.77660560607910,0.20433755218983,-1.04434347152710,-0.74855041503906
236,615218396,-0.93107014894485,-0.51427161693573,5.02360534667969,0.10887334495783,-0.17922136187553,9.78357315063477,0.23243638873100,-1.02116286754608,-0.82692992687225
237,615226729,-0.93073248863220,-0.51417416334152,5.02458429336548,0.07539811730385,-0.16334232687950,9.78187084197998,0.30333656072617,-1.05471730232239,-0.77021998167038
238,615235062,-0.93011981248856,-0.51367974281311,5.02478408813477,0.09993227571249,-0.13659758865833,9.78585529327393,0.33648136258125,-1.00820183753967,-0.78553742170334
239,615243395,-0.92993187904358,-0.51426160335541,5.02552509307861,0.09693532437086,-0.15709789097309,9.76840877532959,0.28571400046349,-1.13614511489868,-0.80018872022629
240,615251728,-0.93085759878159,-0.51392292976379,5.02541685104370,0.08843059837818,-0.15071040391922,9.78496074676514,0.15292976796627,-1.02585005760193,-0.82311338186264
241,615260061,-0.93070793151855,-0.51320940256119,5.02589464187622,0.10595506429672,-0.15656858682632,9.79817867279053,0.28092414140701,-0.98012876510620,-0.80467128753662
242,615268394,-0.93030953407288,-0.51349771022797,5.02650880813599,0.09201426059008,-0.16782028973103,9.80229854583740,0.31217351555824,-1.10284638404846,-0.73666536808014
243,615276727,-0.93024390935898,-0.51297080516815,5.02640342712402,0.09774360060692,-0.15317097306252,9.76526832580566,0.27019175887108,-1.00118350982666,-0.88299947977066
244,615285060,-0.93032217025757,-0.51305127143860,5.02679157257080,0.09661337733269,-0.15047408640385,9.78008270263672,0.25474637746811,-1.07720673084259,-0.76381647586823
245,615293393,-0.93074399232864,-0.51295250654221,5.02750635147095,0.09086249768734,-0.14502359926701,9.76082038879395,0.21148395538330,-1.05428183078766,-0.81235545873642
246,615301726,-0.93094944953918,-0.51315069198608,5.02704954147339,0.10196377336979,-0.15691190958023,9.76842975616455,0.23860943317413,-1.08960402011871,-0.86563313007355
247,615310059,-0.93091368675232,-0.51327997446060,5.02842187881470,0.08998998999596,-0.16668297350407,9.77716350555420,0.26832193136215,-1.08296990394592,-0.72890430688858
248,615318392,-0.93051999807358,-0.51303750276566,5.02907037734985,0.10884489119053,-0.15237011015415,9.76711368560791,0.31112331151962,-1.03893899917603,-0.73236221075058
249,615326725,-0.93029505014420,-0.51295518875122,5.02961015701294,0.09393113106489,-0.16262704133987,9.76842975616455,0.28919750452042,-1.05561387538910,-0.81063932180405
250,615335058,-0.93093258142471,-0.51233321428299,5.02982759475708,0.09887374937534,-0.16881424188614,9.80284976959229,0.18891778588295,-0.99216747283936,-0.78307837247849
251,615343391,-0.93155938386917,-0.51138818264008,5.02974176406860,0.08089149743319,-0.16955098509789,9.76707839965820,0.18715040385723,-0.95151764154434,-0.88714897632599
252,615351724,-0.93178796768188,-0.51083785295486,5.02949047088623,0.09687102586031,-0.15080367028713,9.78571891784668,0.23499780893326,-1.00077378749847,-0.83917361497879
253,615360057,-0.93177098035812,-0.51076543331146,5.03034305572510,0.09394536912441,-0.15902173519135,9.77135658264160,0.26601663231850,-1.05799579620361,-0.77316564321518
254,615368390,-0.93206149339676,-0.51069599390030,5.03053092956543,0.09384530037642,-0.14410117268562,9.76270771026611,0.22741597890854,-1.05832886695862,-0.78863662481308
255,615376723,-0.93209308385849,-0.50996661186218,5.03065872192383,0.09745756536722,-0.15765608847141,9.77968883514404,0.25846043229103,-0.97848939895630,-0.85100734233856
256,615385056,-0.93207657337189,-0.50969922542572,5.03120470046997,0.10255031287670,-0.15955847501755,9.79650497436523,0.26696434617043,-1.03501999378204,-0.74532300233841
257,615393389,-0.93268358707428,-0.50946366786957,5.03189611434937,0.07783014327288,-0.15352174639702,9.77868747711182,0.19009603559971,-1.03834986686707,-0.78861105442047
258,615401722,-0.93298059701920,-0.50956970453262,5.03250694274902,0.10252891480923,-0.14282108843327,9.78057575225830,0.22826124727726,-1.08017778396606,-0.73794609308243
259,615410055,-0.93321603536606,-0.50976413488388,5.03303623199463,0.10747139155865,-0.13864326477051,9.76041221618652,0.23584304749966,-1.08883547782898,-0.81724774837494
260,615418388,-0.93355858325958,-0.50961661338806,5.03341341018677,0.09387391060591,-0.16317780315876,9.79086112976074,0.22190888226032,-1.05031156539917,-0.76445674896240
261,615426721,-0.93339359760284,-0.50945925712585,5.03509426116943,0.09147770702839,-0.15640406310558,9.76248645782471,0.28445887565613,-1.04895412921906,-0.67408972978592
262,615435054,-0.93347620964050,-0.50898706912994,5.03571748733521,0.10186363756657,-0.14403679966927,9.77389526367188,0.25461831688881,-1.01204407215118,-0.73392468690872
263,615443387,-0.93370223045349,-0.50916165113449,5.03642749786377,0.09137041866779,-0.15708358585835,9.79046058654785,0.23556129634380,-1.08660709857941,-0.79278612136841
264,615451720,-0.93329924345016,-0.50868213176727,5.03553199768066,0.09808703511953,-0.15182656049728,9.76047611236572,0.31145629286766,-1.00720286369324,-0.91714328527451
265,615460053,-0.93314492702484,-0.50846296548843,5.03711032867432,0.09513996541500,-0.15375036001205,9.79222011566162,0.28225603699684,-1.04155158996582,-0.69424819946289
266,615468386,-0.93448758125305,-0.50746971368790,5.03726291656494,0.09974639862776,-0.15431542694569,9.77524662017822,0.10198307782412,-0.94846951961517,-0.78966134786606
267,615476719,-0.93436986207962,-0.50746732950211,5.03811502456665,0.09322300553322,-0.14995935559273,9.77255725860596,0.27774795889854,-1.06547522544861,-0.78453844785690
268,615485052,-0.93453842401505,-0.50710374116898,5.03803443908691,0.08941053599119,-0.15026693046093,9.79097557067871,0.24347612261772,-1.02298128604889,-0.81950187683105
269,615493385,-0.93439167737961,-0.50756692886353,5.03918170928955,0.11078323423862,-0.14588223397732,9.75978946685791,0.28105220198631,-1.12215960025787,-0.74499011039734
270,615501718,-0.93464952707291,-0.50873839855194,5.03875207901001,0.08850219845772,-0.14030337333679,9.79088973999023,0.23197534680367,-1.20714771747589,-0.86353278160095
271,615510051,-0.93466943502426,-0.50855427980423,5.03917169570923,0.10746431350708,-0.15263451635838,9.77518272399902,0.25979235768318,-1.04408740997314,-0.79173594713211
272,615518384,-0.93488383293152,-0.50823152065277,5.03984117507935,0.09883096069098,-0.15563206374645,9.76719379425049,0.23850692808628,-1.02897489070892,-0.72995436191559
273,615526717,-0.93521362543106,-0.50804108381271,5.04087448120117,0.08418180793524,-0.14926552772522,9.75403118133545,0.22490580379963,-1.04401063919067,-0.74509251117706
274,615535050,-0.93442291021347,-0.50771760940552,5.04146337509155,0.10363763570786,-0.16221243143082,9.76159954071045,0.35884267091751,-1.02930808067322,-0.73920124769211
275,615543383,-0.93461161851883,-0.50813788175583,5.04187345504761,0.08714301139116,-0.14272037148476,9.78569030761719,0.23991572856903,-1.11588406562805,-0.83607423305511
276,615551716,-0.93479824066162,-0.50789725780487,5.04195642471313,0.08568390458822,-0.14433006942272,9.79926586151123,0.24060732126236,-1.03832423686981,-0.79998379945755
277,615560049,-0.93481749296188,-0.50802665948868,5.04218769073486,0.09590523689985,-0.15655396878719,9.75474071502686,0.26112431287766,-1.08030593395233,-0.85928070545197
278,615568382,-0.93529313802719,-0.50731801986694,5.04232883453369,0.09772929549217,-0.16917188465595,9.75612735748291,0.20607930421829,-0.98179358243942,-0.79281169176102
279,615576715,-0.93546837568283,-0.50722718238831,5.04272079467773,0.10961016267538,-0.16291315853596,9.74700736999512,0.24219538271427,-1.05492222309113,-0.83566439151764
280,615585048,-0.93523657321930,-0.50678008794785,5.04361915588379,0.10324413329363,-0.15871442854404,9.79414463043213,0.29278349876404,-1.01447749137878,-0.70226544141769
281,615593381,-0.93546259403229,-0.50576949119568,5.04447650909424,0.08673524111509,-0.15402168035507,9.80131053924561,0.23533077538013,-0.94575434923172,-0.76227957010269
282,615601714,-0.93484812974930,-0.50597476959229,5.04461193084717,0.10287933796644,-0.14847871661186,9.78194236755371,0.33727544546127,-1.09111511707306,-0.79542440176010
283,615610047,-0.93481075763702,-0.50613617897034,5.04528617858887,0.07999024540186,-0.15852846205235,9.74849510192871,0.26727172732353,-1.08632528781891,-0.79381072521210
284,615618380,-0.93613678216934,-0.50625401735306,5.04440212249756,0.08246512711048,-0.15440842509270,9.75416755676270,0.10426273196936,-1.07815420627594,-0.91780912876129
285,615626713,-0.93529850244522,-0.50617587566376,5.04522418975830,0.08594141155481,-0.15512371063232,9.76975345611572,0.36345317959785,-1.05712509155273,-0.77759701013565
286,615635046,-0.93563836812973,-0.50709205865860,5.04569864273071,0.10943134129047,-0.15626816451550,9.77618408203125,0.22318962216377,-1.17825484275818,-0.75462096929550
287,615643379,-0.93599748611450,-0.50749361515045,5.04630708694458,0.09795096516609,-0.15456549823284,9.75316619873047,0.21909135580063,-1.11411678791046,-0.80546522140503
288,615651712,-0.93647819757462,-0.50759899616241,5.04643392562866,0.09363071620464,-0.16874271631241,9.77071189880371,0.20710389316082,-1.07943511009216,-0.79527074098587
289,615660045,-0.93661373853683,-0.50743824243546,5.04736375808716,0.10579047352076,-0.14951559901237,9.77901744842529,0.24678036570549,-1.04746854305267,-0.77298635244370
290,615668378,-0.93660658597946,-0.50715792179108,5.04766035079956,0.09565503895283,-0.17021647095680,9.78939533233643,0.26409557461739,-1.03317570686340,-0.77503550052643
291,615676711,-0.93721830844879,-0.50702887773514,5.04864215850830,0.10637702047825,-0.14787761867046,9.74454784393311,0.19032657146454,-1.05059349536896,-0.75882172584534
292,615685044,-0.93734389543533,-0.50800991058350,5.04866647720337,0.09320876747370,-0.15590369701385,9.78543949127197,0.24944421648979,-1.18453037738800,-0.80925607681274
293,615693377,-0.93779104948044,-0.50765550136566,5.04859256744385,0.09554052352905,-0.15731246769428,9.80480194091797,0.20759056508541,-1.02249467372894,-0.88745635747910
294,615701710,-0.93802171945572,-0.50689327716827,5.04887151718140,0.09041894972324,-0.15191155672073,9.79837799072266,0.23571498692036,-0.97536438703537,-0.77631622552872
295,615710043,-0.93797934055328,-0.50586032867432,5.04944229125977,0.08721461147070,-0.15758427977562,9.74812316894531,0.26870614290237,-0.94165611267090,-0.81471198797226
296,615718376,-0.93835520744324,-0.50493437051773,5.04983711242676,0.07853106409311,-0.13358649611473,9.78506088256836,0.21929629147053,-0.95687097311020,-0.76043546199799
297,615726709,-0.93847101926804,-0.50466507673264,5.05186986923218,0.08249373733997,-0.13211300969124,9.78801441192627,0.25013580918312,-1.03630065917969,-0.64212322235107
298,615735042,-0.93717348575592,-0.50488895177841,5.05151557922363,0.09965340793133,-0.13836459815502,9.79275703430176,0.41934344172478,-1.09252393245697,-0.85369682312012
299,615743375,-0.93778038024902,-0.50432699918747,5.05245971679688,0.10961731523275,-0.17138926684856,9.78039646148682,0.19042903184891,-0.99895507097244,-0.76169049739838
300,615751708,-0.93763321638107,-0.50409698486328,5.05248546600342,0.08619882911444,-0.16938620805740,9.75612068176270,0.28079602122307,-1.03991234302521,-0.80605429410934
301,615760041,-0.93741381168365,-0.50511556863785,5.05393362045288,0.09767206758261,-0.16382871568203,9.76350212097168,0.28968417644501,-1.18957626819611,-0.70393037796021
302,615768374,-0.93745487928391,-0.50570356845856,5.05458164215088,0.08705732226372,-0.16716937720776,9.73606395721436,0.25940817594528,-1.13852727413177,-0.73377108573914
303,615776707,-0.93667274713516,-0.50502735376358,5.05616903305054,0.11046850681305,-0.15851415693760,9.76252937316895,0.35728013515472,-0.98640429973602,-0.69337731599808
304,615785040,-0.93647593259811,-0.50450944900513,5.05588912963867,0.09783667325974,-0.14287117123604,9.77910232543945,0.28799363970757,-1.00359129905701,-0.84316933155060
305,615793373,-0.93667441606522,-0.50428348779678,5.05649089813232,0.09644178301096,-0.15794192254543,9.77968883514404,0.23863501846790,-1.03850352764130,-0.81624877452850
306,615801706,-0.93607884645462,-0.50354903936386,5.05665016174316,0.07890301197767,-0.14652599394321,9.79086875915527,0.33494451642036,-0.97905290126801,-0.78981494903564
307,615810039,-0.93068075180054,-0.51657032966614,5.04457759857178,0.08554799854755,-0.14826412498951,9.76902389526367,0.28543221950531,-1.01911354064941,-0.97085630893707
308,615818372,-0.93050771951675,-0.51640069484711,5.04518270492554,0.08718600124121,-0.14958740770817,9.76953887939453,0.28538098931313,-1.04746842384338,-0.73766434192657
309,615826705,-0.93009686470032,-0.51602435112000,5.04597282409668,0.09049061685801,-0.16300614178181,9.76770019531250,0.31207099556923,-1.02070152759552,-0.77334493398666
310,615835038,-0.93040376901627,-0.51579099893570,5.04587268829346,0.08227915316820,-0.16077445447445,9.79588985443115,0.22631455957890,-1.03750455379486,-0.82103866338730
311,615843371,-0.92988735437393,-0.51656019687653,5.04671764373779,0.09610568732023,-0.14793539047241,9.76317310333252,0.32382795214653,-1.15855741500854,-0.76973336935043
312,615851704,-0.92997169494629,-0.51615577936172,5.04673051834106,0.08868101984262,-0.15251320600510,9.76856613159180,0.25410601496696,-1.01639854907990,-0.80794978141785
313,615860037,-0.92947155237198,-0.51655328273773,5.04690217971802,0.10383781790733,-0.14905808866024,9.76782894134521,0.32108724117279,-1.11247742176056,-0.86770778894424
314,615868370,-0.93037432432175,-0.51658046245575,5.04656934738159,0.09138467162848,-0.14525248110294,9.77087688446045,0.15449224412441,-1.06778049468994,-0.84988027811050
315,615876703,-0.93020540475845,-0.51675915718079,5.04689598083496,0.09217877686024,-0.14460217952728,9.77248573303223,0.28305011987686,-1.08588981628418,-0.83282119035721
316,615885036,-0.93012821674347,-0.51687997579575,5.04701471328735,0.10685624182224,-0.15420785546303,9.76036262512207,0.27226650714874,-1.08127915859222,-0.79442542791367
317,615893369,-0.92966824769974,-0.51589012145996,5.04783916473389,0.09652046114206,-0.16846375167370,9.77313709259033,0.31770616769791,-0.94662541151047,-0.77603447437286
318,615901702,-0.92968899011612,-0.51546692848206,5.04769849777222,0.10292948782444,-0.15307827293873,9.75715732574463,0.26155975461006,-1.01442611217499,-0.82541871070862
319,615910035,-0.93049824237823,-0.51537209749222,5.04796934127808,0.10492505133152,-0.15042428672314,9.78986740112305,0.16517338156700,-1.05387210845947,-0.82546991109848
320,615918368,-0.93055629730225,-0.51586717367172,5.04808807373047,0.08926747739315,-0.14734141528606,9.76064109802246,0.25605273246765,-1.12461853027344,-0.79747360944748
321,615926701,-0.93062019348145,-0.51602882146835,5.04864120483398,0.10153460502625,-0.17138926684856,9.77792930603027,0.25487443804741,-1.08476281166077,-0.81202244758606
322,615935034,-0.93102449178696,-0.51562005281448,5.04822111129761,0.09648469835520,-0.15577460825443,9.76068401336670,0.21466007828712,-1.01573252677917,-0.85897332429886
323,615943367,-0.93138915300369,-0.51607596874237,5.04846286773682,0.09574086964130,-0.14375816285610,9.80006694793701,0.21758013963699,-1.11936771869659,-0.83822584152222
324,615951700,-0.93268740177155,-0.51567906141281,5.04799365997314,0.10307957977057,-0.14889329671860,9.74828147888184,0.10692662000656,-1.01708996295929,-0.86512070894241
325,615960033,-0.93254697322845,-0.51566165685654,5.04823732376099,0.10342304408550,-0.15634715557098,9.78067588806152,0.27856761217117,-1.06306755542755,-0.84339988231659
326,615968366,-0.93228238821030,-0.51527959108353,5.04800653457642,0.10256461799145,-0.14572486281395,9.77078342437744,0.29547303915024,-1.01844775676727,-0.83745747804642
327,615976699,-0.93269509077072,-0.51543158292770,5.04818820953369,0.10514678806067,-0.14101830124855,9.79084682464600,0.21250848472118,-1.08348214626312,-0.83901983499527
328,615985032,-0.93279320001602,-0.51565021276474,5.04903411865234,0.09707831591368,-0.15005208551884,9.79503250122070,0.25149336457253,-1.09293377399445,-0.70933502912521
329,615993365,-0.93228453397751,-0.51623207330704,5.04970359802246,0.09178518503904,-0.15761974453926,9.77122020721436,0.32434022426605,-1.13486421108246,-0.80287820100784
330,616001698,-0.93189108371735,-0.51576882600784,5.04994821548462,0.10232141613960,-0.15231978893280,9.79672718048096,0.31048294901848,-1.01066100597382,-0.77941554784775
331,616010031,-0.93192285299301,-0.51557648181915,5.05081272125244,0.07655687630177,-0.14542445540428,9.77032566070557,0.25879344344139,-1.04278123378754,-0.75902664661407
332,616018364,-0.93124175071716,-0.51513260602951,5.05106544494629,0.09787950664759,-0.15257014334202,9.79569721221924,0.34631726145744,-1.01327347755432,-0.77764821052551
333,616026697,-0.93105512857437,-0.51481854915619,5.05194282531738,0.08618460595608,-0.15615370869637,9.78043937683105,0.28471502661705,-1.02797603607178,-0.75748974084854
334,616035030,-0.93040472269058,-0.51479518413544,5.05159568786621,0.09395269304514,-0.15370060503483,9.77863693237305,0.34032350778580,-1.06201732158661,-0.85136604309082
335,616043363,-0.93006122112274,-0.51416164636612,5.05225706100464,0.10271500051022,-0.15759910643101,9.79334449768066,0.30359274148941,-0.98917061090469,-0.77685415744781
336,616051696,-0.93109405040741,-0.51367437839508,5.05204248428345,0.07412490993738,-0.16621775925159,9.76758575439453,0.13943108916283,-1.00730526447296,-0.83346158266068
337,616060029,-0.93082821369171,-0.51353639364243,5.05280303955078,0.09408849477768,-0.17310595512390,9.77572631835938,0.29501196742058,-1.04828822612762,-0.78074753284454
338,616068362,-0.93121975660324,-0.51406240463257,5.05290842056274,0.10212113708258,-0.17075267434120,9.79881572723389,0.21514678001404,-1.12945961952209,-0.79780656099319
339,616076695,-0.93144083023071,-0.51448971033096,5.05363082885742,0.08667808026075,-0.16349940001965,9.77692127227783,0.23745678365231,-1.11611473560333,-0.78328329324722
340,616085028,-0.93089234828949,-0.51396077871323,5.05378103256226,0.10772886872292,-0.16290573775768,9.78359508514404,0.32907888293266,-1.00233638286591,-0.79058337211609
341,616093361,-0.93030345439911,-0.51351463794708,5.05476474761963,0.09518288075924,-0.15751275420189,9.81108283996582,0.33417609333992,-1.01273548603058,-0.75802761316299
342,616101694,-0.93040740489960,-0.51380109786987,5.05474567413330,0.10687778145075,-0.15493772923946,9.76358795166016,0.25051999092102,-1.10013139247894,-0.81207370758057
343,616110027,-0.93070238828659,-0.51337045431137,5.05467081069946,0.11239276081324,-0.15970215201378,9.77697849273682,0.22636578977108,-1.01176226139069,-0.88855779170990
344,616118360,-0.93119192123413,-0.51293092966080,5.05458259582520,0.09199278056622,-0.16253432631493,9.76788616180420,0.20405583083630,-1.01337611675262,-0.81863099336624
345,616126693,-0.93106919527054,-0.51318186521530,5.05524730682373,0.08146373182535,-0.17812724411488,9.77682018280029,0.27680021524429,-1.09559762477875,-0.79547566175461
346,616135026,-0.93082010746002,-0.51228469610214,5.05507135391235,0.09667067229748,-0.14538869261742,9.76443195343018,0.29283472895622,-0.95666599273682,-0.82982426881790
347,616143359,-0.93094569444656,-0.51211112737656,5.05588626861572,0.10218544304371,-0.15839228034019,9.78208541870117,0.24862457811832,-1.04485583305359,-0.78943073749542
348,616151692,-0.93106079101562,-0.51234692335129,5.05588054656982,0.09770075231791,-0.15273495018482,9.76358795166016,0.24870143830776,-1.09342050552368,-0.81145900487900
349,616160025,-0.93118327856064,-0.51241391897202,5.05650138854980,0.10336573421955,-0.16809895634651,9.76735687255859,0.24762557446957,-1.07364618778229,-0.81358492374420
350,616168358,-0.93073880672455,-0.51313602924347,5.05675697326660,0.08751503378153,-0.14030301570892,9.77521800994873,0.31583631038666,-1.15297365188599,-0.78049135208130
351,616176691,-0.93007975816727,-0.51339834928513,5.05763435363770,0.09484669566154,-0.14436583220959,9.75828075408936,0.34257754683495,-1.09685277938843,-0.78776568174362
352,616185024,-0.92900049686432,-0.51326841115952,5.05762910842896,0.09992510080338,-0.16113181412220,9.79518985748291,0.39321687817574,-1.05002987384796,-0.80974280834198
353,616193357,-0.92838311195374,-0.51293218135834,5.05843114852905,0.08599853515625,-0.15033103525639,9.77736473083496,0.33704486489296,-1.02487659454346,-0.78417974710464
354,616201690,-0.92778342962265,-0.51291644573212,5.05848455429077,0.11775735020638,-0.14812137186527,9.76582622528076,0.33353576064110,-1.06373369693756,-0.80367225408554
355,616210023,-0.92866718769073,-0.51314955949783,5.05927848815918,0.08413894474506,-0.16405074298382,9.76240730285645,0.15795016288757,-1.09321558475494,-0.77675163745880
356,616218356,-0.92874246835709,-0.51381760835648,5.05936622619629,0.08593425154686,-0.17506583034992,9.76329421997070,0.25454145669937,-1.14659559726715,-0.79911291599274
357,616226689,-0.92869418859482,-0.51341831684113,5.05950403213501,0.10461040586233,-0.16486617922783,9.77052593231201,0.26716929674149,-1.01593744754791,-0.85026460886002
358,616235022,-0.92896455526352,-0.51313245296478,5.05944776535034,0.11998894065619,-0.15418668091297,9.78033924102783,0.23015671968460,-1.03163897991180,-0.81527554988861
359,616243355,-0.92941170930862,-0.51287555694580,5.06042337417603,0.09544753283262,-0.14725558459759,9.76075553894043,0.20971654355526,-1.03512251377106,-0.75925713777542
360,616251688,-0.93004316091537,-0.51323664188385,5.06076240539551,0.10964593291283,-0.16314204037189,9.77883052825928,0.18797005712986,-1.10963428020477,-0.76945155858994
361,616260021,-0.93068403005600,-0.51262259483337,5.06170940399170,0.09475371241570,-0.15302076935768,9.77920913696289,0.18543423712254,-0.99170631170273,-0.77526599168777
362,616268354,-0.93033432960510,-0.51328450441360,5.06112909317017,0.06712952256203,-0.16854993999004,9.80106163024902,0.30543693900108,-1.14308643341064,-0.88138580322266
363,616276687,-0.93091636896133,-0.51371765136719,5.06145858764648,0.09660629928112,-0.17518027126789,9.78032493591309,0.19122307002544,-1.11685740947723,-0.82946574687958
364,616285020,-0.93039768934250,-0.51360863447189,5.06133317947388,0.09433884918690,-0.16452969610691,9.78417396545410,0.32595396041870,-1.05266821384430,-0.82375377416611
365,616293353,-0.93021988868713,-0.51408064365387,5.06191921234131,0.08712878078222,-0.14096108078957,9.76202106475830,0.28335747122765,-1.12151908874512,-0.80277568101883
366,616301686,-0.92996770143509,-0.51475483179092,5.06211471557617,0.08456806093454,-0.15542411804199,9.79689121246338,0.29309087991714,-1.14723598957062,-0.78740721940994
367,616310019,-0.92991918325424,-0.51470041275024,5.06252574920654,0.08359519392252,-0.17749750614166,9.78081226348877,0.26806578040123,-1.05768847465515,-0.82521378993988
368,616318352,-0.93047708272934,-0.51494008302689,5.06195306777954,0.10015410929918,-0.17069543898106,9.79004573822021,0.19665327668190,-1.09321558475494,-0.87831217050552
369,616326685,-0.93023145198822,-0.51490414142609,5.06228733062744,0.10984621196985,-0.16654679179192,9.76178550720215,0.29050385951996,-1.06014764308929,-0.83981388807297
370,616335018,-0.93001329898834,-0.51545804738998,5.06267309188843,0.09883790463209,-0.15188318490982,9.77520465850830,0.29086244106293,-1.13261008262634,-0.76404696702957
371,616343351,-0.92993283271790,-0.51562160253525,5.06355333328247,0.09255063533783,-0.15706928074360,9.80397224426270,0.27193349599838,-1.08555686473846,-0.77877521514893
372,616351684,-0.92992311716080,-0.51533704996109,5.06321525573730,0.09863778203726,-0.16068892180920,9.76375961303711,0.26355767250061,-1.03087043762207,-0.84964978694916
373,616360017,-0.92960923910141,-0.51546251773834,5.06312370300293,0.09412425756454,-0.14934420585632,9.78299331665039,0.30028846859932,-1.07917881011963,-0.88681602478027
374,616368350,-0.92989528179169,-0.51489818096161,5.06341075897217,0.10285788029432,-0.15830671787262,9.74945354461670,0.22920899093151,-0.99818658828735,-0.77419018745422
375,616376683,-0.92985022068024,-0.51505851745605,5.06354999542236,0.08589141815901,-0.13728483021259,9.74831676483154,0.26665702462196,-1.08294427394867,-0.85515695810318
376,616385016,-0.93028759956360,-0.51525920629501,5.06280565261841,0.08350944519043,-0.17777675390244,9.76721382141113,0.21125338971615,-1.08842563629150,-0.89870101213455
377,616393349,-0.92977052927017,-0.51481628417969,5.06309795379639,0.09304418414831,-0.16275578737259,9.79998111724854,0.32323881983757,-1.01165974140167,-0.85031569004059
378,616401682,-0.92970734834671,-0.51575994491577,5.06355333328247,0.09341613203287,-0.15247000753880,9.80730628967285,0.27108824253082,-1.17912566661835,-0.75759214162827
379,616410015,-0.92919707298279,-0.51595950126648,5.06414127349854,0.10036154091358,-0.16898591816425,9.76245021820068,0.32316195964813,-1.08937335014343,-0.82298535108566
380,616418348,-0.92951941490173,-0.51592963933945,5.06363248825073,0.08990408480167,-0.15887179970741,9.76697063446045,0.22380439937115,-1.06104421615601,-0.87060230970383
381,616426681,-0.92908501625061,-0.51635283231735,5.06420946121216,0.10317966341972,-0.15942941606045,9.77861690521240,0.31504228711128,-1.11544871330261,-0.81232994794846
382,616435014,-0.92931246757507,-0.51728326082230,5.06401872634888,0.09892374277115,-0.14615371823311,9.79127025604248,0.23609919846058,-1.17628240585327,-0.83479344844818
383,616443347,-0.92853373289108,-0.51692461967468,5.06430673599243,0.09963910281658,-0.13459505140781,9.77151298522949,0.35589694976807,-1.02118825912476,-0.84178620576859
384,616451680,-0.92889583110809,-0.51745826005936,5.06396913528442,0.10619825869799,-0.15488766133785,9.77082633972168,0.21829730272293,-1.13020241260529,-0.84980344772339
385,616460013,-0.92865037918091,-0.51801586151123,5.06445980072021,0.09534024447203,-0.15030984580517,9.76416015625000,0.29262983798981,-1.13143193721771,-0.82472717761993
386,616468346,-0.92846870422363,-0.51790976524353,5.06467771530151,0.10449588298798,-0.14689794182777,9.75852394104004,0.28504800796509,-1.05213022232056,-0.78443592786789
387,616476679,-0.92871201038361,-0.51746487617493,5.06549167633057,0.08418180793524,-0.15837109088898,9.79088306427002,0.23351216316223,-1.01327335834503,-0.77226912975311
388,616485012,-0.92911756038666,-0.51759761571884,5.06502199172974,0.08222908526659,-0.17312741279602,9.79320049285889,0.21399411559105,-1.08066451549530,-0.86586356163025
389,616493345,-0.92870146036148,-0.51732915639877,5.06481981277466,0.09254348278046,-0.15053157508373,9.79350090026855,0.31212225556374,-1.03053748607635,-0.89360380172729
390,616501678,-0.92873746156693,-0.51755350828171,5.06480503082275,0.09649908542633,-0.15166202187538,9.76207160949707,0.25807625055313,-1.09275448322296,-0.81163823604584
391,616510011,-0.92863100767136,-0.51776456832886,5.06510734558105,0.09428162127733,-0.15743407607079,9.74958229064941,0.27469986677170,-1.08950138092041,-0.84929126501083
392,616518344,-0.92893326282501,-0.51801306009293,5.06484460830688,0.09236458688974,-0.14969439804554,9.77497577667236,0.22705736756325,-1.09552073478699,-0.84024935960770
393,616526677,-0.92883402109146,-0.51778608560562,5.06528472900391,0.09695670753717,-0.15166145563126,9.77894592285156,0.27477669715881,-1.03701794147491,-0.81801617145538
394,616535010,-0.92889529466629,-0.51823693513870,5.06560659408569,0.08315888047218,-0.14350719749928,9.77222919464111,0.25487443804741,-1.12049484252930,-0.77191054821014
395,616543343,-0.92911750078201,-0.51870328187943,5.06643629074097,0.09383106976748,-0.16293491423130,9.76069831848145,0.23707252740860,-1.12123751640320,-0.78925144672394
396,616551676,-0.92915493249893,-0.51839560270309,5.06586503982544,0.09321585297585,-0.16818480193615,9.80636215209961,0.25715407729149,-1.02754056453705,-0.87785100936890
397,616560009,-0.92937672138214,-0.51824086904526,5.06655454635620,0.10199954360723,-0.14921545982361,9.77609825134277,0.23635533452034,-1.04641830921173,-0.78750962018967
398,616568342,-0.92923891544342,-0.51816409826279,5.06639003753662,0.10715673863888,-0.15342132747173,9.78503227233887,0.27987390756607,-1.05651032924652,-0.82836431264877
399,616576675,-0.92886275053024,-0.51825124025345,5.06745147705078,0.10102666914463,-0.15289174020290,9.76308059692383,0.30712747573853,-1.07595145702362,-0.75838625431061
400,616585008,-0.92886614799500,-0.51726901531219,5.06777524948120,0.09039047360420,-0.15899339318275,9.77783584594727,0.26348084211349,-0.94818770885468,-0.76893931627274
401,616593341,-0.92960453033447,-0.51714193820953,5.06859588623047,0.08742204308510,-0.15612509846687,9.78760719299316,0.17406153678894,-1.05054223537445,-0.77972286939621
402,616601674,-0.92987138032913,-0.51720291376114,5.06945323944092,0.10078355669975,-0.15237700939178,9.77553272247314,0.23241074383259,-1.07454276084900,-0.70641493797302
403,616610007,-0.92969512939453,-0.51737284660339,5.07033443450928,0.10266483575106,-0.15895791351795,9.75273704528809,0.28322941064835,-1.08606910705566,-0.76630103588104
404,616618340,-0.92979484796524,-0.51648563146591,5.06988191604614,0.09782236069441,-0.15684066712856,9.80496692657471,0.25069928169250,-0.95789539813995,-0.86212390661240
405,616626673,-0.92977666854858,-0.51678240299225,5.07114458084106,0.09661352634430,-0.15628989040852,9.77498245239258,0.26614472270012,-1.10166835784912,-0.72729063034058
406,616635006,-0.92954158782959,-0.51671427488327,5.07115697860718,0.08618469536304,-0.15173356235027,9.79327201843262,0.29157963395119,-1.05768847465515,-0.80746310949326
407,616643339,-0.92942363023758,-0.51707720756531,5.07159996032715,0.08237928897142,-0.15556003153324,9.79403781890869,0.27503281831741,-1.10799491405487,-0.83471667766571
408,616651672,-0.92945218086243,-0.51649755239487,5.07119274139404,0.09695686399937,-0.16691188514233,9.78835105895996,0.25997167825699,-0.99593263864517,-0.85625827312469
409,616660005,-0.92925512790680,-0.51661843061447,5.07167673110962,0.08509021997452,-0.15942256152630,9.76628398895264,0.28622624278069,-1.07899963855743,-0.81829798221588
410,616668338,-0.92945814132690,-0.51671546697617,5.07260704040527,0.07827368378639,-0.15395830571651,9.77979755401611,0.24050486087799,-1.07892286777496,-0.69788551330566
411,616676671,-0.92866903543472,-0.51662278175354,5.07292032241821,0.10475338250399,-0.16681860387325,9.79621219635010,0.35707518458366,-1.05351352691650,-0.82546991109848
412,616685004,-0.92838650941849,-0.51604950428009,5.07393312454224,0.09942436218262,-0.14886450767517,9.79287052154541,0.29752215743065,-0.99882715940475,-0.68694818019867
413,616693337,-0.92856174707413,-0.51556235551834,5.07442855834961,0.08998991549015,-0.14679063856602,9.78353691101074,0.24076099693775,-1.00587093830109,-0.82777523994446
414,616701670,-0.92841607332230,-0.51510232686996,5.07464218139648,0.09441037476063,-0.14191240072250,9.74670696258545,0.28133395314217,-1.01142930984497,-0.78195130825043
415,616710003,-0.92795228958130,-0.51515346765518,5.07513093948364,0.09467502683401,-0.15218389034271,9.78792190551758,0.31757810711861,-1.07039332389832,-0.81714528799057
416,616718336,-0.92830479145050,-0.51443582773209,5.07531213760376,0.09515427052975,-0.14597521722317,9.78189182281494,0.22078189253807,-0.98053842782974,-0.78553736209869
417,616726669,-0.92898076772690,-0.51425409317017,5.07592391967773,0.08046226948500,-0.15073874592781,9.79043292999268,0.18184825778008,-1.04298603534698,-0.79053211212158
418,616735002,-0.92926549911499,-0.51355534791946,5.07575845718384,0.09051922708750,-0.14591799676418,9.77044010162354,0.22920899093151,-0.98143500089645,-0.82754468917847
419,616743335,-0.92930221557617,-0.51315069198608,5.07633256912231,0.09674219787121,-0.15400786697865,9.77880859375000,0.25771763920784,-1.01629602909088,-0.81115162372589
420,616751668,-0.92873317003250,-0.51323044300079,5.07643365859985,0.08858080953360,-0.14812822639942,9.76904487609863,0.33107680082321,-1.07479906082153,-0.79834449291229
421,616760001,-0.92928075790405,-0.51371759176254,5.07644176483154,0.09250050038099,-0.15790584683418,9.78500366210938,0.19683258235455,-1.12198019027710,-0.86781024932861
422,616768334,-0.92924940586090,-0.51335352659225,5.07612895965576,0.07848806679249,-0.15003775060177,9.78440284729004,0.26629841327667,-1.02164947986603,-0.84608936309814
423,616776667,-0.92866688966751,-0.51301068067551,5.07709789276123,0.08800151944160,-0.17505179345608,9.77381610870361,0.33248555660248,-1.02456939220428,-0.77290952205658
424,616785000,-0.92913591861725,-0.51300269365311,5.07739830017090,0.09456773847342,-0.15424390137196,9.76887321472168,0.20807725191116,-1.06496298313141,-0.77334499359131
425,616793333,-0.92947000265121,-0.51307231187820,5.07785177230835,0.09960340708494,-0.16784891486168,9.74722194671631,0.22167840600014,-1.07310843467712,-0.82657134532928
426,616801666,-0.92885208129883,-0.51325678825378,5.07799768447876,0.10703514516354,-0.15625385940075,9.78802871704102,0.33824878931046,-1.08758044242859,-0.79263257980347
427,616809999,-0.92913466691971,-0.51385426521301,5.07865047454834,0.09604837745428,-0.14750592410564,9.79477405548096,0.22826124727726,-1.13655483722687,-0.80057299137115
428,616818332,-0.92918020486832,-0.51360005140305,5.07888412475586,0.09218584001064,-0.15784178674221,9.76835823059082,0.25705164670944,-1.03637742996216,-0.78038883209229
429,616826665,-0.92902934551239,-0.51273089647293,5.07879543304443,0.08113478124142,-0.14625446498394,9.77849388122559,0.27946409583092,-0.95861268043518,-0.87954157590866
430,616834998,-0.92909336090088,-0.51289564371109,5.07865571975708,0.11759980767965,-0.16181130707264,9.77534008026123,0.25615516304970,-1.08514714241028,-0.82608473300934
431,616843331,-0.92922514677048,-0.51275211572647,5.07874202728271,0.08746496587992,-0.16305620968342,9.77003288269043,0.24631927907467,-1.04646956920624,-0.87790238857269
432,616851664,-0.92847317457199,-0.51281881332397,5.07847785949707,0.08795135468245,-0.14400818943977,9.78742790222168,0.35279768705368,-1.07298040390015,-0.84163260459900
433,616859997,-0.92883092164993,-0.51239067316055,5.07850790023804,0.07896738499403,-0.14721265435219,9.78579044342041,0.21965485811234,-1.01263308525085,-0.87979769706726
434,616868330,-0.92881083488464,-0.51162183284760,5.07847261428833,0.10277936607599,-0.15804259479046,9.76557731628418,0.26401868462563,-0.97349458932877,-0.81243222951889
435,616876663,-0.92913442850113,-0.51126396656036,5.07896137237549,0.08713593333960,-0.15447279810905,9.74497604370117,0.22452157735825,-1.02182877063751,-0.80239152908325
436,616884996,-0.93022310733795,-0.51150095462799,5.07800960540771,0.09984653443098,-0.15882888436317,9.78184890747070,0.13156752288342,-1.09152495861053,-0.92500686645508
437,616893329,-0.93066942691803,-0.51123803853989,5.07798957824707,0.09574073553085,-0.14141856133938,9.76476860046387,0.20866638422012,-1.03248429298401,-0.87513601779938
438,616901662,-0.93052548170090,-0.51160734891891,5.07730674743652,0.10416676104069,-0.15556684136391,9.77144241333008,0.27984830737114,-1.10843026638031,-0.89237433671951
439,616909995,-0.93028777837753,-0.51200729608536,5.07778406143188,0.09805823862553,-0.15421499311924,9.79653453826904,0.28960734605789,-1.11316895484924,-0.82995247840881
440,616918328,-0.93084913492203,-0.51161926984787,5.07828235626221,0.08802288770676,-0.17610299587250,9.77241420745850,0.19724239408970,-1.01983070373535,-0.74896013736725
441,616926661,-0.93082171678543,-0.51211154460907,5.07835006713867,0.10234303772449,-0.15665507316589,9.77938175201416,0.26496642827988,-1.12254381179810,-0.85838419198990
442,616934994,-0.93029314279556,-0.51116847991943,5.07807731628418,0.08422472327948,-0.14799948036671,9.78916645050049,0.32613325119019,-0.95272141695023,-0.83945530653000
443,616943327,-0.93001168966293,-0.51093232631683,5.07831239700317,0.08206456899643,-0.15179048478603,9.76407432556152,0.29590845108032,-1.03545546531677,-0.84219598770142
444,616951660,-0.93007159233093,-0.51091080904007,5.07852125167847,0.08998276293278,-0.16488733887672,9.79283523559570,0.25600144267082,-1.06324684619904,-0.78471761941910
445,616959993,-0.92967283725739,-0.51136106252670,5.07880735397339,0.08961091190577,-0.16726955771446,9.77834415435791,0.31002187728882,-1.11829197406769,-0.84498792886734
446,616968326,-0.92966794967651,-0.51120758056641,5.07878971099854,0.10563310235739,-0.15390029549599,9.79573345184326,0.26335275173187,-1.04728913307190,-0.81174069643021
447,616976659,-0.92964297533035,-0.51080286502838,5.07907199859619,0.09485384821892,-0.15151152014732,9.76319408416748,0.26596540212631,-1.01545059680939,-0.83215522766113
448,616984992,-0.92971765995026,-0.51118367910385,5.07891845703125,0.10709951817989,-0.16118931770325,9.78888034820557,0.25328636169434,-1.11165785789490,-0.82803136110306
449,616993325,-0.92901396751404,-0.51083135604858,5.07936906814575,0.10654874891043,-0.14679779112339,9.75365257263184,0.34731623530388,-1.02282762527466,-0.79847252368927
450,617001658,-0.92869228124619,-0.51034384965897,5.07942056655884,0.10154882073402,-0.12531039118767,9.76809501647949,0.30136427283287,-1.00674176216125,-0.80323678255081
451,617009991,-0.92864960432053,-0.51057893037796,5.07993030548096,0.09880936890841,-0.14233441650867,9.73168563842773,0.26783522963524,-1.09347164630890,-0.82383054494858
452,617018324,-0.92867213487625,-0.51079452037811,5.07950305938721,0.07612770795822,-0.15227687358856,9.77086257934570,0.26045835018158,-1.09003937244415,-0.86171406507492
453,617026657,-0.92856425046921,-0.51056277751923,5.07912445068359,0.10071212053299,-0.15667620301247,9.80874347686768,0.27352163195610,-1.03568601608276,-0.91004824638367
454,617034990,-0.92876517772675,-0.51072192192078,5.07885122299194,0.10526838898659,-0.15965861082077,9.80272102355957,0.23955710232258,-1.08394312858582,-0.84242653846741
455,617043323,-0.92961853742599,-0.51053535938263,5.08074808120728,0.08235783129930,-0.15555287897587,9.77470302581787,0.16138246655464,-1.04531693458557,-0.64353197813034
456,617051656,-0.93016219139099,-0.50990450382233,5.08113145828247,0.08911715447903,-0.15400019288063,9.77051067352295,0.19865117967129,-0.99042558670044,-0.76248455047607
457,617059989,-0.93004703521729,-0.50917971134186,5.08195257186890,0.11714211106300,-0.16278439760208,9.78026771545410,0.27590373158455,-0.97861754894257,-0.78423106670380
458,617068322,-0.93060153722763,-0.50925588607788,5.08238077163696,0.10511102527380,-0.14945864677429,9.76501083374023,0.19749854505062,-1.07459390163422,-0.75943642854691
459,617076655,-0.93060231208801,-0.50866043567657,5.08229589462280,0.10711373388767,-0.14926524460316,9.79594802856445,0.26099622249603,-0.99244910478592,-0.89099115133286
460,617084988,-0.93083590269089,-0.50897693634033,5.08233404159546,0.11057580262423,-0.16126799583435,9.76101303100586,0.23425497114658,-1.10366618633270,-0.80546522140503
461,617093321,-0.93031018972397,-0.50916963815689,5.08254718780518,0.09350911527872,-0.14410117268562,9.77324390411377,0.32585147023201,-1.08711922168732,-0.86022847890854
462,617101654,-0.93050903081894,-0.50969427824020,5.08246755599976,0.09574072808027,-0.17091688513756,9.77833747863770,0.23932658135891,-1.12840938568115,-0.81968110799789
463,617109987,-0.93046879768372,-0.50984841585159,5.08293867111206,0.08391000330448,-0.15766295790672,9.76308727264404,0.26665699481964,-1.08279049396515,-0.82237058877945
464,617118320,-0.93109643459320,-0.50998169183731,5.08232831954956,0.11511063575745,-0.14834249019623,9.77986812591553,0.18730409443378,-1.08061325550079,-0.88264083862305
465,617126653,-0.93141692876816,-0.51064521074295,5.08357048034668,0.09543322771788,-0.14903663098812,9.77292919158936,0.22572542726994,-1.14587831497192,-0.71645575761795
466,617134986,-0.93178498744965,-0.51058512926102,5.08333635330200,0.11126240342855,-0.13625422120094,9.76980400085449,0.21847660839558,-1.05773961544037,-0.83755981922150
467,617143319,-0.93180346488953,-0.51069045066833,5.08421468734741,0.08849504590034,-0.13424484431744,9.78543949127197,0.26017656922340,-1.07797503471375,-0.77764821052551
468,617151652,-0.93159896135330,-0.51162451505661,5.08453893661499,0.09429600834846,-0.13887991011143,9.79878711700439,0.28842911124229,-1.17817795276642,-0.77278155088425
469,617159985,-0.93105489015579,-0.51155674457550,5.08515596389771,0.07142113894224,-0.13842181861401,9.78401660919189,0.32787501811981,-1.05709946155548,-0.79142862558365
470,617168318,-0.93065851926804,-0.51109379529953,5.08530569076538,0.07667847722769,-0.14653314650059,9.77959537506104,0.30930471420288,-1.01025104522705,-0.79137748479843
471,617176651,-0.93068063259125,-0.51135051250458,5.08481740951538,0.10060464590788,-0.16808430850506,9.79280090332031,0.25920322537422,-1.09331798553467,-0.95113331079483
472,617184984,-0.93061369657516,-0.51165282726288,5.08467960357666,0.09736458212137,-0.14563219249249,9.79130458831787,0.27185666561127,-1.10148894786835,-0.82621270418167
473,617193317,-0.93021786212921,-0.51141381263733,5.08508014678955,0.10009688138962,-0.15462300181389,9.81052494049072,0.30868995189667,-1.03663361072540,-0.80082899332047
474,617201650,-0.93000292778015,-0.51115101575851,5.08498048782349,0.07344539463520,-0.15138992667198,9.78740692138672,0.28978666663170,-1.03325259685516,-0.82126921415329
475,617209983,-0.92938822507858,-0.51148247718811,5.08591365814209,0.08848066627979,-0.15355007350445,9.77958106994629,0.33678877353668,-1.10627877712250,-0.73338681459427
476,617218316,-0.92867535352707,-0.51146495342255,5.08582592010498,0.09219288825989,-0.15794879198074,9.78787231445312,0.34849447011948,-1.06255519390106,-0.82116675376892
477,617226649,-0.92933964729309,-0.51204764842987,5.08604621887207,0.07953245937824,-0.14119711518288,9.77763557434082,0.18182265758514,-1.13363492488861,-0.85856360197067
478,617234982,-0.92914092540741,-0.51137346029282,5.08645915985107,0.09110560268164,-0.14737667143345,9.77125453948975,0.28750696778297,-0.98596864938736,-0.75813007354736
479,617243315,-0.92917948961258,-0.51155942678452,5.08729267120361,0.08221470564604,-0.14697633683681,9.75042724609375,0.25764077901840,-1.08750343322754,-0.78336018323898
480,617251648,-0.92963004112244,-0.51184481382370,5.08735609054565,0.10987482219934,-0.15065318346024,9.80159759521484,0.20987024903297,-1.09943985939026,-0.80292946100235
481,617259981,-0.92914021015167,-0.51126188039780,5.08790254592896,0.11778567731380,-0.15515895187855,9.77687644958496,0.32075423002243,-0.99577891826630,-0.77098846435547
482,617268314,-0.92867511510849,-0.51123678684235,5.08812713623047,0.09785088896751,-0.14874337613583,9.79276371002197,0.31860268115997,-1.06296515464783,-0.78254055976868
483,617276647,-0.92916154861450,-0.51158559322357,5.08881664276123,0.08247227966785,-0.16354975104332,9.75654220581055,0.20523403584957,-1.10653495788574,-0.78143900632858
484,617284980,-0.92877572774887,-0.51187270879745,5.08884477615356,0.10283633321524,-0.14861433207989,9.77733612060547,0.30971452593803,-1.10087418556213,-0.80556786060333
485,617293313,-0.92850893735886,-0.51248937845230,5.08941030502319,0.07970403879881,-0.17402122914791,9.78541851043701,0.29506316781044,-1.13829660415649,-0.78515309095383
486,617301646,-0.92889690399170,-0.51203596591949,5.08973169326782,0.10598380118608,-0.16212686896324,9.78702926635742,0.21591518819332,-1.01217198371887,-0.77001512050629
487,617309979,-0.92816627025604,-0.51176154613495,5.09036922454834,0.08425323665142,-0.13351468741894,9.78220748901367,0.35054358839989,-1.03169023990631,-0.80226343870163
488,617318312,-0.92771953344345,-0.51194453239441,5.09089803695679,0.10616249591112,-0.15189062058926,9.79368686676025,0.31755247712135,-1.08901476860046,-0.74573278427124
489,617326645,-0.92763394117355,-0.51229023933411,5.09137439727783,0.09106284379959,-0.12969535589218,9.76468944549561,0.27131882309914,-1.10630440711975,-0.80095708370209
490,617334978,-0.92730712890625,-0.51209175586700,5.09058380126953,0.09791536629200,-0.16078191995621,9.76051235198975,0.30179971456528,-1.03937447071075,-0.90513014793396
491,617343311,-0.92760020494461,-0.51072239875793,5.09134197235107,0.09051922708750,-0.14234156906605,9.77262878417969,0.22739036381245,-0.90162104368210,-0.78394925594330
492,617351644,-0.92755508422852,-0.51087248325348,5.09111928939819,0.08233637362719,-0.14566764235497,9.78991699218750,0.26875731348991,-1.08314907550812,-0.83612543344498
493,617359977,-0.92798000574112,-0.51164305210114,5.09248113632202,0.09225742518902,-0.15911526978016,9.76014709472656,0.21174009144306,-1.15796828269958,-0.71486771106720
494,617368310,-0.92812091112137,-0.51148062944412,5.09213113784790,0.09580517560244,-0.15382903814316,9.80061817169189,0.24534595012665,-1.04616212844849,-0.85023885965347
495,617376643,-0.92782711982727,-0.51105630397797,5.09221696853638,0.10024718940258,-0.17685434222221,9.74841690063477,0.29780387878418,-1.01288926601410,-0.86010038852692
496,617384976,-0.92735552787781,-0.51174843311310,5.09262466430664,0.10850862413645,-0.17728321254253,9.77403831481934,0.31960159540176,-1.14910578727722,-0.76235640048981
497,617393309,-0.92788749933243,-0.51156067848206,5.09260511398315,0.10275059193373,-0.15370029211044,9.78959560394287,0.19821575284004,-1.04098808765411,-0.87554574012756
498,617401642,-0.92769426107407,-0.51169073581696,5.09211444854736,0.09512557089329,-0.16433626413345,9.74546337127686,0.28673857450485,-1.08015239238739,-0.86834824085236
499,617409975,-0.92770147323608,-0.51242542266846,5.09226608276367,0.09664206206799,-0.16354975104332,9.77805805206299,0.26071450114250,-1.15194892883301,-0.86609411239624
500,617418308,-0.92787480354309,-0.51290422677994,5.09201049804688,0.09481808543205,-0.15669733285904,9.75040531158447,0.24242590367794,-1.12233889102936,-0.84106898307800
501,617426641,-0.92796421051025,-0.51322937011719,5.09285926818848,0.08878816664219,-0.15729789435863,9.78825092315674,0.25146773457527,-1.10422968864441,-0.75941085815430
502,617434974,-0.92772573232651,-0.51259624958038,5.09322357177734,0.10408085584641,-0.15756230056286,9.76769256591797,0.29303964972496,-0.99045109748840,-0.76404696702957
503,617443307,-0.92792499065399,-0.51252478361130,5.09375429153442,0.09599830210209,-0.15380758047104,9.80773544311523,0.23786659538746,-1.05612611770630,-0.81230419874191
504,617451640,-0.92805784940720,-0.51195931434631,5.09381437301636,0.08355221152306,-0.15740491449833,9.78843498229980,0.24708770215511,-0.99793058633804,-0.80116194486618
505,617459973,-0.92818385362625,-0.51192808151245,5.09414577484131,0.08617030084133,-0.15133269131184,9.78136920928955,0.24706208705902,-1.06060850620270,-0.84468060731888
506,617468306,-0.92858535051346,-0.51143795251846,5.09418630599976,0.08804434537888,-0.15855707228184,9.76910209655762,0.21481376886368,-1.00669062137604,-0.80390268564224
507,617476639,-0.92839515209198,-0.51078361272812,5.09544515609741,0.08201449364424,-0.17023050785065,9.76481056213379,0.28591889142990,-0.98727506399155,-0.73333555459976
508,617484972,-0.92843371629715,-0.51055973768234,5.09568309783936,0.09823006391525,-0.14294984936714,9.78280735015869,0.25789692997932,-1.03906702995300,-0.78097808361053
509,617493305,-0.92750233411789,-0.51075243949890,5.09650516510010,0.09825155138969,-0.14769935607910,9.77936649322510,0.37541502714157,-1.08837449550629,-0.78323203325272
510,617501638,-0.92763084173203,-0.51085907220840,5.09706020355225,0.09893090277910,-0.16640348732471,9.76743698120117,0.24742069840431,-1.07948625087738,-0.74329942464828
511,617509971,-0.92756903171539,-0.51143795251846,5.09778213500977,0.09571942687035,-0.14648336172104,9.78910923004150,0.27019178867340,-1.13460814952850,-0.77257663011551
512,617518304,-0.92737323045731,-0.51158398389816,5.09764671325684,0.09952465444803,-0.15614655613899,9.76802921295166,0.28632870316505,-1.08245754241943,-0.82644319534302
513,617526637,-0.92684012651443,-0.51127171516418,5.09823131561279,0.09060496836901,-0.15656830370426,9.76988983154297,0.32705533504486,-1.02756607532501,-0.79176151752472
514,617534970,-0.92669832706451,-0.51100474596024,5.09865427017212,0.09354496002197,-0.15355749428272,9.80256366729736,0.28084728121758,-1.03381609916687,-0.75859111547470
515,617543303,-0.92700749635696,-0.51068168878555,5.09934568405151,0.09070520102978,-0.15000942349434,9.79583263397217,0.22503384947777,-1.02656733989716,-0.77050179243088
516,617551636,-0.92702126502991,-0.51071560382843,5.09981536865234,0.09269376844168,-0.16495198011398,9.77737808227539,0.26276364922523,-1.07093119621277,-0.75236696004868
517,617559969,-0.92690420150757,-0.51047021150589,5.09976100921631,0.10619825869799,-0.16338524222374,9.78218555450439,0.27528899908066,-1.03371357917786,-0.88709777593613
518,617568302,-0.92669284343719,-0.51015710830688,5.09913682937622,0.09612705558538,-0.15881457924843,9.79457378387451,0.28725084662437,-1.02710521221161,-0.88343495130539
519,617576635,-0.92658966779709,-0.50934189558029,5.09972524642944,0.08767223358154,-0.15417902171612,9.77499485015869,0.27587810158730,-0.96719342470169,-0.77803236246109
520,617584968,-0.92634898424149,-0.50965076684952,5.09987020492554,0.09528293460608,-0.17598110437393,9.75662899017334,0.29173332452774,-1.10251343250275,-0.79329848289490
521,617593301,-0.92558842897415,-0.50962561368942,5.10015487670898,0.08675672113895,-0.17181098461151,9.79835796356201,0.35356608033180,-1.06068539619446,-0.84444999694824
522,617601634,-0.92536425590515,-0.51002925634384,5.10032033920288,0.10305100679398,-0.16138958930969,9.76745033264160,0.28865963220596,-1.11480832099915,-0.79009664058685
523,617609967,-0.92581689357758,-0.51059240102768,5.10170602798462,0.09805122762918,-0.14894391596317,9.77184200286865,0.20938356220722,-1.13355791568756,-0.70982164144516
524,617618300,-0.92627310752869,-0.51076650619507,5.10241746902466,0.09833728522062,-0.14962317049503,9.78172016143799,0.21030569076538,-1.08793914318085,-0.72393512725830
525,617626633,-0.92637109756470,-0.51162779331207,5.10296583175659,0.10086939483881,-0.15071040391922,9.75795173645020,0.24898315966129,-1.16790664196014,-0.81266278028488
526,617634966,-0.92562353610992,-0.51188588142395,5.10341310501099,0.10027560591698,-0.15474432706833,9.79482460021973,0.35371977090836,-1.09677600860596,-0.75677257776260
527,617643299,-0.92517280578613,-0.51211321353912,5.10414457321167,0.06683616340160,-0.15038137137890,9.77285766601562,0.31701457500458,-1.09254944324493,-0.78756088018417
528,617651632,-0.92484456300735,-0.51185482740402,5.10393714904785,0.07330957800150,-0.17015212774277,9.76774311065674,0.30249130725861,-1.03445661067963,-0.83348721265793
529,617659965,-0.92585331201553,-0.51172101497650,5.10439729690552,0.08591994643211,-0.17999413609505,9.76073360443115,0.14035320281982,-1.04874920845032,-0.81573647260666
530,617668298,-0.92559844255447,-0.51146101951599,5.10451650619507,0.09612714499235,-0.16090348362923,9.76786518096924,0.29378244280815,-1.03484070301056,-0.79432296752930
531,617676631,-0.92550379037857,-0.51098161935806,5.10444116592407,0.08499722927809,-0.15053157508373,9.76819419860840,0.27349600195885,-1.00558936595917,-0.88358873128891
532,617684964,-0.92566800117493,-0.51122140884399,5.10448789596558,0.09838020056486,-0.15265597403049,9.79224205017090,0.24411648511887,-1.09352290630341,-0.80513226985931
533,617693297,-0.92576938867569,-0.51046764850616,5.10483646392822,0.09662060439587,-0.14536722004414,9.79112625122070,0.24903438985348,-0.97416055202484,-0.82792884111404
534,617701630,-0.92533421516418,-0.50953000783920,5.10483932495117,0.08927481621504,-0.15429449081421,9.77748012542725,0.31591314077377,-0.95341300964355,-0.80666911602020
535,617709963,-0.92471903562546,-0.50926578044891,5.10492563247681,0.10465335100889,-0.17310625314713,9.79638385772705,0.33568733930588,-1.03227925300598,-0.82541877031326
536,617718296,-0.92514187097549,-0.50861465930939,5.10465335845947,0.10297948122025,-0.15710504353046,9.76667785644531,0.21320010721684,-0.98676288127899,-0.84040302038193
537,617726629,-0.92616683244705,-0.50815737247467,5.10597658157349,0.10568325221539,-0.15950839221478,9.77605533599854,0.13927739858627,-1.01178789138794,-0.68899726867676
538,617734962,-0.92612808942795,-0.50782400369644,5.10674762725830,0.08449638634920,-0.15668252110481,9.77600383758545,0.26770716905594,-1.02759182453156,-0.71566164493561
539,617743295,-0.92638677358627,-0.50744068622589,5.10725831985474,0.09452482312918,-0.15409369766712,9.77295112609863,0.23243638873100,-1.01834523677826,-0.79975324869156
540,617751628,-0.92616832256317,-0.50763124227524,5.10695505142212,0.10199247300625,-0.14760637283325,9.79639053344727,0.28868523240089,-1.08796453475952,-0.84611487388611
541,617759961,-0.92605912685394,-0.50799733400345,5.10797929763794,0.09272945672274,-0.16708326339722,9.76818656921387,0.27626231312752,-1.10922443866730,-0.73728013038635
542,617768294,-0.92661219835281,-0.50788927078247,5.10732936859131,0.08848066627979,-0.15686184167862,9.77754306793213,0.19611537456512,-1.05146431922913,-0.88704657554626
543,617776627,-0.92632275819778,-0.50731754302979,5.10700130462646,0.09719292819500,-0.14687679708004,9.76184272766113,0.29644635319710,-0.99419093132019,-0.91079092025757
544,617784960,-0.92644166946411,-0.50703012943268,5.10720014572144,0.09457481652498,-0.16612450778484,9.78134918212891,0.24790737032890,-1.03217697143555,-0.78423106670380
545,617793293,-0.92682635784149,-0.50702118873596,5.10817813873291,0.08558370918036,-0.15887868404388,9.78336620330811,0.21724714338779,-1.06332373619080,-0.75149607658386
546,617801626,-0.92644059658051,-0.50732314586639,5.10870742797852,0.10232856869698,-0.14988783001900,9.77945232391357,0.30961206555367,-1.10289776325226,-0.74650120735168
547,617809959,-0.92996144294739,-0.51551163196564,5.10991525650024,0.11086200177670,-0.14946609735489,9.78239250183105,0.28850591182709,-1.05266821384430,-0.81138211488724
548,617818292,-0.92967295646667,-0.51549220085144,5.10952901840210,0.10002535581589,-0.14827127754688,9.82183361053467,0.29759898781776,-1.06255519390106,-0.85564345121384
549,617826625,-0.93018215894699,-0.51519757509232,5.11016035079956,0.08941774815321,-0.15058192610741,9.76845169067383,0.20159685611725,-1.02951300144196,-0.78789389133453
550,617834958,-0.92996376752853,-0.51507532596588,5.11042165756226,0.11188485473394,-0.13884411752224,9.75201416015625,0.28924876451492,-1.05033731460571,-0.77810919284821
551,617843291,-0.93044638633728,-0.51508396863937,5.11060619354248,0.10711382329464,-0.14033877849579,9.79876518249512,0.20561824738979,-1.06404089927673,-0.81604385375977
552,617851624,-0.92993813753128,-0.51474875211716,5.11097669601440,0.12649087607861,-0.14191240072250,9.77818679809570,0.32462200522423,-1.02636241912842,-0.76322734355927
553,617859957,-0.92974352836609,-0.51446747779846,5.11157798767090,0.09719291329384,-0.13865098357201,9.79511070251465,0.28527855873108,-1.03035819530487,-0.79273492097855
554,617868290,-0.93029791116714,-0.51462858915329,5.11094093322754,0.08231491595507,-0.14413693547249,9.78357315063477,0.19667890667915,-1.08299541473389,-0.88586831092834
555,617876623,-0.93036282062531,-0.51494640111923,5.11189699172974,0.08311596512794,-0.16601006686687,9.76225757598877,0.25510495901108,-1.10300016403198,-0.76612174510956
556,617884956,-0.93065798282623,-0.51525753736496,5.11196756362915,0.08262249082327,-0.16441525518894,9.76718521118164,0.22821001708508,-1.10238540172577,-0.80149495601654
557,617893289,-0.93065756559372,-0.51500469446182,5.11271238327026,0.08602017164230,-0.16140417754650,9.79377269744873,0.26307097077370,-1.03327822685242,-0.78812444210052
558,617901622,-0.93080377578735,-0.51463836431503,5.11270046234131,0.09056214243174,-0.15364307165146,9.79116916656494,0.24580699205399,-1.02093219757080,-0.80994766950607
559,617909955,-0.93065536022186,-0.51498007774353,5.11344051361084,0.10851578414440,-0.15134701132774,9.77723503112793,0.28074485063553,-1.10625314712524,-0.76673650741577
560,617918288,-0.93115967512131,-0.51454323530197,5.11261081695557,0.07982566207647,-0.16457231342793,9.75973987579346,0.20103333890438,-1.01076340675354,-0.90856242179871
561,617926621,-0.93109953403473,-0.51449960470200,5.11223697662354,0.08414613455534,-0.13257826864719,9.77953815460205,0.26993563771248,-1.05702269077301,-0.89424425363541
562,617934954,-0.93096673488617,-0.51426458358765,5.11175775527954,0.10114119946957,-0.14960171282291,9.75980377197266,0.27838832139969,-1.03542983531952,-0.86699062585831
563,617943287,-0.93076974153519,-0.51393049955368,5.11189508438110,0.10109828412533,-0.15731246769428,9.75301551818848,0.28489428758621,-1.02326297760010,-0.85874283313751
564,617951620,-0.93169438838959,-0.51326930522919,5.11117315292358,0.09758623689413,-0.17153233289719,9.78308677673340,0.15185397863388,-0.98404765129089,-0.89470529556274
565,617959953,-0.93176865577698,-0.51356703042984,5.11122846603394,0.08963935077190,-0.15685437619686,9.76536941528320,0.25326076149940,-1.09923481941223,-0.86015158891678
566,617968286,-0.93197184801102,-0.51411843299866,5.11084365844727,0.08601301163435,-0.15196247398853,9.78241443634033,0.23802027106285,-1.13058686256409,-0.85623264312744
567,617976619,-0.93180078268051,-0.51284945011139,5.11068677902222,0.09965340793133,-0.14846441149712,9.77443885803223,0.28345993161201,-0.90940779447556,-0.90338850021362
568,617984952,-0.93183803558350,-0.51224434375763,5.10990715026855,0.10396657139063,-0.15221250057220,9.79709148406982,0.25769200921059,-0.99080985784531,-0.90187728404999
569,617993285,-0.93146425485611,-0.51209777593613,5.11023187637329,0.07920342683792,-0.15321390330791,9.79867935180664,0.30725556612015,-1.04646956920624,-0.83558756113052
570,618001618,-0.93038982152939,-0.51210552453995,5.11037206649780,0.10520390421152,-0.15290604531765,9.78044795989990,0.39191058278084,-1.06596183776855,-0.79309344291687
571,618009951,-0.93061000108719,-0.51238775253296,5.11069679260254,0.09010436385870,-0.16620345413685,9.78099727630615,0.23663711547852,-1.09682714939117,-0.83484476804733
572,618018284,-0.93048673868179,-0.51323682069778,5.11010074615479,0.11748553812504,-0.16280621290207,9.78491020202637,0.27631351351738,-1.16619050502777,-0.88235914707184
573,618026617,-0.92976731061935,-0.51295500993729,5.11032629013062,0.08159963041544,-0.14217706024647,9.78045368194580,0.34916043281555,-1.02874445915222,-0.85876846313477
574,618034950,-0.92950731515884,-0.51332759857178,5.11060762405396,0.08506876230240,-0.14775627851486,9.78483200073242,0.29401299357414,-1.11060750484467,-0.77582955360413
575,618043283,-0.92896121740341,-0.51294499635696,5.11157417297363,0.11006794869900,-0.14726988971233,9.78644847869873,0.32984727621078,-1.01855003833771,-0.75380134582520
576,618051616,-0.92897957563400,-0.51286560297012,5.11093568801880,0.08871670812368,-0.16395746171474,9.77301502227783,0.26097062230110,-1.05453801155090,-0.88507419824600
577,618059949,-0.92909282445908,-0.51231491565704,5.11157274246216,0.08922456204891,-0.14966608583927,9.79967403411865,0.24849647283554,-0.99764883518219,-0.80303192138672
578,618068282,-0.92872601747513,-0.51197969913483,5.11137008666992,0.09837304800749,-0.16149689257145,9.77538299560547,0.30710184574127,-1.02395451068878,-0.83351278305054
579,618076615,-0.92871928215027,-0.51170170307159,5.11171817779541,0.08698572218418,-0.14269205927849,9.75323772430420,0.26281487941742,-1.03092169761658,-0.83579254150391
580,618084948,-0.92850893735886,-0.51100164651871,5.11190795898438,0.09621289372444,-0.13864354789257,9.77386665344238,0.28776308894157,-0.98140943050385,-0.78543490171432
581,618093281,-0.92778098583221,-0.51090091466904,5.11240625381470,0.09677796810865,-0.15938679873943,9.77468872070312,0.35108155012131,-1.05172049999237,-0.81745266914368
582,618101614,-0.92767941951752,-0.51027321815491,5.11194705963135,0.10111974179745,-0.16718339920044,9.78403091430664,0.27559635043144,-0.98845326900482,-0.86345583200455
583,618109947,-0.92785561084747,-0.50994229316711,5.11208820343018,0.10355170816183,-0.15330688655376,9.77702808380127,0.24024868011475,-1.02351915836334,-0.84032607078552
584,618118280,-0.92788869142532,-0.50988274812698,5.11162328720093,0.08431056141853,-0.15176187455654,9.77826499938965,0.25884464383125,-1.05725312232971,-0.86450588703156
585,618126613,-0.92772495746613,-0.50976157188416,5.11176967620850,0.09401687979698,-0.16114610433578,9.76780891418457,0.28230729699135,-1.04841625690460,-0.84129947423935
586,618134946,-0.92714917659760,-0.51046675443649,5.11165714263916,0.11033260077238,-0.14734856784344,9.77267932891846,0.33117923140526,-1.14961802959442,-0.82416361570358
587,618143279,-0.92729252576828,-0.51044744253159,5.11254072189331,0.10581908375025,-0.15982286632061,9.77128505706787,0.24601191282272,-1.06260633468628,-0.76025611162186
588,618151612,-0.92712217569351,-0.51101696491241,5.11217260360718,0.09406703710556,-0.12470981478691,9.78357315063477,0.28369048237801,-1.13158571720123,-0.85582274198532
589,618159945,-0.92761129140854,-0.51098895072937,5.11267805099487,0.10931683331728,-0.14891475439072,9.79127693176270,0.20403020083904,-1.06037807464600,-0.82329279184341
590,618168278,-0.92668068408966,-0.51066792011261,5.11263465881348,0.08973956853151,-0.14979483187199,9.77261447906494,0.37544065713882,-1.02651619911194,-0.81363618373871
591,618176611,-0.92707127332687,-0.51117455959320,5.11284875869751,0.08448931574821,-0.16173976659775,9.76680755615234,0.21401971578598,-1.12395262718201,-0.85748773813248
592,618184944,-0.92721879482269,-0.51130324602127,5.11282968521118,0.08541216701269,-0.15512400865555,9.78121185302734,0.24680595099926,-1.08012664318085,-0.81168943643570
593,618193277,-0.92686116695404,-0.51222729682922,5.11360216140747,0.08920310437679,-0.16555255651474,9.78277873992920,0.30548816919327,-1.17533469200134,-0.79324716329575
594,618201610,-0.92656469345093,-0.51255685091019,5.11312818527222,0.07585599273443,-0.15528139472008,9.78425979614258,0.29877722263336,-1.10297453403473,-0.86719548702240
595,618209943,-0.92717158794403,-0.51240229606628,5.11363840103149,0.08277985453606,-0.15229117870331,9.78991031646729,0.18848232924938,-1.04593169689178,-0.81299573183060
596,618218276,-0.92719370126724,-0.51227307319641,5.11328506469727,0.08164254575968,-0.16508045792580,9.76152801513672,0.26058641076088,-1.04844188690186,-0.85182696580887
597,618226609,-0.92710942029953,-0.51272046566010,5.11412525177002,0.10837272554636,-0.16595311462879,9.77026844024658,0.27316299080849,-1.11703681945801,-0.79163348674774
598,618234942,-0.92644077539444,-0.51259201765060,5.11383247375488,0.09642032533884,-0.14087523519993,9.75647735595703,0.34273123741150,-1.04910778999329,-0.84401464462280
599,618243275,-0.92681497335434,-0.51272594928741,5.11385250091553,0.08074837177992,-0.14687615633011,9.78755760192871,0.21765694022179,-1.07938373088837,-0.88061738014221
600,618251608,-0.92621135711670,-0.51212573051453,5.11355924606323,0.10800793021917,-0.16603179275990,9.76847267150879,0.33589226007462,-0.99214184284210,-0.84368175268173
601,618259941,-0.92610567808151,-0.51201790571213,5.11399936676025,0.08607015758753,-0.15574599802494,9.80515289306641,0.27452057600021,-1.05087530612946,-0.81509619951248
602,618268274,-0.92547529935837,-0.51231735944748,5.11364126205444,0.07916061580181,-0.15670479834080,9.76742172241211,0.33888912200928,-1.09967029094696,-0.85336387157440
603,618276607,-0.92630356550217,-0.51199185848236,5.11460542678833,0.08310172706842,-0.14542445540428,9.76979637145996,0.16284249722958,-1.02661848068237,-0.74801248311996
604,618284940,-0.92659199237823,-0.51127791404724,5.11457014083862,0.10341580212116,-0.14794939756393,9.75793743133545,0.22851739823818,-0.97889918088913,-0.81230425834656
605,618293273,-0.92677962779999,-0.51183861494064,5.11534166336060,0.08850212395191,-0.15252722799778,9.76255035400391,0.24083784222603,-1.13127827644348,-0.78366744518280
606,618301606,-0.92692261934280,-0.51143771409988,5.11563348770142,0.09737880527973,-0.15769158303738,9.79739189147949,0.24562768638134,-1.01765346527100,-0.77331936359406
607,618309939,-0.92646586894989,-0.51098132133484,5.11651420593262,0.08765791356564,-0.15706875920296,9.76627635955811,0.31908929347992,-1.00968742370605,-0.76174169778824
608,618318272,-0.92665231227875,-0.51110160350800,5.11659145355225,0.11164879798889,-0.15512400865555,9.80365753173828,0.24019747972488,-1.07889711856842,-0.80111074447632
609,618326605,-0.92727321386337,-0.51105433702469,5.11704969406128,0.10420982539654,-0.14678378403187,9.77764320373535,0.18763706088066,-1.05861067771912,-0.81261157989502
610,618334938,-0.92825001478195,-0.51082319021225,5.11715698242188,0.10476768761873,-0.14436583220959,9.77873706817627,0.14665430784225,-1.03747892379761,-0.79562932252884
611,618343271,-0.92771160602570,-0.51077687740326,5.11777877807617,0.07720072567463,-0.15297813713551,9.77704906463623,0.32784941792488,-1.05814969539642,-0.80210983753204
612,618351604,-0.92747449874878,-0.51140123605728,5.11717033386230,0.09946743398905,-0.15847839415073,9.78504657745361,0.29017081856728,-1.13898801803589,-0.88323003053665
613,618359937,-0.92750287055969,-0.51190835237503,5.11714744567871,0.09799394756556,-0.15581037104130,9.77506828308105,0.25956180691719,-1.12367069721222,-0.88200050592422
614,618368270,-0.92699939012527,-0.51182001829147,5.11697912216187,0.08605585247278,-0.16005201637745,9.75436782836914,0.32316195964813,-1.05300116539001,-0.83049029111862
615,618376603,-0.92735904455185,-0.51167815923691,5.11666059494019,0.09658484160900,-0.15680462121964,9.78378772735596,0.21916821599007,-1.04618787765503,-0.88709789514542
616,618384936,-0.92774438858032,-0.51123094558716,5.11594295501709,0.08537626266479,-0.15934358537197,9.79956722259521,0.21588957309723,-1.00930321216583,-0.89539682865143
617,618393269,-0.92782604694366,-0.51115542650223,5.11662530899048,0.08282284438610,-0.12822213768959,9.78216361999512,0.25344005227089,-1.05684328079224,-0.74791002273560
618,618401602,-0.92774671316147,-0.51152414083481,5.11683320999146,0.09941736608744,-0.14839288592339,9.77718544006348,0.27298370003700,-1.10871207714081,-0.78602391481400
619,618409935,-0.92689692974091,-0.51179563999176,5.11736249923706,0.08957505226135,-0.15174041688442,9.79574680328369,0.36370933055878,-1.09782612323761,-0.79214584827423
620,618418268,-0.92618006467819,-0.51210379600525,5.11767578125000,0.08497577160597,-0.16719055175781,9.79105472564697,0.35000571608543,-1.10169386863708,-0.77321684360504
621,618426601,-0.92611593008041,-0.51256632804871,5.11807823181152,0.07541250437498,-0.16240561008453,9.78541851043701,0.26962822675705,-1.11980307102203,-0.82636648416519
622,618434934,-0.92651855945587,-0.51274383068085,5.11724328994751,0.09392397850752,-0.14088238775730,9.80134010314941,0.21432712674141,-1.08409690856934,-0.91022753715515
623,618443267,-0.92631345987320,-0.51268082857132,5.11790704727173,0.10158467292786,-0.16282016038895,9.78903770446777,0.28817293047905,-1.05653584003448,-0.80643844604492
624,618451600,-0.92639821767807,-0.51295065879822,5.11834621429443,0.10287933796644,-0.14500243961811,9.77650547027588,0.25259479880333,-1.09749305248260,-0.75823259353638
625,618459933,-0.92651569843292,-0.51259207725525,5.11871290206909,0.10346587002277,-0.15623955428600,9.77083396911621,0.24788175523281,-1.02126514911652,-0.83502405881882
626,618468266,-0.92642414569855,-0.51219063997269,5.11851882934570,0.09291543066502,-0.17581687867641,9.76879501342773,0.27462300658226,-1.01529693603516,-0.83317977190018
627,618476599,-0.92672896385193,-0.51281398534775,5.11985349655151,0.09812270104885,-0.14387227594852,9.76860904693604,0.22649385035038,-1.14039683341980,-0.72926288843155
628,618484932,-0.92635232210159,-0.51298695802689,5.12004613876343,0.10076209902763,-0.17011606693268,9.75122070312500,0.30802401900291,-1.08650469779968,-0.78612649440765
629,618493265,-0.92590922117233,-0.51326644420624,5.12062120437622,0.10525398701429,-0.15834218263626,9.78616237640381,0.31575947999954,-1.09728825092316,-0.81663310527802
630,618501598,-0.92606681585312,-0.51318955421448,5.12128162384033,0.10657027363777,-0.15614682435989,9.78560447692871,0.24578137695789,-1.05658721923828,-0.73005688190460
631,618509931,-0.92608863115311,-0.51284438371658,5.12234067916870,0.11099066585302,-0.14456610381603,9.74544048309326,0.26056081056595,-1.02321171760559,-0.75182896852493
632,618518264,-0.92565202713013,-0.51374852657318,5.12269878387451,0.10533276200294,-0.14625418186188,9.77348041534424,0.31622055172920,-1.17418205738068,-0.76799160242081
633,618526597,-0.92598080635071,-0.51401537656784,5.12292480468750,0.10119120031595,-0.16052380204201,9.77269363403320,0.22293348610401,-1.09559762477875,-0.81968110799789
634,618534930,-0.92544966936111,-0.51446211338043,5.12284755706787,0.10675618052483,-0.16270571947098,9.76883029937744,0.32687604427338,-1.11821484565735,-0.81937366724014
635,618543263,-0.92543250322342,-0.51412063837051,5.12362766265869,0.10199954360723,-0.16859966516495,9.75157070159912,0.26399314403534,-1.02308380603790,-0.78325772285461
636,618551596,-0.92506951093674,-0.51361727714539,5.12374877929688,0.09008281677961,-0.14916512370110,9.77588367462158,0.30820330977440,-1.00451338291168,-0.79355460405350
637,618559929,-0.92518723011017,-0.51369881629944,5.12408876419067,0.08821601420641,-0.15151152014732,9.79347229003906,0.24795863032341,-1.07303154468536,-0.83866137266159
638,618568262,-0.92516559362411,-0.51261925697327,5.12375259399414,0.09928861260414,-0.14993074536324,9.81126117706299,0.26532500982285,-0.93425357341766,-0.84811282157898
639,618576595,-0.92588692903519,-0.51275712251663,5.12425470352173,0.09585519134998,-0.15655398368835,9.77247238159180,0.17682786285877,-1.08004987239838,-0.81589019298553
640,618584928,-0.92616492509842,-0.51322108507156,5.12419795989990,0.11138407140970,-0.15618947148323,9.77815055847168,0.22908091545105,-1.12011063098907,-0.81752961874008
641,618593261,-0.92575019598007,-0.51373594999313,5.12395811080933,0.09199260920286,-0.14523099362850,9.77303028106689,0.31120011210442,-1.12431120872498,-0.90705126523972
642,618601594,-0.92542225122452,-0.51381433010101,5.12351989746094,0.10699937492609,-0.13931591808796,9.75887393951416,0.30264499783516,-1.07379984855652,-0.86132979393005
643,618609927,-0.92567461729050,-0.51450538635254,5.12408638000488,0.09329453110695,-0.15375751256943,9.76241493225098,0.23200090229511,-1.14723587036133,-0.79165911674500
644,618618260,-0.92619425058365,-0.51398777961731,5.12431859970093,0.08548374474049,-0.16145451366901,9.77878189086914,0.20175051689148,-1.00289976596832,-0.78069621324539
645,618626593,-0.92585074901581,-0.51457399129868,5.12517404556274,0.08448231220245,-0.15049611032009,9.78934478759766,0.30333656072617,-1.13447999954224,-0.77073234319687
646,618634926,-0.92649149894714,-0.51426255702972,5.12504434585571,0.10331566631794,-0.16877847909927,9.78270721435547,0.18712480366230,-1.02759194374084,-0.82372820377350
647,618643259,-0.92676520347595,-0.51422601938248,5.12465000152588,0.09351634979248,-0.17513768374920,9.78583335876465,0.22795388102531,-1.05761182308197,-0.91952544450760
648,618651592,-0.92630362510681,-0.51392769813538,5.12436342239380,0.10536843538284,-0.15723350644112,9.81204891204834,0.31870508193970,-1.02754044532776,-0.84427076578140
649,618659925,-0.92689597606659,-0.51374632120132,5.12523603439331,0.11076177656651,-0.16226224601269,9.80485248565674,0.19273430109024,-1.04298603534698,-0.75943642854691
650,618668258,-0.92657226324081,-0.51396095752716,5.12506389617920,0.12066131085157,-0.16071008145809,9.77345848083496,0.30136427283287,-1.09044909477234,-0.83033657073975
651,618676591,-0.92609328031540,-0.51460713148117,5.12563085556030,0.09183544665575,-0.14978085458279,9.76661300659180,0.31942230463028,-1.14090931415558,-0.83563882112503
652,618684924,-0.92546045780182,-0.51372414827347,5.12566566467285,0.10498943179846,-0.13365086913109,9.76743602752686,0.33876106142998,-0.95909935235977,-0.80362093448639
653,618693257,-0.92503315210342,-0.51359230279922,5.12595701217651,0.08153535425663,-0.14641183614731,9.76870918273926,0.31504225730896,-1.04800641536713,-0.81827235221863
654,618701590,-0.92529577016830,-0.51342874765396,5.12668180465698,0.08566244691610,-0.15058879554272,9.75874519348145,0.23294867575169,-1.04664885997772,-0.72175794839859
655,618709923,-0.92510092258453,-0.51370227336884,5.12747573852539,0.08425333350897,-0.14682640135288,9.75874519348145,0.28556030988693,-1.09654545783997,-0.79191529750824
656,618718256,-0.92456090450287,-0.51378804445267,5.12719011306763,0.11349415779114,-0.14450173079967,9.77556896209717,0.32733714580536,-1.07456839084625,-0.84404027462006
657,618726589,-0.92545020580292,-0.51422983407974,5.12766027450562,0.10218551754951,-0.16675423085690,9.79014587402344,0.15600350499153,-1.11624276638031,-0.82383066415787
658,618734922,-0.92513674497604,-0.51404583454132,5.12724637985229,0.10225704312325,-0.15017393231392,9.79358005523682,0.30008357763290,-1.04208946228027,-0.85871720314026
659,618743255,-0.92552882432938,-0.51408505439758,5.12774229049683,0.08016899973154,-0.16889978945255,9.82521724700928,0.21601764857769,-1.06801104545593,-0.81939929723740
660,618751588,-0.92531275749207,-0.51460963487625,5.12839698791504,0.08792266249657,-0.15043832361698,9.78677749633789,0.28914627432823,-1.12889611721039,-0.73246461153030
661,618759921,-0.92497867345810,-0.51556855440140,5.12825393676758,0.10124849528074,-0.14987352490425,9.78742122650146,0.30228635668755,-1.17799842357635,-0.89680558443069
662,618768254,-0.92473602294922,-0.51594454050064,5.12803411483765,0.08692850172520,-0.15915790200233,9.78939533233643,0.29275789856911,-1.10899388790131,-0.83697074651718
663,618776587,-0.92465448379517,-0.51613718271255,5.12886714935303,0.10486774891615,-0.17231170833111,9.78719234466553,0.27188229560852,-1.08811843395233,-0.76591688394547
664,618784920,-0.92431646585464,-0.51557153463364,5.12932443618774,0.08629189431667,-0.15767011046410,9.80592536926270,0.30418187379837,-0.99775135517120,-0.75375014543533
665,618793253,-0.92485821247101,-0.51518726348877,5.12972497940063,0.10810806602240,-0.15161880850792,9.78845119476318,0.19816452264786,-1.01721811294556,-0.83656096458435
666,618801586,-0.92537838220596,-0.51570034027100,5.13013267517090,0.12594009935856,-0.18151769042015,9.76400279998779,0.19998311996460,-1.12702631950378,-0.76212584972382
667,618809919,-0.92525917291641,-0.51542580127716,5.13179063796997,0.10785056650639,-0.14897225797176,9.79670524597168,0.27841389179230,-1.03350865840912,-0.68192774057388
668,618818252,-0.92517656087875,-0.51592546701431,5.13167858123779,0.09255063533783,-0.15013101696968,9.80042457580566,0.27421319484711,-1.12390136718750,-0.82441973686218
669,618826585,-0.92518949508667,-0.51645267009735,5.13219451904297,0.09801532328129,-0.17486524581909,9.76764392852783,0.25951060652733,-1.12723112106323,-0.81965541839600
670,618834918,-0.92490220069885,-0.51700848340988,5.13207149505615,0.09761493653059,-0.15661181509495,9.79482460021973,0.29777827858925,-1.13079166412354,-0.82580292224884
671,618843251,-0.92523139715195,-0.51707071065903,5.13264894485474,0.09615566581488,-0.15382188558578,9.76666355133057,0.22347138822079,-1.07157158851624,-0.79860061407089
672,618851584,-0.92510908842087,-0.51698875427246,5.13275766372681,0.10001820325851,-0.14767044782639,9.79653358459473,0.27751740813255,-1.05553698539734,-0.79573184251785
673,618859917,-0.92460018396378,-0.51688313484192,5.13352870941162,0.10601238161325,-0.14829301834106,9.77224254608154,0.32472446560860,-1.05097770690918,-0.78269416093826
674,618868250,-0.92439079284668,-0.51703894138336,5.13355445861816,0.09333020448685,-0.15401472151279,9.76602077484131,0.28727644681931,-1.08407115936279,-0.80631047487259
675,618876583,-0.92467850446701,-0.51757866144180,5.13368701934814,0.10146307945251,-0.16575282812119,9.78583335876465,0.22823563218117,-1.12779474258423,-0.86427551507950
676,618884916,-0.92418760061264,-0.51771479845047,5.13422203063965,0.08754364401102,-0.15206228196621,9.76209259033203,0.32375109195709,-1.08199656009674,-0.74539989233017
677,618893249,-0.92444318532944,-0.51824468374252,5.13477420806885,0.10406671464443,-0.15645413100719,9.75109863281250,0.23113003373146,-1.12638592720032,-0.82108986377716
678,618901582,-0.92465555667877,-0.51838570833206,5.13457727432251,0.08382416516542,-0.16414344310760,9.79283523559570,0.23791785538197,-1.08156096935272,-0.83274435997009
679,618909915,-0.92433398962021,-0.51865881681442,5.13544702529907,0.10784341394901,-0.15337841212749,9.77704238891602,0.30144110321999,-1.09726262092590,-0.77762258052826
680,618918248,-0.92406100034714,-0.51827907562256,5.13541936874390,0.08742928504944,-0.13441650569439,9.79197025299072,0.29549860954285,-1.01990759372711,-0.81151020526886
681,618926581,-0.92505711317062,-0.51748114824295,5.13620090484619,0.08467535674572,-0.15722663700581,9.77574062347412,0.14301708340645,-0.96773141622543,-0.78394919633865
682,618934914,-0.92568987607956,-0.51732277870178,5.13605070114136,0.10055466741323,-0.16623206436634,9.76965332031250,0.18768829107285,-1.04605972766876,-0.82608467340469
683,618943247,-0.92570346593857,-0.51696819067001,5.13655090332031,0.10128425806761,-0.15488050878048,9.78684902191162,0.26058641076088,-1.02044546604156,-0.82108980417252
684,618951580,-0.92471116781235,-0.51736259460449,5.13591289520264,0.08061254024506,-0.14490944147110,9.78570461273193,0.38099890947342,-1.11037707328796,-0.88766127824783
685,618959913,-0.92429953813553,-0.51701515913010,5.13632917404175,0.09827291220427,-0.14246317744255,9.79573249816895,0.31189170479774,-1.02287876605988,-0.81957864761353
686,618968246,-0.92421072721481,-0.51657652854919,5.13644123077393,0.10643430054188,-0.15399356186390,9.79731369018555,0.27421319484711,-1.01142930984497,-0.79634660482407
687,618976579,-0.92402887344360,-0.51680266857147,5.13747119903564,0.08625613152981,-0.16997300088406,9.75015449523926,0.28461259603500,-1.09178125858307,-0.77900576591492
688,618984912,-0.92299556732178,-0.51670402288437,5.13766956329346,0.08139935135841,-0.14268490672112,9.77738571166992,0.38804283738136,-1.05310368537903,-0.78553742170334
689,618993245,-0.92212176322937,-0.51686877012253,5.13798570632935,0.10090504586697,-0.14442990720272,9.77909564971924,0.36660370230675,-1.08312356472015,-0.84283638000488
690,619001578,-0.92147088050842,-0.51737964153290,5.13786745071411,0.10051880031824,-0.14542414247990,9.75034809112549,0.34178352355957,-1.12566876411438,-0.82441979646683
691,619009911,-0.92135602235794,-0.51732945442200,5.13808870315552,0.09790104627609,-0.16247712075710,9.77722835540771,0.27508407831192,-1.05745816230774,-0.84624302387238
692,619018244,-0.92079597711563,-0.51750409603119,5.13822460174561,0.10099098831415,-0.17562375962734,9.80142593383789,0.33099994063377,-1.08604359626770,-0.79324722290039
693,619026577,-0.92078787088394,-0.51816976070404,5.13841438293457,0.11109787225723,-0.17257630825043,9.76778030395508,0.26248183846474,-1.14272785186768,-0.86529999971390
694,619034910,-0.92043715715408,-0.51819759607315,5.13849306106567,0.08711447566748,-0.16663977503777,9.77435302734375,0.30628222227097,-1.06816470623016,-0.79998379945755
695,619043243,-0.92046320438385,-0.51870381832123,5.13923788070679,0.10018979758024,-0.15021656453609,9.74469089508057,0.25986918807030,-1.12408077716827,-0.79457920789719
