sep=,
DeviceTag:,topfloor
FirmwareVersion:,3.0.0
AppVersion:,2023.6.0
StartTime: ,2025-04-11_11:49:50_000 PDT
© Movella Technologies B. V. 2005-2025

PacketCounter,SampleTimeFine,Euler_X,Euler_Y,Euler_Z,Acc_X,Acc_Y,Acc_Z,Gyr_X,Gyr_Y,Gyr_Z
0,1045181031,-1.16987788677216,-1.85200321674347,11.28087902069092,0.00000000000000,0.00000000000000,0.00000000000000,0.00000000000000,0.00000000000000,0.00000000000000
1,1045189364,-1.15947318077087,-1.85028159618378,11.27899932861328,0.31048345565796,-0.21173845231533,9.83696842193604,1.24089431762695,0.21145831048489,-0.22133259475231
2,1045197697,-1.14825809001923,-1.84806525707245,11.27619552612305,0.31934598088264,-0.20081606507301,9.81687068939209,1.33600008487701,0.27372649312019,-0.33119204640388
3,1045206030,-1.14782512187958,-1.82905554771423,11.30136108398438,0.29881715774536,-0.20622362196445,9.82242012023926,1.33763933181763,0.22949072718620,-0.26889821887016
4,1045214363,-1.13713824748993,-1.82725155353546,11.29856967926025,0.28933250904083,-0.19876320660114,9.85725402832031,1.27206695079803,0.22288225591183,-0.32955271005630
5,1045222696,-1.13453018665314,-1.81537425518036,11.28857421875000,0.30002582073212,-0.22075819969177,9.83352661132812,1.20319020748138,0.20328737795353,-0.20660442113876
6,1045231029,-1.12419307231903,-1.81365990638733,11.28595256805420,0.28325229883194,-0.21716748178005,9.86286830902100,1.22944498062134,0.21140708029270,-0.30985540151596
7,1045239362,-1.12638854980469,-1.79350352287292,11.26714611053467,0.25916180014610,-0.20630230009556,9.82809925079346,1.31307542324066,0.20321053266525,-0.30985540151596
8,1045247695,-1.11602592468262,-1.79183697700500,11.26497268676758,0.28449717164040,-0.20430664718151,9.87576580047607,1.23436284065247,0.20487546920776,-0.25739747285843
9,1045256028,-1.11953210830688,-1.76097214221954,11.26220226287842,0.27874627709389,-0.21540786325932,9.84470844268799,1.30487871170044,0.19337467849255,-0.33114081621170
10,1045264361,-1.10884547233582,-1.75972104072571,11.25951957702637,0.27116441726685,-0.21908444166183,9.82096862792969,1.27209270000458,0.15564490854740,-0.31800076365471
11,1045272694,-1.11099290847778,-1.73578321933746,11.25104713439941,0.27275949716568,-0.21349091827869,9.85945892333984,1.26056611537933,0.15746350586414,-0.16882342100143
12,1045281027,-1.10061132907867,-1.73391234874725,11.24867916107178,0.23591506481171,-0.19346293807030,9.83379268646240,1.23761582374573,0.23107880353928,-0.28039902448654
13,1045289360,-1.10335421562195,-1.71234941482544,11.21544742584229,0.23926974833012,-0.20267580449581,9.82655429840088,1.21630465984344,0.23110441863537,-0.26728451251984
14,1045297693,-1.09267258644104,-1.71079850196838,11.21289062500000,0.24445556104183,-0.22650192677975,9.84681129455566,1.27206707000732,0.19173537194729,-0.30327254533768
15,1045306026,-1.09031832218170,-1.68545234203339,11.19775390625000,0.23868305981159,-0.21916310489178,9.85233879089355,1.32288551330566,0.26704117655754,-0.37061235308647
16,1045314359,-1.07951688766479,-1.68436074256897,11.19594097137451,0.21816171705723,-0.19718241691589,9.83582401275635,1.29009914398193,0.13451313972473,-0.21464727818966
17,1045322692,-1.07960057258606,-1.65983963012695,11.16263294219971,0.25461983680725,-0.21726045012474,9.83963108062744,1.26379358768463,0.30495026707649,-0.23298706114292
18,1045331025,-1.06891167163849,-1.65726244449615,11.16001224517822,0.25785282254219,-0.21541501581669,9.84701156616211,1.27368068695068,0.31629738211632,-0.30842101573944
19,1045339358,-1.06693565845490,-1.63500273227692,11.13746070861816,0.26471242308617,-0.21352666616440,9.85805511474609,1.34417104721069,0.21322572231293,-0.21805398166180
20,1045347691,-1.05620920658112,-1.63356125354767,11.13466548919678,0.24061448872089,-0.19706797599792,9.83238410949707,1.27864980697632,0.17854402959347,-0.33272892236710
21,1045356024,-1.05533325672150,-1.61696934700012,11.11312389373779,0.26235195994377,-0.20986440777779,9.83251953125000,1.19509613513947,0.09473424404860,-0.40306562185287
22,1045364357,-1.04421603679657,-1.61483335494995,11.11084842681885,0.28053438663483,-0.20441395044327,9.84170246124268,1.32613861560822,0.26232817769051,-0.26733577251434
23,1045372690,-1.04200220108032,-1.59999656677246,11.08695697784424,0.27834573388100,-0.19522254168987,9.83438682556152,1.22619175910950,0.19014725089073,-0.25737181305885
24,1045381023,-1.03119385242462,-1.59924638271332,11.08379554748535,0.27808824181557,-0.20628799498081,9.83083152770996,1.28692328929901,0.09645040333271,-0.37847593426704
25,1045389356,-1.02773511409760,-1.58845126628876,11.04787826538086,0.30726468563080,-0.20801182091236,9.84007263183594,1.25080716609955,0.19158168137074,-0.35900911688805
26,1045397689,-1.01687681674957,-1.58618569374084,11.04554557800293,0.29421776533127,-0.22100138664246,9.81638145446777,1.29496598243713,0.27708196640015,-0.27399545907974
27,1045406022,-1.01304352283478,-1.58032381534576,11.01516437530518,0.30112048983574,-0.21894855797291,9.84940147399902,1.28200519084930,0.03115971758962,-0.26674664020538
28,1045414355,-1.00242531299591,-1.57931995391846,11.01235485076904,0.30289414525032,-0.20792597532272,9.85305404663086,1.26558661460876,0.12606045603752,-0.33424016833305
29,1045422688,-0.99897611141205,-1.57384192943573,10.98360061645508,0.31739327311516,-0.21341936290264,9.84949493408203,1.28843450546265,0.31276261806488,-0.39543256163597
30,1045431021,-0.98845535516739,-1.57277882099152,10.98074817657471,0.32431703805923,-0.22082972526550,9.82762718200684,1.25411117076874,0.13259208202362,-0.33915802836418
31,1045439354,-0.98531746864319,-1.57109427452087,10.96536827087402,0.29481181502342,-0.21344798803329,9.84776401519775,1.24261057376862,0.13935425877571,-0.27361124753952
32,1045447687,-0.97489428520203,-1.56978309154510,10.96261596679688,0.32391649484634,-0.20247553288937,9.84593868255615,1.24097120761871,0.16376459598541,-0.32617166638374
33,1045456020,-0.97183698415756,-1.56883037090302,10.94632244110107,0.29808041453362,-0.19726826250553,9.81297779083252,1.25073027610779,0.24580699205399,-0.30836975574493
34,1045464353,-0.96175330877304,-1.56718873977661,10.94404506683350,0.31786519289017,-0.21713885664940,9.85347747802734,1.20321583747864,0.20162242650986,-0.26892381906509
35,1045472686,-0.95841526985168,-1.56789994239807,10.92934989929199,0.29745790362358,-0.22643755376339,9.85174560546875,1.22777998447418,0.18702235817909,-0.23772571980953
36,1045481019,-0.94772213697433,-1.56558144092560,10.92692470550537,0.27699384093285,-0.19528691470623,9.86804103851318,1.27526867389679,0.28194865584373,-0.28557306528091
37,1045489352,-0.94463664293289,-1.56715512275696,10.89651298522949,0.31690672039986,-0.20439249277115,9.86454963684082,1.23108398914337,0.16563443839550,-0.26057362556458
38,1045497685,-0.93442934751511,-1.56584990024567,10.89481925964355,0.30030494928360,-0.24496340751648,9.83742618560791,1.22122263908386,0.15928210318089,-0.19825416803360
39,1045506018,-0.93051379919052,-1.56666290760040,10.87401008605957,0.29451125860214,-0.21018630266190,9.84636878967285,1.28180027008057,0.27723568677902,-0.23472884297371
40,1045514351,-0.91980355978012,-1.56537687778473,10.87069606781006,0.27028447389603,-0.18277660012245,9.84253406524658,1.27544796466827,0.16020421683788,-0.39330655336380
41,1045522684,-0.91709804534912,-1.56723475456238,10.85728836059570,0.26466235518456,-0.22858339548111,9.83929347991943,1.17539858818054,0.16706882417202,-0.30158197879791
42,1045531017,-0.90694868564606,-1.56526708602905,10.85435962677002,0.24979844689369,-0.22698119282722,9.83198928833008,1.20977306365967,0.24229784309864,-0.34615075588226
43,1045539350,-0.90251642465591,-1.56596469879150,10.83308506011963,0.26404705643654,-0.19221834838390,9.83544349670410,1.35567164421082,0.23589429259300,-0.34768760204315
44,1045547683,-0.89151865243912,-1.56371438503265,10.82980823516846,0.23803964257240,-0.19370613992214,9.86661815643311,1.31141030788422,0.27664655447006,-0.38721036911011
45,1045556016,-0.88859236240387,-1.56346940994263,10.81044197082520,0.23772473633289,-0.20488603413105,9.83747673034668,1.16543483734131,0.27039667963982,-0.28562432527542
46,1045564349,-0.87737655639648,-1.56116533279419,10.80772304534912,0.24649411439896,-0.19230417907238,9.82645416259766,1.33758807182312,0.28189745545387,-0.31999862194061
47,1045572682,-0.87323427200317,-1.56042993068695,10.78852844238281,0.23332573473454,-0.21236075460911,9.82851409912109,1.27870106697083,0.23066902160645,-0.39520207047462
48,1045581015,-0.86306953430176,-1.55975210666656,10.78568172454834,0.22932729125023,-0.21223916113377,9.84138965606689,1.21159172058105,0.08661452680826,-0.33723700046539
49,1045589348,-0.85865193605423,-1.55916655063629,10.77076339721680,0.23836849629879,-0.21223916113377,9.84877777099609,1.29345476627350,0.13766370713711,-0.31116166710854
50,1045597681,-0.84820187091827,-1.55749630928040,10.76923274993896,0.25649380683899,-0.20672431588173,9.84332752227783,1.25065350532532,0.20216034352779,-0.17871052026749
51,1045606014,-0.84389257431030,-1.55672824382782,10.74891185760498,0.25442662835121,-0.20342685282230,9.81038856506348,1.28369569778442,0.09178860485554,-0.29620298743248
52,1045614347,-0.83329641819000,-1.55498433113098,10.74678897857666,0.27815976738930,-0.22362647950649,9.79787158966064,1.26548397541046,0.21330252289772,-0.24927775561810
53,1045622680,-0.82892888784409,-1.55321645736694,10.73574733734131,0.26491999626160,-0.18850602209568,9.83418750762939,1.28034031391144,0.19311852753162,-0.35570487380028
54,1045631013,-0.81805825233459,-1.55196774005890,10.73379039764404,0.27562764286995,-0.20281170308590,9.86371326446533,1.29993522167206,0.15280172228813,-0.22927302122116
55,1045639346,-0.81373977661133,-1.55092608928680,10.72302246093750,0.26815989613533,-0.21759662032127,9.84926319122314,1.27050447463989,0.11512317508459,-0.21925786137581
56,1045647679,-0.80242085456848,-1.54907584190369,10.72074794769287,0.27353197336197,-0.22143772244453,9.83107566833496,1.35398113727570,0.22644262015820,-0.26569643616676
57,1045656012,-0.79871886968613,-1.54789435863495,10.70620250701904,0.28227978944778,-0.18462203443050,9.83625316619873,1.19189441204071,0.14204373955727,-0.37519726157188
58,1045664345,-0.78852725028992,-1.54688477516174,10.70382881164551,0.31692102551460,-0.20104496181011,9.84389305114746,1.21809768676758,0.12457481771708,-0.27998921275139
59,1045672678,-0.78423184156418,-1.54531836509705,10.69211864471436,0.30031210184097,-0.22302564978600,9.85332012176514,1.25733864307404,0.20315928757191,-0.30662801861763
60,1045681011,-0.77281236648560,-1.54369759559631,10.68954563140869,0.30914586782455,-0.20653833448887,9.85321998596191,1.36389386653900,0.19839505851269,-0.30160760879517
61,1045689344,-0.76852607727051,-1.54268288612366,10.67957496643066,0.30885246396065,-0.19364175200462,9.84765338897705,1.25900363922119,0.18510127067566,-0.31308281421661
62,1045697677,-0.75861483812332,-1.54135048389435,10.67684650421143,0.32341578602791,-0.24142275750637,9.83181858062744,1.18362092971802,0.16361092031002,-0.32122808694839
63,1045706010,-0.75468909740448,-1.54050016403198,10.66676139831543,0.31948888301849,-0.23409824073315,9.84279155731201,1.20490634441376,0.20782110095024,-0.34282091259956
64,1045714343,-0.74404531717300,-1.53898704051971,10.66396903991699,0.30813732743263,-0.21030072867870,9.85169601440430,1.27214372158051,0.18666373193264,-0.32947590947151
65,1045722676,-0.74041771888733,-1.53835582733154,10.65416240692139,0.31512564420700,-0.17553791403770,9.84769821166992,1.19837486743927,0.22872233390808,-0.40029925107956
66,1045731009,-0.72985905408859,-1.53692114353180,10.65136909484863,0.29298776388168,-0.21979972720146,9.83544635772705,1.26069426536560,0.17680224776268,-0.32939904928207
67,1045739342,-0.72474122047424,-1.53638839721680,10.63426971435547,0.29635658860207,-0.20148843526840,9.83528804779053,1.36220324039459,0.24752314388752,-0.32158669829369
68,1045747675,-0.71478593349457,-1.53463912010193,10.63262748718262,0.29968979954720,-0.19423544406891,9.81879329681396,1.19327759742737,0.21202184259892,-0.19036500155926
69,1045756008,-0.70997548103333,-1.53387904167175,10.61938476562500,0.27548459172249,-0.18476508557796,9.85714721679688,1.32764971256256,0.28392100334167,-0.26446694135666
70,1045764341,-0.69920676946640,-1.53157687187195,10.61604309082031,0.27334606647491,-0.19951422512531,9.84460926055908,1.28518152236938,0.27969464659691,-0.39233320951462
71,1045772674,-0.69488686323166,-1.53168952465057,10.60507297515869,0.27119287848473,-0.21793282032013,9.83576011657715,1.25243353843689,0.18042667210102,-0.27532741427422
72,1045781007,-0.68428403139114,-1.52996134757996,10.60260677337646,0.27454030513763,-0.18342749774456,9.81522274017334,1.26878833770752,0.21153515577316,-0.28698191046715
73,1045789340,-0.67932319641113,-1.53005039691925,10.58957672119141,0.26323893666267,-0.20120947062969,9.85762596130371,1.32954537868500,0.17385661602020,-0.29323175549507
74,1045797673,-0.66873645782471,-1.52894985675812,10.58731746673584,0.24837531149387,-0.19951425492764,9.84482288360596,1.26886510848999,0.13466684520245,-0.26351922750473
75,1045806006,-0.66359049081802,-1.52815759181976,10.58847999572754,0.24464881420135,-0.21815454959869,9.82317256927490,1.34242916107178,0.26747664809227,-0.27422598004341
76,1045814339,-0.65248453617096,-1.52641189098358,10.58533382415771,0.24786031246185,-0.20498616993427,9.83955764770508,1.32790601253510,0.21432708203793,-0.36730810999870
77,1045822672,-0.64814740419388,-1.52617788314819,10.57361793518066,0.24932664632797,-0.19184640049934,9.85592365264893,1.24757981300354,0.17362610995770,-0.30970171093941
78,1045831005,-0.63796681165695,-1.52538847923279,10.57140445709229,0.23082223534584,-0.20480735599995,9.85248279571533,1.22140192985535,0.09852515161037,-0.25834515690804
79,1045839338,-0.63328248262405,-1.52482545375824,10.56962013244629,0.23997072875500,-0.22528594732285,9.83271980285645,1.28684639930725,0.19055712223053,-0.24423174560070
80,1045847671,-0.62252867221832,-1.52358937263489,10.56649780273438,0.24879734218121,-0.21040087938309,9.84541606903076,1.28702569007874,0.15359576046467,-0.36523339152336
81,1045856004,-0.61772429943085,-1.52295231819153,10.55939674377441,0.25024935603142,-0.17171114683151,9.85772609710693,1.30815732479095,0.17237098515034,-0.27028140425682
82,1045864337,-0.60682749748230,-1.52081465721130,10.55732059478760,0.25195878744125,-0.21347658336163,9.87675857543945,1.30800366401672,0.25951060652733,-0.23980045318604
83,1045872670,-0.60216253995895,-1.51842284202576,10.54798126220703,0.26272407174110,-0.22320444881916,9.83490276336670,1.28164660930634,0.36855041980743,-0.33416333794594
84,1045881003,-0.59114152193069,-1.51716363430023,10.54502105712891,0.26582124829292,-0.22459213435650,9.86066055297852,1.31981182098389,0.15538875758648,-0.34720093011856
85,1045889336,-0.58644139766693,-1.51663076877594,10.53813552856445,0.27656480669975,-0.19385635852814,9.82913017272949,1.30003762245178,0.13658790290356,-0.23885273933411
86,1045897669,-0.57566475868225,-1.51456308364868,10.53580951690674,0.29288733005524,-0.20464999973774,9.83492183685303,1.29327547550201,0.25108352303505,-0.26928249001503
87,1045906002,-0.57172185182571,-1.51330745220184,10.52799320220947,0.28712943196297,-0.21056538820267,9.80943775177002,1.20984995365143,0.22554613649845,-0.36098143458366
88,1045914335,-0.56221216917038,-1.51065313816071,10.52558994293213,0.29599159955978,-0.22311864793301,9.82806205749512,1.14233076572418,0.32118967175484,-0.27993798255920
89,1045922668,-0.55766141414642,-1.50946843624115,10.52501010894775,0.28443267941475,-0.19933541119099,9.84052276611328,1.28840875625610,0.22662194073200,-0.25101947784424
90,1045931001,-0.54740977287292,-1.50749516487122,10.52223777770996,0.28584191203117,-0.18791949748993,9.86423492431641,1.23110973834991,0.24063295125961,-0.32335409522057
91,1045939334,-0.54244560003281,-1.50703680515289,10.51534652709961,0.29477599263191,-0.19216114282608,9.83143329620361,1.33961164951324,0.14995853602886,-0.40770179033279
92,1045947667,-0.53271722793579,-1.50482559204102,10.51255416870117,0.32397371530533,-0.21929901838303,9.83756256103516,1.16871356964111,0.26998686790466,-0.32699131965637
93,1045956000,-0.52767443656921,-1.50473999977112,10.50467872619629,0.29425352811813,-0.21211040019989,9.84475708007812,1.34762883186340,0.11204945296049,-0.24669069051743
94,1045964333,-0.51732933521271,-1.50233030319214,10.50295162200928,0.30874532461166,-0.19934973120689,9.83183288574219,1.24720823764801,0.29264262318611,-0.19594888389111
95,1045972666,-0.51315122842789,-1.50118041038513,10.49388122558594,0.29564130306244,-0.22155931591988,9.82495212554932,1.25231826305389,0.25753834843636,-0.27104982733727
96,1045980999,-0.50251954793930,-1.49850690364838,10.49138545989990,0.30997571349144,-0.23248885571957,9.82528209686279,1.28003299236298,0.32467323541641,-0.28964573144913
97,1045989332,-0.49869117140770,-1.49744594097137,10.48456382751465,0.31664919853210,-0.20445686578751,9.85417842864990,1.21617662906647,0.25935694575310,-0.24328400194645
98,1045997665,-0.48802816867828,-1.49505329132080,10.48264884948730,0.28705790638924,-0.20323373377323,9.83216953277588,1.28495085239410,0.29086244106293,-0.22048732638359
99,1046005998,-0.48442080616951,-1.49568092823029,10.47332668304443,0.31035470962524,-0.19894202053547,9.85972213745117,1.20019340515137,0.07239863276482,-0.24482084810734
100,1046014331,-0.47363567352295,-1.49426019191742,10.47126483917236,0.29199323058128,-0.20644533634186,9.85987091064453,1.29996085166931,0.17434330284595,-0.23739272356033
101,1046022664,-0.46936896443367,-1.49319815635681,10.46569728851318,0.27150762081146,-0.17375686764717,9.84828472137451,1.28162097930908,0.28307569026947,-0.17781400680542
102,1046030997,-0.45823669433594,-1.49208569526672,10.46296405792236,0.27856031060219,-0.19764021039009,9.84151840209961,1.34117412567139,0.13758684694767,-0.31894844770432
103,1046039330,-0.45392486453056,-1.49076473712921,10.45678901672363,0.26555645465851,-0.18862046301365,9.83222675323486,1.28005850315094,0.31634858250618,-0.29784229397774
104,1046047663,-0.44379898905754,-1.48844397068024,10.45364856719971,0.25772407650948,-0.18466494977474,9.84869956970215,1.21962189674377,0.28278118371964,-0.36482357978821
105,1046055996,-0.44011217355728,-1.48810672760010,10.44660758972168,0.25930458307266,-0.19452874362469,9.81600284576416,1.20500886440277,0.19621784985065,-0.32793906331062
106,1046064329,-0.42982584238052,-1.48642611503601,10.44431591033936,0.26630774140358,-0.20842666924000,9.85667610168457,1.24258494377136,0.20513160526752,-0.26567083597183
107,1046072662,-0.42569136619568,-1.48573064804077,10.43485355377197,0.23307538032532,-0.20148843526840,9.84734725952148,1.25578904151917,0.23050247132778,-0.35278481245041
108,1046080995,-0.41529169678688,-1.48320376873016,10.43222141265869,0.24738094210625,-0.19774034619331,9.84923458099365,1.25715935230255,0.30807521939278,-0.30437394976616
109,1046089328,-0.41128709912300,-1.48270165920258,10.42169952392578,0.25074270367622,-0.22866924107075,9.85912704467773,1.24909102916718,0.19726803898811,-0.23278218507767
110,1046097661,-0.40043595433235,-1.48104071617126,10.41855335235596,0.25227361917496,-0.21066552400589,9.84602451324463,1.30997586250305,0.20426070690155,-0.36554074287415
111,1046105994,-0.39619264006615,-1.48015427589417,10.40929889678955,0.24633665382862,-0.19899207353592,9.87698745727539,1.28510463237762,0.23330725729465,-0.24620401859283
112,1046114327,-0.38618493080139,-1.47831773757935,10.40692901611328,0.25517767667770,-0.17043794691563,9.83803462982178,1.21305179595947,0.22467525303364,-0.27245858311653
113,1046122660,-0.38281723856926,-1.47792994976044,10.40266704559326,0.25502032041550,-0.20878432691097,9.84808444976807,1.18367218971252,0.16402074694633,-0.26531225442886
114,1046130993,-0.37226152420044,-1.47614765167236,10.39970493316650,0.25108608603477,-0.20330525934696,9.85352611541748,1.27875232696533,0.21914258599281,-0.34279531240463
115,1046139326,-0.36810258030891,-1.47519254684448,10.39414691925049,0.22864778339863,-0.17570959031582,9.86392784118652,1.28023791313171,0.22815878689289,-0.26746383309364
116,1046147659,-0.35769078135490,-1.47433912754059,10.39110851287842,0.25594288110733,-0.19239002466202,9.84798431396484,1.26102721691132,0.10749012976885,-0.35470592975616
117,1046155992,-0.35378971695900,-1.47391498088837,10.38046169281006,0.27975484728813,-0.20557270944118,9.82645416259766,1.25088405609131,0.15285296738148,-0.25524589419365
118,1046164325,-0.34348171949387,-1.47197806835175,10.37810611724854,0.28504103422165,-0.20374871790409,9.82652664184570,1.25236964225769,0.23789221048355,-0.27092173695564
119,1046172658,-0.33989629149437,-1.47061312198639,10.37317180633545,0.27175796031952,-0.21010760962963,9.87432765960693,1.21773910522461,0.26627278327942,-0.21884801983833
120,1046180991,-0.32944104075432,-1.46873605251312,10.37035560607910,0.28982603549957,-0.20898461341858,9.84148979187012,1.27047884464264,0.22915773093700,-0.32489097118378
121,1046189324,-0.32581466436386,-1.46806776523590,10.36741065979004,0.29306629300117,-0.19773319363594,9.85233306884766,1.23105847835541,0.18612584471703,-0.20809005200863
122,1046197657,-0.31424012780190,-1.46642875671387,10.36509704589844,0.30571240186691,-0.19640275835991,9.83044433593750,1.40654158592224,0.20064909756184,-0.26528662443161
123,1046205990,-0.31181800365448,-1.46533405780792,10.35919761657715,0.30372428894043,-0.20753970742226,9.81614780426025,1.08854091167450,0.24475681781769,-0.34835356473923
124,1046214323,-0.30204442143440,-1.46421587467194,10.35692977905273,0.31247195601463,-0.21967096626759,9.85500144958496,1.19361042976379,0.13786861300468,-0.26006132364273
125,1046222656,-0.29848656058311,-1.46362650394440,10.35028648376465,0.32322266697884,-0.20167440176010,9.84371376037598,1.23282587528229,0.19334904849529,-0.29013243317604
126,1046230989,-0.28807383775711,-1.46078729629517,10.34783840179443,0.31384527683258,-0.21615891158581,9.85510158538818,1.27010738849640,0.34604829549789,-0.28037339448929
127,1046239322,-0.28356945514679,-1.45915484428406,10.34106063842773,0.31905242800713,-0.23321129381657,9.82998657226562,1.35538995265961,0.33156344294548,-0.27512246370316
128,1046247655,-0.27307510375977,-1.45641636848450,10.33754920959473,0.30190718173981,-0.20005786418915,9.83656120300293,1.27859866619110,0.33471402525902,-0.40808600187302
129,1046255988,-0.26948189735413,-1.45569491386414,10.32975482940674,0.29957547783852,-0.19452157616615,9.83834362030029,1.25895237922668,0.23461358249187,-0.27578845620155
130,1046264321,-0.25950390100479,-1.45361912250519,10.32700347900391,0.30137073993683,-0.23506388068199,9.82843494415283,1.21964752674103,0.25365775823593,-0.31709140539169
131,1046272654,-0.25526794791222,-1.45356023311615,10.32031822204590,0.27875357866287,-0.22288975119591,9.88493728637695,1.34281349182129,0.16240707039833,-0.30096727609634
132,1046280987,-0.24539691209793,-1.45158708095551,10.31815528869629,0.29672139883041,-0.17236921191216,9.84538745880127,1.20967066287994,0.24301506578922,-0.24484646320343
133,1046289320,-0.24238124489784,-1.45133149623871,10.31005191802979,0.28733661770821,-0.19612382352352,9.85336208343506,1.20992684364319,0.18989112973213,-0.30158200860023
134,1046297653,-0.23207075893879,-1.44878756999969,10.30732345581055,0.28008401393890,-0.23523554205894,9.83240604400635,1.26207721233368,0.31120011210442,-0.31282660365105
135,1046305986,-0.22863626480103,-1.44846761226654,10.29838752746582,0.27028447389603,-0.20043696463108,9.83525180816650,1.26233351230621,0.20172490179539,-0.28518888354301
136,1046314319,-0.21839010715485,-1.44712889194489,10.29544162750244,0.25524905323982,-0.18922844529152,9.84781837463379,1.25600683689117,0.16658218204975,-0.33887633681297
137,1046322652,-0.21502505242825,-1.44687426090240,10.29179859161377,0.25703728199005,-0.22034330666065,9.84871959686279,1.26566326618195,0.19519326090813,-0.28347271680832
138,1046330985,-0.20477533340454,-1.44488656520844,10.28995323181152,0.26229473948479,-0.22932729125023,9.85456466674805,1.26206457614899,0.24377065896988,-0.20545178651810
139,1046339318,-0.20143574476242,-1.44489681720734,10.28074455261230,0.24185907840729,-0.20667424798012,9.81550979614258,1.27073490619659,0.15884667634964,-0.30429708957672
140,1046347651,-0.19124622642994,-1.44316446781158,10.27810096740723,0.24326117336750,-0.18769060075283,9.84076118469238,1.25413691997528,0.21458326280117,-0.30178692936897
141,1046355984,-0.18900109827518,-1.44198155403137,10.26850795745850,0.25951945781708,-0.22336181998253,9.87482833862305,1.15060412883759,0.29790636897087,-0.29984021186829
142,1046364317,-0.17940802872181,-1.44068813323975,10.26554298400879,0.22997820377350,-0.20872710645199,9.81762027740479,1.18226337432861,0.16138248145580,-0.34059244394302
143,1046372650,-0.17664708197117,-1.44034230709076,10.25744342803955,0.23707382380962,-0.21580126881599,9.83076000213623,1.22293877601624,0.19232448935509,-0.24418048560619
144,1046380983,-0.16659539937973,-1.43955183029175,10.25469684600830,0.23481352627277,-0.21128782629967,9.86551570892334,1.24140679836273,0.10131710767746,-0.31341579556465
145,1046389316,-0.16332603991032,-1.43885922431946,10.24689483642578,0.26401859521866,-0.20253275334835,9.84535217285156,1.29491484165192,0.22413735091686,-0.21331536769867
146,1046397649,-0.15330445766449,-1.43722617626190,10.24494075775146,0.25820332765579,-0.20243260264397,9.84908580780029,1.24093282222748,0.20422229170799,-0.21807959675789
147,1046405982,-0.15082447230816,-1.43584525585175,10.23641014099121,0.27072104811668,-0.20397758483887,9.85844326019287,1.20956814289093,0.30331093072891,-0.27522492408752
148,1046414315,-0.14068745076656,-1.43277668952942,10.23367595672607,0.26483401656151,-0.20954252779484,9.86050128936768,1.25531530380249,0.37510767579079,-0.31059822440147
149,1046422648,-0.13725975155830,-1.43194675445557,10.22654438018799,0.25685873627663,-0.18942873179913,9.86184024810791,1.32962214946747,0.23732869327068,-0.33470124006271
150,1046430981,-0.12758935987949,-1.43028092384338,10.22397899627686,0.28600642085075,-0.20424942672253,9.84600257873535,1.20006537437439,0.20633547008038,-0.29028612375259
151,1046439314,-0.12438628077507,-1.43053388595581,10.21275520324707,0.29698619246483,-0.23580779135227,9.83238506317139,1.31196105480194,0.10632468014956,-0.31980651617050
152,1046447647,-0.11418852955103,-1.42886364459991,10.20988845825195,0.30012628436089,-0.18059496581554,9.83827209472656,1.26575279235840,0.20775705575943,-0.32460919022560
153,1046455980,-0.11233265697956,-1.42737853527069,10.20193576812744,0.29592025279999,-0.17901420593262,9.89508533477783,1.16517877578735,0.31993460655212,-0.25101947784424
154,1046464313,-0.10181132704020,-1.42528676986694,10.19955635070801,0.30888837575912,-0.23005688190460,9.84174728393555,1.30805504322052,0.25789692997932,-0.26618313789368
155,1046472646,-0.09967443346977,-1.42438292503357,10.19121551513672,0.31588384509087,-0.22656629979610,9.83264160156250,1.20306217670441,0.25623196363449,-0.24348890781403
156,1046480979,-0.08959391713142,-1.42243695259094,10.18773841857910,0.30785101652145,-0.18063074350357,9.84235382080078,1.25431621074677,0.24270768463612,-0.39727675914764
157,1046489312,-0.08793475478888,-1.42236411571503,10.17772388458252,0.28202977776527,-0.20095910131931,9.84292125701904,1.15623939037323,0.16673587262630,-0.41115969419479
158,1046497645,-0.07770130038261,-1.42058122158051,10.17552185058594,0.31868073344231,-0.23569335043430,9.84239196777344,1.27863693237305,0.22210103273392,-0.24443662166595
159,1046505978,-0.07464545220137,-1.41990530490875,10.16700649261475,0.33460268378258,-0.21473550796509,9.86577224731445,1.33605134487152,0.24442385137081,-0.29871323704720
160,1046514311,-0.06456018239260,-1.41810178756714,10.16433238983154,0.32158467173576,-0.19789054989815,9.81585311889648,1.26069426536560,0.22447034716606,-0.30027568340302
161,1046522644,-0.06297931075096,-1.41767013072968,10.15613365173340,0.30490443110466,-0.21964947879314,9.82752132415771,1.17368268966675,0.22659632563591,-0.24804827570915
162,1046530977,-0.05230654403567,-1.41635823249817,10.15337848663330,0.29711478948593,-0.20314788818359,9.83440113067627,1.33471918106079,0.16719691455364,-0.30906134843826
163,1046539310,-0.05055987089872,-1.41575312614441,10.14605617523193,0.26768800616264,-0.21431347727776,9.83286285400391,1.20488071441650,0.25694918632507,-0.30744764208794
164,1046547643,-0.04010721668601,-1.41373860836029,10.14387226104736,0.28203660249710,-0.22505705058575,9.84069538116455,1.31128227710724,0.25180074572563,-0.23987731337547
165,1046555976,-0.03766163438559,-1.41311454772949,10.13569736480713,0.27599257230759,-0.20801183581352,9.85857868194580,1.30142080783844,0.26004850864410,-0.23347374796867
166,1046564309,-0.02709400840104,-1.41085886955261,10.13305282592773,0.26096433401108,-0.18860615789890,9.83602428436279,1.32775223255157,0.28053987026215,-0.29440999031067
167,1046572642,-0.02515813708305,-1.41149210929871,10.12423992156982,0.27712973952293,-0.20986440777779,9.85337066650391,1.25134491920471,0.11266420036554,-0.31823125481606
168,1046580975,-0.01484960317612,-1.40972030162811,10.12154197692871,0.25527077913284,-0.22731019556522,9.82824325561523,1.29848802089691,0.22297193109989,-0.30012202262878
169,1046589308,-0.01239643152803,-1.41033124923706,10.11405944824219,0.23270343244076,-0.19764736294746,9.84378528594971,1.32656121253967,0.11575072258711,-0.24264362454414
170,1046597641,-0.00301841367036,-1.40799927711487,10.11187362670898,0.25266700983047,-0.17793412506580,9.82322120666504,1.18981957435608,0.29073441028595,-0.23918573558331
171,1046605974,-0.00171189242974,-1.40798223018646,10.10535717010498,0.22693109512329,-0.23079362511635,9.84135341644287,1.20021891593933,0.18656127154827,-0.29981461167336
172,1046614307,0.00881007499993,-1.40607416629791,10.10269927978516,0.25054264068604,-0.23625840246677,9.83992958068848,1.32951974868774,0.23958276212215,-0.29374405741692
173,1046622640,0.01105160918087,-1.40579497814178,10.09494304656982,0.24798190593719,-0.20578728616238,9.87386322021484,1.32173287868500,0.21309761703014,-0.40813720226288
174,1046630973,0.02078325487673,-1.40358662605286,10.09199523925781,0.24610070884228,-0.21410605311394,9.84125328063965,1.23604047298431,0.27637755870819,-0.32740116119385
175,1046639306,0.02192866802216,-1.40267002582550,10.08549594879150,0.24954152107239,-0.23950576782227,9.84953784942627,1.20655846595764,0.28593170642853,-0.33748033642769
176,1046647639,0.03295814245939,-1.40110123157501,10.08326339721680,0.23983494937420,-0.21063692867756,9.84132575988770,1.39840936660767,0.19971421360970,-0.24214418232441
177,1046655972,0.03445939347148,-1.40071642398834,10.07531166076660,0.23553584516048,-0.18730433285236,9.87728786468506,1.26720023155212,0.22019276022911,-0.26246905326843
178,1046664305,0.04355502128601,-1.39982092380524,10.07269191741943,0.25566408038139,-0.21161685883999,9.85815525054932,1.16603672504425,0.11938794702291,-0.28735330700874
179,1046672638,0.04529546573758,-1.39923202991486,10.06482219696045,0.25768831372261,-0.25738075375557,9.86344814300537,1.30811893939972,0.24005660414696,-0.26106026768684
180,1046680971,0.05546441674232,-1.39807546138763,10.06178951263428,0.28813797235489,-0.19907076656818,9.84530925750732,1.29723286628723,0.15020187199116,-0.33666068315506
181,1046689304,0.05660898983479,-1.39856529235840,10.05360317230225,0.27527740597725,-0.21924895048141,9.84601879119873,1.25293314456940,0.11002594232559,-0.27709478139877
182,1046697637,0.06638598442078,-1.39722633361816,10.05189037322998,0.28982603549957,-0.22105860710144,9.84444332122803,1.25736439228058,0.17237098515034,-0.17809577286243
183,1046705970,0.06869275867939,-1.39692056179047,10.04421424865723,0.28222972154617,-0.19998633861542,9.81997394561768,1.40809142589569,0.20878162980080,-0.19470661878586
184,1046714303,0.07918819040060,-1.39570832252502,10.04100704193115,0.30004030466080,-0.19479337334633,9.85483646392822,1.34318482875824,0.15821911394596,-0.35635802149773
185,1046722636,0.08032707124949,-1.39550685882568,10.02900791168213,0.29815194010735,-0.19558018445969,9.82930850982666,1.27744591236115,0.20039296150208,-0.36546391248703
186,1046730969,0.08994846791029,-1.39336168766022,10.02664756774902,0.28346022963524,-0.21790419518948,9.82277870178223,1.24404489994049,0.27108824253082,-0.25363215804100
187,1046739302,0.09104625880718,-1.39397609233856,10.01884555816650,0.31397417187691,-0.18834866583347,9.82388019561768,1.28582179546356,0.10818172246218,-0.29820087552071
188,1046747635,0.10061697661877,-1.39201533794403,10.01574897766113,0.33251419663429,-0.23557172715664,9.83124637603760,1.23782062530518,0.24824032187462,-0.34018263220787
189,1046755968,0.10211698710918,-1.39215159416199,10.00971508026123,0.31005427241325,-0.22442759573460,9.84183311462402,1.34775722026825,0.17293450236320,-0.26472315192223
190,1046764301,0.11143684387207,-1.38987565040588,10.00677013397217,0.30042654275894,-0.17589555680752,9.81453037261963,1.21138691902161,0.28776311874390,-0.32291868329048
191,1046772634,0.11147261410952,-1.39046955108643,9.99578952789307,0.29472553730011,-0.22236043214798,9.85105895996094,1.19053685665131,0.12647029757500,-0.26108589768410
192,1046780967,0.12134682387114,-1.38862252235413,9.99318313598633,0.31124165654182,-0.23743146657944,9.83897113800049,1.28197968006134,0.23632971942425,-0.28080886602402
193,1046789300,0.12269878387451,-1.38826739788055,9.98730278015137,0.30735051631927,-0.23967030644417,9.82816314697266,1.36071801185608,0.24762563407421,-0.30865156650543
194,1046797633,0.13244330883026,-1.38615751266479,9.98481559753418,0.28996193408966,-0.17883537709713,9.83881378173828,1.27033805847168,0.26774561405182,-0.26503050327301
195,1046805966,0.13270297646523,-1.38616800308228,9.97741508483887,0.26932615041733,-0.18519423902035,9.87017917633057,1.24627351760864,0.21179132163525,-0.36244139075279
196,1046814299,0.14237119257450,-1.38434779644012,9.97447681427002,0.29364565014839,-0.25758102536201,9.84010887145996,1.26407539844513,0.23394761979580,-0.31853860616684
197,1046822632,0.14339178800583,-1.38400375843048,9.96997356414795,0.25942647457123,-0.17914295196533,9.88845443725586,1.34926807880402,0.25551480054855,-0.32522392272949
198,1046830965,0.15238228440285,-1.38251340389252,9.96747779846191,0.26532775163651,-0.22518579661846,9.82800006866455,1.18702769279480,0.19527009129524,-0.26556837558746
199,1046839298,0.15262803435326,-1.38117206096649,9.96302032470703,0.25719478726387,-0.21168123185635,9.90084362030029,1.27324497699738,0.37687504291534,-0.30478376150131
200,1046847631,0.16199700534344,-1.37925744056702,9.96027851104736,0.24968403577805,-0.20841240882874,9.84217453002930,1.23443961143494,0.24739508330822,-0.29428192973137
201,1046855964,0.16257788240910,-1.37802147865295,9.95403861999512,0.24358291924000,-0.23472054302692,9.92568588256836,1.33062100410461,0.36450335383415,-0.27978423237801
202,1046864297,0.17227916419506,-1.37563347816467,9.95125389099121,0.25595018267632,-0.16000910103321,9.81131839752197,1.27853453159332,0.30324691534042,-0.30007076263428
203,1046872630,0.17274539172649,-1.37582600116730,9.94235515594482,0.25026354193687,-0.23611533641815,9.88389015197754,1.33466804027557,0.19076202809811,-0.27645441889763
204,1046880963,0.18427790701389,-1.37249958515167,9.93925476074219,0.25381147861481,-0.21069414913654,9.82627487182617,1.50110948085785,0.41829323768616,-0.33600756525993
205,1046889296,0.18477359414101,-1.37134683132172,9.93556785583496,0.24361868202686,-0.17300581932068,9.84691143035889,1.35331523418427,0.35031306743622,-0.16956622898579
206,1046897629,0.19479757547379,-1.37004923820496,9.93248462677002,0.24389033019543,-0.26233765482903,9.85595130920410,1.32347476482391,0.17485557496548,-0.33357417583466
207,1046905962,0.19468778371811,-1.37011623382568,9.92503738403320,0.23752444982529,-0.19777610898018,9.86638832092285,1.29038107395172,0.20205791294575,-0.27678743004799
208,1046914295,0.20391064882278,-1.36851835250854,9.92166423797607,0.25381863117218,-0.16509476304054,9.80670547485352,1.22996997833252,0.21152237057686,-0.36734658479691
209,1046922628,0.20356665551662,-1.36797678470612,9.91381549835205,0.24846816062927,-0.28563445806503,9.91408920288086,1.28201806545258,0.27327829599380,-0.32248321175575
210,1046930961,0.21314553916454,-1.36579775810242,9.91089248657227,0.26788827776909,-0.16362127661705,9.79597568511963,1.27701044082642,0.28000199794769,-0.31444031000137
211,1046939294,0.21258382499218,-1.36549401283264,9.90655040740967,0.26574242115021,-0.22992098331451,9.88114452362061,1.27393674850464,0.24378345906734,-0.32030600309372
212,1046947627,0.22285614907742,-1.36385941505432,9.90344715118408,0.26145055890083,-0.18829859793186,9.86860466003418,1.36427807807922,0.21604326367378,-0.33421453833580
213,1046955960,0.22192643582821,-1.36461985111237,9.89582443237305,0.28720811009407,-0.20583020150661,9.83295631408691,1.24332773685455,0.11768460273743,-0.30478376150131
214,1046964293,0.23199701309204,-1.36317694187164,9.89333152770996,0.28387486934662,-0.26929023861885,9.85206794738770,1.34611761569977,0.19281116127968,-0.26164939999580
215,1046972626,0.23180413246155,-1.36312568187714,9.88784980773926,0.26970508694649,-0.14862176775932,9.84544467926025,1.34598958492279,0.21768257021904,-0.24740791320801
216,1046980959,0.24114052951336,-1.36098837852478,9.88530540466309,0.29582726955414,-0.19256168603897,9.79253482818604,1.26211571693420,0.27763268351555,-0.26531225442886
217,1046989292,0.23960837721825,-1.36104762554169,9.87795639038086,0.30280107259750,-0.27237311005592,9.90222263336182,1.20190930366516,0.20776984095573,-0.29855948686600
218,1046997625,0.24949412047863,-1.35894477367401,9.87450599670410,0.30447506904602,-0.21585848927498,9.80661201477051,1.32811093330383,0.27244579792023,-0.37319940328598
219,1047005958,0.24875716865063,-1.35875678062439,9.86931896209717,0.30503299832344,-0.16893585026264,9.87630939483643,1.31641793251038,0.24351452291012,-0.26281484961510
220,1047014291,0.25819557905197,-1.35657989978790,9.86670017242432,0.31079828739166,-0.20346976816654,9.83574008941650,1.28345239162445,0.28411307930946,-0.27357283234596
221,1047022624,0.25595420598984,-1.35683631896973,9.86050891876221,0.31081262230873,-0.24378319084644,9.83569717407227,1.15068101882935,0.19870243966579,-0.17061640322208
222,1047030957,0.26563537120819,-1.35549306869507,9.85650539398193,0.31579086184502,-0.21301881968975,9.82907867431641,1.31240928173065,0.18241177499294,-0.44025745987892
223,1047039290,0.26483693718910,-1.35505020618439,9.85198879241943,0.27107140421867,-0.16010206937790,9.83218479156494,1.34081554412842,0.28912064433098,-0.28167974948883
224,1047047623,0.27371755242348,-1.35202538967133,9.84888076782227,0.29830217361450,-0.21773968636990,9.89173126220703,1.22247767448425,0.38589125871658,-0.33167871832848
225,1047055956,0.27234327793121,-1.35352611541748,9.84488391876221,0.28892478346825,-0.21438500285149,9.84399986267090,1.28743553161621,0.06322873383760,-0.17381820082664
226,1047064289,0.28212282061577,-1.35206663608551,9.84117221832275,0.33636245131493,-0.17702570557594,9.80624771118164,1.33187615871429,0.19795960187912,-0.40442317724228
227,1047072622,0.28089722990990,-1.35091173648834,9.83716011047363,0.29015508294106,-0.18331305682659,9.83928585052490,1.32350039482117,0.38683903217316,-0.15593945980072
228,1047080955,0.29009336233139,-1.35022377967834,9.83361148834229,0.30310887098312,-0.22666643559933,9.80654048919678,1.26668798923492,0.10628626495600,-0.38134476542473
229,1047089288,0.28870955109596,-1.35082888603210,9.82817745208740,0.26080694794655,-0.26126474142075,9.86464309692383,1.31499648094177,0.18161772191525,-0.24341209232807
230,1047097621,0.29733493924141,-1.34836041927338,9.82517623901367,0.25322520732880,-0.21103742718697,9.79658508300781,1.20472705364227,0.32213738560677,-0.31738597154617
231,1047105954,0.29506528377533,-1.34869432449341,9.81811428070068,0.25118619203568,-0.27982637286186,9.86198139190674,1.22798478603363,0.21845099329948,-0.26421082019806
232,1047114287,0.30495625734329,-1.34684526920319,9.81563282012939,0.26816734671593,-0.16492310166359,9.84628295898438,1.36228013038635,0.24885506927967,-0.25452864170074
233,1047122620,0.30304789543152,-1.34701669216156,9.80931854248047,0.24261727929115,-0.20888447761536,9.84994411468506,1.29216134548187,0.23688046634197,-0.33819758892059
234,1047130953,0.31209886074066,-1.34535884857178,9.80735301971436,0.26852488517761,-0.23085801303387,9.80176258087158,1.26869869232178,0.22520035505295,-0.19205553829670
235,1047139286,0.31034740805626,-1.34599363803864,9.80205249786377,0.23268891870975,-0.19939981400967,9.85888385772705,1.32070839405060,0.18192508816719,-0.45654809474945
236,1047147619,0.31974604725838,-1.34421253204346,9.80014133453369,0.23961308598518,-0.20344831049442,9.88857650756836,1.31450974941254,0.24035115540028,-0.18403828144073
237,1047155952,0.31790858507156,-1.34538412094116,9.79200553894043,0.24865405261517,-0.18716843426228,9.83856296539307,1.32773947715759,0.11580195277929,-0.48132988810539
238,1047164285,0.32703119516373,-1.34287929534912,9.79132175445557,0.23909808695316,-0.18222582340240,9.86773300170898,1.28890824317932,0.33044922351837,-0.03691011294723
239,1047172618,-1.22272026538849,-1.61629211902618,10.14366626739502,0.23753875494003,-0.24323242902756,9.85590934753418,1.22114586830139,0.17582890391350,-0.55680221319199
240,1047180951,-1.21430802345276,-1.61486232280731,10.14277648925781,0.27357479929924,-0.18394251167774,9.82250595092773,1.20763432979584,0.20504194498062,-0.05578780174255
241,1047189284,-1.21436882019043,-1.61504125595093,10.14252090454102,0.25504916906357,-0.22590823471546,9.87385749816895,1.25717234611511,0.18900744616985,-0.56028580665588
242,1047197617,-1.21370601654053,-1.61547470092773,10.14436912536621,0.26763078570366,-0.22752478718758,9.87598705291748,1.35551822185516,0.15951265394688,-0.07384584099054
243,1047205950,-1.21347415447235,-1.61513686180115,10.14542675018311,0.27642899751663,-0.18855607509613,9.84144020080566,1.29135441780090,0.25285094976425,-0.57142800092697
244,1047214283,-1.21333432197571,-1.61557245254517,10.14744472503662,0.25260263681412,-0.24214519560337,9.87681674957275,1.29312181472778,0.15807825326920,-0.05273971334100
245,1047222616,-1.21229100227356,-1.61559522151947,10.14807415008545,0.28840261697769,-0.17970803380013,9.87071609497070,1.38829171657562,0.20783390104771,-0.55361330509186
246,1047230949,-1.21274518966675,-1.61541318893433,10.14941406250000,0.26898980140686,-0.22839027643204,9.80877971649170,1.22087681293488,0.23460078239441,-0.13345016539097
247,1047239282,-1.21283435821533,-1.61475658416748,10.15195655822754,0.31759336590767,-0.22499983012676,9.87331962585449,1.25482845306396,0.28865963220596,-0.50027161836624
248,1047247615,-1.21309828758240,-1.61489486694336,10.15242958068848,0.29379588365555,-0.21192443370819,9.80483055114746,1.23953676223755,0.19790838658810,-0.23749518394470
249,1047255948,-1.21364486217499,-1.61457991600037,10.15445995330811,0.31462529301643,-0.17061671614647,9.86186885833740,1.20224249362946,0.24765121936798,-0.41589829325676
250,1047264281,-1.21350789070129,-1.61497092247009,10.15447998046875,0.27672204375267,-0.24479174613953,9.85414981842041,1.28744816780090,0.16900271177292,-0.29236084222794
251,1047272614,-1.21321213245392,-1.61585474014282,10.15856838226318,0.33292895555496,-0.19926388561726,9.83429241180420,1.30733776092529,0.10121465474367,-0.25135251879692
252,1047280947,-1.21381497383118,-1.61652684211731,10.15886497497559,0.27398943901062,-0.20197482407093,9.86706638336182,1.19896388053894,0.13489736616611,-0.25911357998848
253,1047289280,-1.21420681476593,-1.61685121059418,10.16176319122314,0.33650550246239,-0.22444905340672,9.84492969512939,1.22359204292297,0.16997605562210,-0.30575713515282
254,1047297613,-1.21401476860046,-1.61603307723999,10.16154193878174,0.27926844358444,-0.18585231900215,9.82259845733643,1.29333949089050,0.31433784961700,-0.31876915693283
255,1047305946,-1.21357560157776,-1.61626958847046,10.16606903076172,0.30307310819626,-0.25663685798645,9.87030124664307,1.32645869255066,0.18101578950882,-0.21052338182926
256,1047314279,-1.21170377731323,-1.61626124382019,10.16574573516846,0.28204375505447,-0.18266214430332,9.84841346740723,1.49398863315582,0.21842536330223,-0.33206290006638
257,1047322612,-1.21253383159637,-1.61603784561157,10.17089748382568,0.31839451193810,-0.18375653028488,9.84892082214355,1.17799854278564,0.23434461653233,-0.07301337271929
258,1047330945,-1.21193802356720,-1.61502480506897,10.17007637023926,0.26813879609108,-0.28464737534523,9.82413768768311,1.33939397335052,0.34074619412422,-0.38978463411331
259,1047339278,-1.21135020256042,-1.61497759819031,10.17378520965576,0.30315178632736,-0.17125336825848,9.80812835693359,1.34568226337433,0.21537728607655,-0.15058608353138
260,1047347611,-1.21178054809570,-1.61512577533722,10.17139053344727,0.26244521141052,-0.19474327564240,9.86038684844971,1.20974743366241,0.20418386161327,-0.58049535751343
261,1047355944,-1.21142888069153,-1.61526286602020,10.17686176300049,0.26986962556839,-0.19512240588665,9.81475925445557,1.32516527175903,0.18986551463604,0.08446293324232
262,1047364277,-1.21188020706177,-1.61554443836212,10.17484283447266,0.25859692692757,-0.22927005589008,9.86781215667725,1.20972180366516,0.18720161914825,-0.53582417964935
263,1047372610,-1.21221697330475,-1.61484372615814,10.17782306671143,0.26537039875984,-0.20173877477646,9.86849021911621,1.23519527912140,0.29300120472908,-0.10537695884705
264,1047380943,-1.21217513084412,-1.61405014991760,10.17580795288086,0.27589946985245,-0.17219038307667,9.83426475524902,1.26800727844238,0.31710425019264,-0.53383910655975
265,1047389276,-1.21273243427277,-1.61423182487488,10.17940139770508,0.24498486518860,-0.25486293435097,9.87489318847656,1.20830023288727,0.18880252540112,-0.20294156670570
266,1047397609,-1.21274828910828,-1.61450159549713,10.17820549011230,0.26446920633316,-0.20276163518429,9.85061645507812,1.26340937614441,0.18658688664436,-0.43715813755989
267,1047405942,-1.21332144737244,-1.61409687995911,10.18261051177979,0.24577169120312,-0.19183209538460,9.85370635986328,1.21049034595490,0.25525864958763,-0.03734555467963
268,1047414275,-1.21343600749969,-1.61347198486328,10.18195533752441,0.25665131211281,-0.20340538024902,9.84168338775635,1.25435459613800,0.29312929511070,-0.37097096443176
269,1047422608,-1.21368682384491,-1.61318504810333,10.18566322326660,0.24153004586697,-0.22197417914867,9.87745380401611,1.24682402610779,0.24000537395477,-0.06795456260443
270,1047430941,-1.21442806720734,-1.61295258998871,10.18537521362305,0.28844553232193,-0.14914393424988,9.82117557525635,1.18067526817322,0.24455191195011,-0.32745236158371
271,1047439274,-1.21563959121704,-1.61360430717468,10.18865108489990,0.22526448965073,-0.31776505708694,9.91175842285156,1.12688541412354,0.13133698701859,-0.25263318419456
272,1047447607,-1.21400797367096,-1.61460757255554,10.18791961669922,0.26274538040161,-0.22399127483368,9.87632369995117,1.46381497383118,0.09714197367430,-0.38482823967934
273,1047455940,-1.21463620662689,-1.61552619934082,10.18946075439453,0.24810351431370,-0.32719248533249,9.79175567626953,1.19193279743195,0.10181657224894,-0.46156844496727
274,1047464273,-1.21500980854034,-1.61532175540924,10.19228839874268,0.25984132289886,0.09900965541601,9.73542022705078,1.23486220836639,0.23308949172497,0.04531157389283
275,1047472606,-1.21675860881805,-1.61365747451782,10.19240474700928,0.20137399435043,-0.30594855546951,10.04175472259521,1.06196630001068,0.41072428226471,-0.40607532858849
276,1047480939,-1.21603405475616,-1.61587035655975,10.19403076171875,0.33119803667068,-0.48638612031937,9.82497215270996,1.36188316345215,-0.05367462709546,-0.10421150922775
277,1047489272,-1.21246421337128,-1.61693668365479,10.19488620758057,0.36493381857872,-0.00267324573360,9.69430446624756,1.69553434848785,0.08168379962444,-0.46373292803764
278,1047497605,-1.21635997295380,-1.61507844924927,10.19750881195068,0.24735246598721,-0.03406899049878,9.78289318084717,0.81069052219391,0.43183037638664,0.02512756362557
279,1047505938,-1.21823251247406,-1.61496782302856,10.19708156585693,0.26218745112419,-0.58045321702957,10.04068183898926,1.03942561149597,0.23119409382343,-0.61804586648941
280,1047514271,-1.21382439136505,-1.61561048030853,10.20160865783691,0.35839021205902,-0.05599857866764,9.77252674102783,1.81350064277649,0.12718747556210,0.24739508330822
281,1047522604,-1.21501827239990,-1.61499154567719,10.19993209838867,0.29830932617188,0.00315440376289,9.85691833496094,1.11994397640228,0.29224559664726,-0.74227488040924
282,1047530937,-1.21621131896973,-1.61524450778961,10.20462322235107,0.28488343954086,-0.21106609702110,9.97450351715088,1.14239478111267,0.17302414774895,0.26946175098419
283,1047539270,-1.21496582031250,-1.61577939987183,10.20186805725098,0.35850763320923,-0.29245829582214,9.80906581878662,1.40332710742950,0.15829597413540,-0.84740853309631
284,1047547603,-1.21367955207825,-1.61595356464386,10.20600795745850,0.34465259313583,-0.19205383956432,9.76529693603516,1.43780386447906,0.18624109029770,0.20158401131630
285,1047555936,-1.21396982669830,-1.61601579189301,10.20425033569336,0.30471137166023,-0.06740835309029,9.94185066223145,1.22655034065247,0.21184252202511,-0.63807612657547
286,1047564269,-1.21599555015564,-1.61619520187378,10.20832920074463,0.25519898533821,-0.31662067770958,9.85390758514404,1.04097533226013,0.18371811509132,0.19491150975227
287,1047572602,-1.21430778503418,-1.61718547344208,10.20711612701416,0.37623271346092,-0.28906068205833,9.76569175720215,1.45869219303131,0.10526169091463,-0.68994498252869
288,1047580935,-1.21441185474396,-1.61659359931946,10.20992565155029,0.28582048416138,-0.13297131657600,9.81899929046631,1.26572740077972,0.27955374121666,0.04415893927217
289,1047589268,-1.21502733230591,-1.61554789543152,10.21061134338379,0.31905952095985,-0.25728780031204,9.92150211334229,1.19226586818695,0.34540799260139,-0.47784638404846
290,1047597601,-1.21463000774384,-1.61630022525787,10.21133708953857,0.22170236706734,-0.25256687402725,9.89663791656494,1.32033693790436,0.12553535401821,-0.20727038383484
291,1047605934,-1.21396946907043,-1.61602520942688,10.21287536621094,0.33790746331215,-0.13571804761887,9.82555961608887,1.34947323799133,0.24959792196751,-0.29579320549965
292,1047614267,-1.21452116966248,-1.61525154113770,10.21310806274414,0.25223785638809,-0.20537957549095,9.84334945678711,1.20462465286255,0.30858749151230,-0.26364731788635
293,1047622600,-1.21507227420807,-1.61441409587860,10.21693897247314,0.28902491927147,-0.28824526071548,9.89788246154785,1.20882546901703,0.31422263383865,-0.11777424812317
294,1047630933,-1.21292448043823,-1.61513864994049,10.21425819396973,0.24061480164528,-0.20345546305180,9.81774330139160,1.51734900474548,0.13523036241531,-0.61656028032303
295,1047639266,-1.21272885799408,-1.61474525928497,10.21830940246582,0.26909711956978,-0.04570665583014,9.87188720703125,1.30376458168030,0.25911357998848,0.00056351319654
296,1047647599,-1.21417808532715,-1.61385810375214,10.21607589721680,0.24531389772892,-0.32051172852516,9.81539535522461,1.08783650398254,0.32763168215752,-0.55830061435699
297,1047655932,-1.21359133720398,-1.61394441127777,10.21919059753418,0.27552750706673,-0.31419578194618,9.86133861541748,1.34837174415588,0.19903540611267,0.01066832896322
298,1047664265,-1.21226549148560,-1.61393308639526,10.21505165100098,0.23004257678986,-0.09139187633991,9.88540744781494,1.41425168514252,0.22810758650303,-0.78850871324539
299,1047672598,-1.21435594558716,-1.61371004581451,10.22168636322021,0.21231783926487,-0.12015345692635,9.83011627197266,1.03834986686707,0.23045125603676,0.32320043444633
300,1047680931,-1.21463084220886,-1.61360692977905,10.21825504302979,0.25140812993050,-0.35493838787079,9.86022949218750,1.22525691986084,0.23575343191624,-0.70435303449631
301,1047689264,-1.21330142021179,-1.61354207992554,10.22448348999023,0.28992605209351,-0.22213158011436,9.83317852020264,1.44241452217102,0.21060025691986,0.22071789205074
302,1047697597,-1.21342778205872,-1.61360073089600,10.22061824798584,0.25058588385582,-0.07781572639942,9.89269638061523,1.24203431606293,0.21948836743832,-0.75796359777451
303,1047705930,-1.21527791023254,-1.61404454708099,10.22593688964844,0.23979917168617,-0.25401887297630,9.89348220825195,1.06105685234070,0.15162345767021,0.13364227116108
304,1047714263,-1.21438241004944,-1.61416995525360,10.22170734405518,0.31677794456482,-0.32465323805809,9.76816558837891,1.36370193958282,0.21080514788628,-0.80136692523956
305,1047722596,-1.21384334564209,-1.61378884315491,10.22599220275879,0.21130213141441,-0.20374873280525,9.88331890106201,1.34171211719513,0.25336322188377,-0.04666913673282
306,1047730929,-1.21421813964844,-1.61341857910156,10.22282505035400,0.26440483331680,-0.06393211334944,9.84487247467041,1.21346151828766,0.26757910847664,-0.67088806629181
307,1047739262,-1.21581304073334,-1.61359906196594,10.22843837738037,0.25019928812981,-0.26549923419952,9.85269737243652,1.08925807476044,0.18338511884212,0.02788109518588
308,1047747595,-1.21493411064148,-1.61386287212372,10.22725772857666,0.32287240028381,-0.24597911536694,9.86162567138672,1.37191116809845,0.18835428357124,-0.43659460544586
309,1047755928,-1.21442532539368,-1.61217987537384,10.22924613952637,0.24852553009987,-0.17239782214165,9.84764766693115,1.33328497409821,0.41096758842468,-0.21359708905220
310,1047764261,-1.21530795097351,-1.61126613616943,10.22952556610107,0.30074864625931,-0.18507978320122,9.90044403076172,1.16515326499939,0.32498061656952,-0.25785851478577
311,1047772594,-1.21558356285095,-1.61164665222168,10.23018360137939,0.26887536048889,-0.24160872399807,9.82098960876465,1.23254418373108,0.16852885484695,-0.40882882475853
312,1047780927,-1.21611094474792,-1.61074602603912,10.23130798339844,0.32422417402267,-0.19007965922356,9.87558841705322,1.21063125133514,0.32161232829094,-0.15754033625126
313,1047789260,-1.21609985828400,-1.61088109016418,10.23379898071289,0.30139935016632,-0.24075753986835,9.79956626892090,1.26849377155304,0.19812610745430,-0.41277340054512
314,1047797593,-1.21631824970245,-1.61112296581268,10.23609542846680,0.32219982147217,-0.19122409820557,9.82641124725342,1.25183176994324,0.18164335191250,-0.01874962076545
315,1047805926,-1.21556568145752,-1.61131095886230,10.23657894134521,0.28832393884659,-0.18280521035194,9.88441371917725,1.35580003261566,0.19493713974953,-0.48441645503044
316,1047814259,-1.21619129180908,-1.61120307445526,10.23954582214355,0.32827967405319,-0.12749230861664,9.81571197509766,1.20360004901886,0.22147347033024,0.06348488479853
317,1047822592,-1.21709978580475,-1.61195266246796,10.23920631408691,0.33440256118774,-0.32580482959747,9.81292819976807,1.15197455883026,0.13022276759148,-0.62946981191635
318,1047830925,-1.21639764308929,-1.61114883422852,10.24198055267334,0.29414635896683,-0.25788858532906,9.88753223419189,1.36386823654175,0.30566743016243,0.04209699481726
319,1047839258,-1.21617138385773,-1.61168873310089,10.24049282073975,0.27118572592735,-0.06858861446381,9.86523723602295,1.28510463237762,0.16097265481949,-0.72649651765823
320,1047847591,-1.21691024303436,-1.61188566684723,10.24319171905518,0.26318886876106,-0.15405078232288,9.84835624694824,1.18923056125641,0.18610019981861,0.02998145855963
321,1047855924,-1.21653270721436,-1.61086583137512,10.24236202239990,0.34044671058655,-0.30378839373589,9.81422233581543,1.30613374710083,0.34403759241104,-0.58587437868118
322,1047864257,-1.21458494663239,-1.61044383049011,10.24504184722900,0.28356015682220,-0.23680916428566,9.87216091156006,1.51351952552795,0.26047113537788,0.02779144234955
323,1047872590,-1.21400690078735,-1.60977780818939,10.24527835845947,0.28589197993279,-0.04316740855575,9.88276863098145,1.33215785026550,0.30118495225906,-0.48603007197380
324,1047880923,-1.21556675434113,-1.61013209819794,10.24578952789307,0.25944095849991,-0.23740285634995,9.83013153076172,1.08574903011322,0.17096219956875,-0.23411409556866
325,1047889256,-1.21608471870422,-1.60994195938110,10.24676036834717,0.31938159465790,-0.34693434834480,9.83019542694092,1.20388174057007,0.24088905751705,-0.33564895391464
326,1047897589,-1.21362602710724,-1.60827386379242,10.24790000915527,0.22144494950771,-0.18279090523720,9.83771419525146,1.56751418113708,0.41459199786186,-0.15372382104397
327,1047905922,-1.21404480934143,-1.60757410526276,10.25130462646484,0.22938452661037,-0.02990603633225,9.86904907226562,1.22254180908203,0.29889249801636,-0.21267499029636
328,1047914255,-1.21543729305267,-1.60746812820435,10.25124454498291,0.24054296314716,-0.30174267292023,9.83268451690674,1.10210359096527,0.22975966334343,-0.29975056648254
329,1047922588,-1.21484220027924,-1.60793769359589,10.25410556793213,0.28375327587128,-0.27693662047386,9.84282016754150,1.34415841102600,0.15491490066051,-0.06660982221365
330,1047930921,-1.21413016319275,-1.60810041427612,10.25182628631592,0.23806780576706,-0.17091004550457,9.84514331817627,1.34810256958008,0.20194260776043,-0.56659960746765
331,1047939254,-1.21459841728210,-1.60829615592957,10.25589752197266,0.25542086362839,-0.13787104189396,9.86917114257812,1.21933996677399,0.18818777799606,-0.07809779793024
332,1047947587,-1.21546983718872,-1.60735845565796,10.25263404846191,0.25027081370354,-0.27130731940269,9.82061004638672,1.15425431728363,0.33636608719826,-0.68332368135452
333,1047955920,-1.21496737003326,-1.60694932937622,10.25834941864014,0.23593653738499,-0.22849753499031,9.86567878723145,1.33789551258087,0.25694921612740,0.04834686592221
334,1047964253,-1.21501457691193,-1.60727262496948,10.25615310668945,0.25277432799339,-0.13585394620895,9.84560203552246,1.25637817382812,0.18344913423061,-0.55832624435425
335,1047972586,-1.21641016006470,-1.60733222961426,10.26202297210693,0.23415546119213,-0.26727312803268,9.86107349395752,1.11328423023224,0.19670452177525,0.11133226752281
336,1047980919,-1.21519303321838,-1.60771226882935,10.25975227355957,0.27222979068756,-0.24102219939232,9.83615207672119,1.40739977359772,0.17760910093784,-0.56716322898865
337,1047989252,-1.21547961235046,-1.60748517513275,10.26404857635498,0.25399744510651,-0.13473094999790,9.83498764038086,1.24170124530792,0.23429340124130,-0.02859829179943
338,1047997585,-1.21578466892242,-1.60708308219910,10.26227188110352,0.30393144488335,-0.21775399148464,9.87578010559082,1.22763895988464,0.26841154694557,-0.50535607337952
339,1048005918,-1.21575880050659,-1.60731625556946,10.26415443420410,0.25347518920898,-0.27714404463768,9.84791088104248,1.27284812927246,0.18306495249271,-0.25807625055313
340,1048014251,-1.21517646312714,-1.60752475261688,10.26342391967773,0.27685096859932,-0.13583962619305,9.84309959411621,1.33743441104889,0.19270868599415,-0.38265106081963
341,1048022584,-1.21562695503235,-1.60733819007874,10.26577472686768,0.29634228348732,-0.22078680992126,9.82867813110352,1.21520328521729,0.23597113788128,-0.28301167488098
342,1048030917,-1.21590876579285,-1.60727763175964,10.26616764068604,0.33641251921654,-0.24273887276649,9.85088825225830,1.23645019531250,0.22256207466125,-0.24638330936432
343,1048039250,-1.21553766727448,-1.60701012611389,10.26771831512451,0.29067721962929,-0.27212992310524,9.86157417297363,1.31075739860535,0.24684439599514,-0.37633717060089
344,1048047583,-1.21505260467529,-1.60706186294556,10.26764297485352,0.33386608958244,-0.10738562792540,9.84439373016357,1.32868707180023,0.20998547971249,-0.30287548899651
345,1048055916,-1.21538186073303,-1.60760784149170,10.26732349395752,0.29679292440414,-0.19939264655113,9.81882953643799,1.22510325908661,0.15260960161686,-0.48203426599503
346,1048064249,-1.21545302867889,-1.60817229747772,10.26918029785156,0.37402215600014,-0.35593262314796,9.82260608673096,1.26721298694611,0.14313234388828,-0.07143809646368
347,1048072582,-1.21566998958588,-1.60705602169037,10.26867675781250,0.25181582570076,-0.15934388339520,9.82520961761475,1.23542571067810,0.35434731841087,-0.53442823886871
348,1048080915,-1.21655642986298,-1.60773241519928,10.27096748352051,0.29278019070625,-0.17512308061123,9.91313362121582,1.17188966274261,0.12933908402920,-0.02061945945024
349,1048089248,-1.21645772457123,-1.60874807834625,10.27119064331055,0.29975420236588,-0.22801117599010,9.83420085906982,1.27637004852295,0.09880690276623,-0.48162445425987
350,1048097581,-1.21686768531799,-1.60827839374542,10.27388572692871,0.30171409249306,-0.26956200599670,9.87195873260498,1.22964990139008,0.26435172557831,0.03100603446364
351,1048105914,-1.21571898460388,-1.60795807838440,10.27296543121338,0.28709366917610,-0.17103162407875,9.86738300323486,1.40003573894501,0.26086816191673,-0.51738196611404
352,1048114247,-1.21658587455750,-1.60789191722870,10.27671051025391,0.31471782922745,-0.05889654159546,9.83302116394043,1.17848539352417,0.21398130059242,0.15540154278278
353,1048122580,-1.21742665767670,-1.60753524303436,10.27564620971680,0.30021911859512,-0.34398022294044,9.85719013214111,1.16243815422058,0.26599106192589,-0.55495804548264
354,1048130913,-1.21581327915192,-1.60770177841187,10.27745532989502,0.27326717972755,-0.27021291851997,9.84303283691406,1.46866881847382,0.19056989252567,-0.07674023509026
355,1048139246,-1.21517360210419,-1.60827946662903,10.27728462219238,0.29913905262947,-0.07901030033827,9.86578750610352,1.34305667877197,0.15150818228722,-0.43540352582932
356,1048147579,-1.21654832363129,-1.60782742500305,10.27863979339600,0.28438988327980,-0.26096433401108,9.78054714202881,1.10916042327881,0.26806578040123,-0.13053013384342
357,1048155912,-1.21640968322754,-1.60810208320618,10.27833461761475,0.24875442683697,-0.28747990727425,9.86279010772705,1.28055799007416,0.18805970251560,-0.45661213994026
358,1048164245,-1.21496963500977,-1.60932183265686,10.27913761138916,0.24153719842434,-0.19703936576843,9.87157440185547,1.44569325447083,0.06823632866144,-0.20072595775127
359,1048172578,-1.21501028537750,-1.60823678970337,10.28043937683105,0.25557106733322,-0.11813635379076,9.80975246429443,1.26521515846252,0.34802064299583,-0.27998921275139
360,1048180911,-1.21596646308899,-1.60834991931915,10.28014373779297,0.22638033330441,-0.29948237538338,9.84922885894775,1.15506112575531,0.20274947583675,-0.32988572120667
361,1048189244,-1.21516275405884,-1.60810947418213,10.28071594238281,0.25816741585732,-0.23371914029121,9.83986473083496,1.36466252803802,0.24731826782227,-0.32033163309097
362,1048197577,-1.21505141258240,-1.60867476463318,10.27989959716797,0.23842553794384,-0.17407158017159,9.85600090026855,1.28051972389221,0.14911326766014,-0.39297360181808
363,1048205910,-1.21532952785492,-1.60850965976715,10.28233909606934,0.24571445584297,-0.17467242479324,9.84528064727783,1.23800003528595,0.23574061691761,-0.24687001109123
364,1048214243,-1.21639859676361,-1.60900831222534,10.28127288818359,0.22268198430538,-0.25642228126526,9.86354064941406,1.13792514801025,0.15851368010044,-0.42196887731552
365,1048222576,-1.21615159511566,-1.60936069488525,10.28495502471924,0.25720909237862,-0.22552198171616,9.82715511322021,1.30335450172424,0.17036026716232,-0.10982102900743
366,1048230909,-1.21620213985443,-1.60994279384613,10.28364181518555,0.22560781240463,-0.18765483796597,9.79684162139893,1.25960564613342,0.14856256544590,-0.45212966203690
367,1048239242,-1.21610307693481,-1.61048793792725,10.28666782379150,0.24731670320034,-0.21866956353188,9.84894943237305,1.28870320320129,0.14459234476089,-0.09424757212400
368,1048247575,-1.21575069427490,-1.61056172847748,10.28527736663818,0.28205069899559,-0.21372695267200,9.83268260955811,1.30676138401031,0.21095885336399,-0.46055671572685
369,1048255908,-1.21561539173126,-1.61083829402924,10.28762245178223,0.27753031253815,-0.19371329247952,9.85713958740234,1.29041957855225,0.17871050536633,-0.15280170738697
370,1048264241,-1.21481466293335,-1.61073541641235,10.28622627258301,0.27376791834831,-0.19437135756016,9.84812736511230,1.36234426498413,0.23104038834572,-0.46091529726982
371,1048272574,-1.21494281291962,-1.61169528961182,10.28893470764160,0.27971193194389,-0.24005655944347,9.84786987304688,1.25549459457397,0.09826901555061,-0.24371945858002
372,1048280907,-1.21473300457001,-1.61128449440002,10.28728866577148,0.26111453771591,-0.21933478116989,9.83353519439697,1.29008650779724,0.26879578828812,-0.49055102467537
373,1048289240,-1.21493101119995,-1.61212658882141,10.29078865051270,0.25652223825455,-0.18937866389751,9.84258937835693,1.24856579303741,0.11149875819683,-0.19169692695141
374,1048297573,-1.21522521972656,-1.61243510246277,10.29064750671387,0.31323757767677,-0.21227490901947,9.87076759338379,1.23399114608765,0.17945331335068,-0.31063663959503
375,1048305906,-1.21423768997192,-1.61110866069794,10.29259109497070,0.31519001722336,-0.21092303097248,9.83782672882080,1.39236414432526,0.36938288807869,-0.16865694522858
376,1048314239,-1.21392512321472,-1.61102247238159,10.29187297821045,0.30128490924835,-0.17927169799805,9.84481525421143,1.30453300476074,0.22840212285519,-0.37918034195900
377,1048322572,-1.21429681777954,-1.61153233051300,10.29300308227539,0.28865298628807,-0.21204602718353,9.85081672668457,1.22320771217346,0.15504297614098,-0.39513799548149
378,1048330905,-1.21450281143188,-1.61242270469666,10.29251670837402,0.32618424296379,-0.26926878094673,9.83895874023438,1.24462115764618,0.11073033511639,-0.35405275225639
379,1048339238,-1.21413421630859,-1.61234951019287,10.29322624206543,0.29216486215591,-0.21793282032013,9.84610843658447,1.31247353553772,0.22374036908150,-0.32809275388718
380,1048347571,-1.21423196792603,-1.61255788803101,10.29410934448242,0.29225802421570,-0.13135480880737,9.84935760498047,1.26106560230255,0.18890497088432,-0.18779076635838
381,1048355904,-1.21570527553558,-1.61249089241028,10.29423904418945,0.29586303234100,-0.24416944384575,9.83735466003418,1.09148669242859,0.22710862755775,-0.41323447227478
382,1048364237,-1.21509909629822,-1.61325061321259,10.29618453979492,0.33518221974373,-0.21164546906948,9.85040855407715,1.34778273105621,0.12029726803303,-0.06178152933717
383,1048372570,-1.21418809890747,-1.61250686645508,10.29619693756104,0.31870922446251,-0.19602365791798,9.81439399719238,1.37369155883789,0.30916380882263,-0.52272248268127
384,1048380903,-1.21440410614014,-1.61205673217773,10.29857540130615,0.27179372310638,-0.16415774822235,9.83191204071045,1.25115287303925,0.26423645019531,-0.00680057890713
385,1048389236,-1.21523630619049,-1.61323356628418,10.29744720458984,0.29408913850784,-0.34920895099640,9.88416290283203,1.16147744655609,0.08421960473061,-0.66198706626892
386,1048397569,-1.21150910854340,-1.61219716072083,10.29798316955566,0.24218301475048,-0.24237631261349,9.74406147003174,1.71776735782623,0.33900439739227,-0.22642982006073
387,1048405902,-1.21231627464294,-1.61437010765076,10.30040454864502,0.15883614122868,0.04096433147788,10.35238265991211,1.18058574199677,-0.04875670000911,-0.11899092793465
388,1048414235,-1.21099793910980,-1.61161291599274,10.30086421966553,0.09772929549217,0.16331371665001,9.92609310150146,1.42897975444794,0.54636442661285,-0.23242357373238
389,1048422568,-1.20380985736847,-1.60978829860687,10.30345630645752,0.31832256913185,-0.39570891857147,9.63559341430664,2.13352489471436,0.43338003754616,-0.20596404373646
390,1048430901,-1.20297908782959,-1.61033046245575,10.30243968963623,0.07333809882402,-0.00331176631153,9.79131889343262,1.36612236499786,0.15359574556351,-0.41712778806686
391,1048439234,-1.20723855495453,-1.61289417743683,10.30750560760498,-0.20159572362900,-0.09156354516745,10.07524394989014,0.76772260665894,-0.10348150134087,0.13645982742310
392,1048447567,-1.20872485637665,-1.61494600772858,10.30380821228027,-0.19120264053345,-0.75025457143784,9.53780841827393,1.07930696010590,-0.02141349948943,-0.74224919080734
393,1048455900,-1.20854151248932,-1.61402702331543,10.30967712402344,-0.11280748993158,-0.20194621384144,9.71562099456787,1.30431532859802,0.30300360918045,0.36278727650642
394,1048464233,-1.20915102958679,-1.61351561546326,10.30280113220215,-0.15586045384407,-0.11592612415552,9.94579219818115,1.17246592044830,0.29530647397041,-1.11582005023956
395,1048472566,-1.21277713775635,-1.61441910266876,10.30948638916016,0.14623963832855,-0.36827847361565,9.67097949981689,0.85477262735367,0.07461426407099,0.40777856111526
396,1048480899,-1.21232545375824,-1.61497330665588,10.30217552185059,0.32968866825104,-0.51041048765182,9.68053150177002,1.29861617088318,0.16782447695732,-1.17268371582031
397,1048489232,-1.20810317993164,-1.61255621910095,10.30841827392578,0.19469632208347,-0.09702537208796,9.75863265991211,1.79655683040619,0.46891975402832,0.38106295466423
398,1048497565,-1.20815861225128,-1.60908162593842,10.30341911315918,-0.05638623982668,0.19137409329414,9.95618343353271,1.24526178836823,0.64545315504074,-0.88393449783325
399,1048505898,-1.21230661869049,-1.61113989353180,10.30925369262695,0.01804662309587,-0.61186850070953,9.88104438781738,0.79521954059601,-0.06968352198601,0.41610324382782
400,1048514231,-1.20824730396271,-1.61269044876099,10.30402374267578,-0.11141509562731,-0.30123946070671,9.84921932220459,1.73951387405396,0.04433824494481,-0.92413592338562
401,1048522564,-1.21309804916382,-1.61300110816956,10.30920124053955,-0.39172568917274,0.24416942894459,9.97564888000488,0.70435303449631,0.13786861300468,0.23717498779297
402,1048530897,-1.21912181377411,-1.61354136466980,10.30490112304688,0.14007411897182,-0.50755858421326,9.93428993225098,0.53198206424713,0.16290654242039,-0.80990934371948
403,1048539230,-1.21473705768585,-1.61415052413940,10.30875015258789,0.46403551101685,-0.45540556311607,9.85613346099854,1.80383121967316,0.09712916612625,-0.01023288629949
404,1048547563,-1.21488451957703,-1.61363995075226,10.30436038970947,0.74624180793762,0.22063659131527,9.76698493957520,1.23639917373657,0.28831383585930,-0.81831085681915
405,1048555896,-1.21964299678802,-1.61287879943848,10.30703067779541,0.90441977977753,-0.38507330417633,9.80930900573730,0.70741391181946,0.26602947711945,-0.15482524037361
406,1048564229,-1.21716678142548,-1.61440253257751,10.30766105651855,1.01395130157471,-0.56167697906494,9.76732158660889,1.56951212882996,0.03142866864800,-0.22245962917805
407,1048572562,-1.21376252174377,-1.61385941505432,10.30938339233398,0.60809260606766,0.07276728749275,9.80803966522217,1.68089568614960,0.25474637746811,-0.24167029559612
408,1048580895,-1.21469819545746,-1.61311018466949,10.30943965911865,0.34717014431953,-0.03761684894562,9.88635063171387,1.15741777420044,0.30436119437218,-0.28467664122581
409,1048589228,-1.21434700489044,-1.61286842823029,10.31061077117920,0.23835419118404,-0.31613421440125,9.87312602996826,1.31822371482849,0.22751843929291,-0.18554951250553
410,1048597561,-1.21409916877747,-1.61286461353302,10.31057929992676,0.22385537624359,-0.21263971924782,9.83587455749512,1.29935884475708,0.21654273569584,-0.29681774973869
411,1048605894,-1.21350622177124,-1.61183667182922,10.31123447418213,0.26509866118431,-0.07901745289564,9.98805809020996,1.33578240871429,0.32896363735199,-0.49774864315987
412,1048614227,-1.21510457992554,-1.61133718490601,10.31247138977051,0.56133365631104,0.03816041722894,9.81986618041992,1.08294427394867,0.27307334542274,-0.14288899302483
413,1048622560,-1.21985316276550,-1.61042428016663,10.31219482421875,0.75668495893478,-0.37504500150681,9.85256195068359,0.69989609718323,0.31032925844193,-0.32399442791939
414,1048630893,-1.21833395957947,-1.60907709598541,10.31303405761719,0.83432906866074,-0.49017718434334,9.78182792663574,1.45477318763733,0.37462097406387,-0.19028814136982
415,1048639226,-1.21593356132507,-1.60846650600433,10.31323337554932,0.65567964315414,0.03009916283190,9.80019569396973,1.55387473106384,0.28471502661705,-0.41748639941216
416,1048647559,-1.21878492832184,-1.60852468013763,10.31414318084717,0.52751511335373,-0.19218973815441,9.79926013946533,0.92959171533585,0.20616896450520,-0.18394862115383
417,1048655892,-1.21611940860748,-1.60860216617584,10.31492805480957,0.32435998320580,-0.56738495826721,9.72642135620117,1.59008049964905,0.20814128220081,-0.32733714580536
418,1048664225,-1.21158969402313,-1.60802817344666,10.31577014923096,0.15248042345047,-0.11336791515350,9.87666130065918,1.81492221355438,0.28267869353294,-0.19091568887234
419,1048672558,-1.21095359325409,-1.60865557193756,10.31574440002441,0.07486880570650,0.04004876688123,9.99407386779785,1.34538769721985,0.14684641361237,-0.45453742146492
420,1048680891,-1.21225368976593,-1.60916149616241,10.31698417663574,0.08542651683092,-0.30581980943680,9.93689537048340,1.11850965023041,0.15354453027248,-0.14620605111122
421,1048689224,-1.21049082279205,-1.60893654823303,10.31769657135010,0.09457489103079,-0.17460805177689,9.87733936309814,1.47717297077179,0.24464155733585,-0.41650021076202
422,1048697557,-1.21167385578156,-1.60935282707214,10.31975841522217,0.09888805449009,-0.01244594715536,9.85569477081299,1.13583779335022,0.16093425452709,-0.04632334411144
423,1048705890,-1.21473181247711,-1.60984027385712,10.31881427764893,0.20633839070797,-0.27336016297340,9.83378028869629,0.89630609750748,0.16069091856480,-0.54010176658630
424,1048714223,-1.21394634246826,-1.60907578468323,10.31943416595459,0.24490618705750,-0.34591862559319,9.77405929565430,1.36536693572998,0.30562904477119,-0.21783624589443
425,1048722556,-1.21356546878815,-1.60896825790405,10.32047271728516,0.29029813408852,-0.00120883050840,9.84691810607910,1.31695592403412,0.22146067023277,-0.21809242665768
426,1048730889,-1.21710181236267,-1.60925066471100,10.32135009765625,0.32353022694588,-0.37880739569664,9.78008174896240,0.84947055578232,0.18060599267483,-0.19010886549950
427,1048739222,-1.21542441844940,-1.60915648937225,10.32260227203369,0.23497785627842,-0.57664072513580,9.81486511230469,1.46574902534485,0.22420139610767,-0.39112937450409
428,1048747555,-1.21003365516663,-1.60913372039795,10.32171154022217,0.05352015048265,0.07310213148594,9.84190654754639,1.91374194622040,0.22128139436245,-0.40110614895821
429,1048755888,-1.21414709091187,-1.60892212390900,10.32300090789795,0.00554345315322,-0.00964203197509,9.84236240386963,0.78061938285828,0.23442146182060,-0.26496639847755
430,1048764221,-1.21430146694183,-1.60875177383423,10.32247734069824,0.01906232722104,-0.64934223890305,9.84415054321289,1.25046133995056,0.23839166760445,-0.35543593764305
431,1048772554,-1.20907568931580,-1.60844039916992,10.32301902770996,0.02692881785333,-0.18415623903275,9.93609714508057,1.89501786231995,0.24541001021862,-0.32834887504578
432,1048780887,-1.21079945564270,-1.60937607288361,10.32250118255615,0.07420385628939,0.29553407430649,9.96444797515869,1.06136429309845,0.10526170581579,-0.35795897245407
433,1048789220,-1.21648585796356,-1.60998451709747,10.32469844818115,0.23833273351192,-0.35071104764938,9.82417964935303,0.59259808063507,0.12769976258278,-0.22261330485344
434,1048797553,-1.21606147289276,-1.61058652400970,10.32546997070312,0.37431541085243,-0.48951196670532,9.83928585052490,1.32251417636871,0.14190284907818,-0.20176333189011
435,1048805886,-1.21446657180786,-1.61092388629913,10.32382678985596,0.36832103133202,0.01191660203040,9.83752536773682,1.45314669609070,0.16562162339687,-0.61858379840851
436,1048814219,-1.21788942813873,-1.61112964153290,10.32591152191162,0.41450718045235,-0.04463373497128,9.87419128417969,0.86486470699310,0.18670217692852,-0.04428701475263
437,1048822552,-1.22016537189484,-1.61139237880707,10.32575511932373,0.48871085047722,-0.49387520551682,9.74097728729248,0.98986208438873,0.17558556795120,-0.54997599124908
438,1048830885,-1.21791350841522,-1.61065924167633,10.32723522186279,0.49200823903084,-0.42386311292648,9.79249095916748,1.54520428180695,0.30014759302139,-0.11476457864046
439,1048839218,-1.21494233608246,-1.60897850990295,10.32907199859619,0.50931823253632,0.08190213888884,9.89718437194824,1.62212395668030,0.41123652458191,-0.46657609939575
440,1048847551,-1.21682345867157,-1.60847890377045,10.33128452301025,0.56477415561676,-0.11927365511656,9.87219619750977,1.05262982845306,0.27126759290695,-0.02674126252532
441,1048855884,-1.21695077419281,-1.60887587070465,10.33317947387695,0.61096006631851,-0.44386968016624,9.87390613555908,1.25151145458221,0.16293214261532,-0.39500990509987
442,1048864217,-1.21312749385834,-1.60828173160553,10.33414077758789,0.47737774252892,-0.10501366853714,9.88502788543701,1.73285412788391,0.28470221161842,-0.17676384747028
443,1048872550,-1.21387040615082,-1.60868251323700,10.33502674102783,0.37689045071602,0.06315244734287,9.89360523223877,1.18052160739899,0.16760674118996,-0.34320512413979
444,1048880883,-1.21685945987701,-1.60910403728485,10.33597564697266,0.38066715002060,-0.31541892886162,9.87173843383789,0.91363406181335,0.16359810531139,-0.18082368373871
445,1048889216,-1.21631836891174,-1.60932743549347,10.33737754821777,0.51165693998337,-0.32992488145828,9.80706119537354,1.32889211177826,0.19474501907825,-0.47454211115837
446,1048897549,-1.21663820743561,-1.60912060737610,10.33798980712891,0.62372791767120,-0.09415287524462,9.83172607421875,1.23317170143127,0.23890395462513,-0.21944995224476
447,1048905882,-1.21969127655029,-1.60976445674896,10.33973789215088,0.78177756071091,-0.21291865408421,9.80554008483887,0.90338850021362,0.14287619292736,-0.32282900810242
448,1048914215,-1.21937358379364,-1.60946869850159,10.34020519256592,0.77724927663803,-0.44636598229408,9.79012393951416,1.31029629707336,0.25043037533760,-0.23579184710979
449,1048922548,-1.21629595756531,-1.60990929603577,10.34376621246338,0.63794058561325,-0.19167473912239,9.81119728088379,1.64338374137878,0.16964307427406,-0.12503589689732
450,1048930881,-1.21638333797455,-1.60968041419983,10.34325885772705,0.31716421246529,-0.09114867448807,9.80373668670654,1.25706970691681,0.24500013887882,-0.35412958264351
451,1048939214,-1.21653687953949,-1.60912156105042,10.34673309326172,0.09269369393587,-0.36856454610825,9.85499382019043,1.25683939456940,0.29709953069687,-0.16758114099503
452,1048947547,-1.21338069438934,-1.60911023616791,10.34553432464600,-0.04381873831153,-0.26513278484344,9.86494636535645,1.64512538909912,0.22056417167187,-0.43727344274521
453,1048955880,-1.21275722980499,-1.60906398296356,10.34841251373291,-0.01156614720821,0.02509932592511,9.89799690246582,1.34800040721893,0.23562535643578,-0.20702706277370
454,1048964213,-1.21516966819763,-1.60965442657471,10.34814357757568,0.04037757590413,-0.18931430578232,9.87108612060547,0.98053842782974,0.14659026265144,-0.32733711600304
455,1048972546,-1.21589100360870,-1.60890877246857,10.35129451751709,0.18955045938492,-0.32380920648575,9.86099624633789,1.18756556510925,0.31255766749382,-0.13596035540104
456,1048980879,-1.21513938903809,-1.60821497440338,10.35036182403564,0.10315115004778,-0.12378709763288,9.96424674987793,1.35697805881500,0.30287554860115,-0.40339860320091
457,1048989212,-1.21577870845795,-1.60853493213654,10.35488033294678,0.10254316031933,-0.08517605066299,9.79023170471191,1.20398437976837,0.17754505574703,0.04217383638024
458,1048997545,-1.21780455112457,-1.60856282711029,10.35298919677734,0.03317488729954,-0.35155507922173,9.74398136138916,1.01901113986969,0.21746487915516,-0.52041727304459
459,1049005878,-1.21624982357025,-1.60686695575714,10.35718917846680,-0.02650843560696,-0.32222127914429,9.76097679138184,1.46861767768860,0.41648742556572,0.11928549408913
460,1049014211,-1.21618735790253,-1.60605955123901,10.36188411712646,-0.08511167764664,0.10596936941147,10.02701282501221,1.29301941394806,0.30149233341217,0.27221527695656
461,1049022544,-1.22158253192902,-1.60678172111511,10.36293506622314,0.01871933601797,-0.56272131204605,9.81581878662109,0.62023586034775,0.13320681452751,-0.40155434608459
462,1049030877,-1.21510601043701,-1.60544753074646,10.36323928833008,0.25460949540138,-0.47444245219231,9.81783390045166,2.04770445823669,0.37506923079491,-0.25215932726860
463,1049039210,-1.21430444717407,-1.60528779029846,10.36460781097412,-0.06816659122705,0.34735634922981,9.96285152435303,1.37246191501617,0.22914494574070,-0.17208924889565
464,1049047543,-1.22224307060242,-1.60816574096680,10.35992813110352,0.30921065807343,-0.40241199731827,9.83863544464111,0.30118495225906,-0.11785108596087,-0.86079192161560
465,1049055876,-1.21701085567474,-1.60718727111816,10.36279487609863,0.34978085756302,-0.37858653068542,9.77872180938721,1.90268921852112,0.32439145445824,-0.10337904840708
466,1049064209,-1.21961236000061,-1.60702669620514,10.36155033111572,0.40935689210892,0.22532160580158,9.87454891204834,0.95263177156448,0.23804585635662,-0.44143572449684
467,1049072542,-1.22144830226898,-1.60712492465973,10.35940742492676,0.82447242736816,-0.28523391485214,9.85740470886230,1.04027104377747,0.20750091969967,-0.71185803413391
468,1049080875,-1.22391664981842,-1.60937356948853,10.36813926696777,0.85104525089264,-0.29310205578804,9.78518199920654,1.00272059440613,-0.07577971369028,0.74750024080276
469,1049089208,-1.22238647937775,-1.60967147350311,10.35561180114746,1.16408193111420,-0.35336175560951,9.75703525543213,1.40450549125671,0.21749049425125,-2.03552484512329
470,1049097541,-1.22206795215607,-1.60824012756348,10.37524414062500,0.77340900897980,0.25189590454102,9.92997837066650,1.37439596652985,0.33835127949715,2.06472516059875
471,1049105874,-1.23082447052002,-1.61022603511810,10.35645771026611,1.07127022743225,-0.59741020202637,9.76817989349365,0.15139295160770,0.04035522788763,-2.75427317619324
472,1049114207,-1.22167396545410,-1.60937428474426,10.37325668334961,0.96579426527023,-0.62151265144348,9.86643791198730,2.42447710037231,0.27531459927559,1.72415816783905
473,1049122540,-1.22261607646942,-1.61008739471436,10.36656379699707,0.84150993824005,0.66590321063995,9.88781929016113,1.12604010105133,0.17249906063080,-1.37271797657013
474,1049130873,-1.22879898548126,-1.60997557640076,10.36625385284424,1.11969912052155,-0.85506504774094,9.79798603057861,0.52691042423248,0.23032318055630,-0.33112800121307
475,1049139206,-1.22471570968628,-1.60971927642822,10.37996196746826,1.03653669357300,-0.06679553538561,9.82692527770996,1.79881083965302,0.24333523213863,1.16626727581024
476,1049147539,-1.22361218929291,-1.60985493659973,10.36051464080811,1.17186677455902,-0.09414670616388,9.73066711425781,1.33667886257172,0.25035354495049,-2.62502384185791
477,1049155872,-1.22665011882782,-1.60874009132385,10.38305187225342,1.01531934738159,-0.15943413972855,9.86463832855225,0.97854071855545,0.33359980583191,2.30978918075562
478,1049164205,-1.22760224342346,-1.61024034023285,10.36036586761475,1.09668433666229,-0.14249329268932,9.89408397674561,1.07871782779694,0.09372249245644,-3.01882982254028
479,1049172538,-1.22538375854492,-1.61011505126953,10.37270736694336,1.39547562599182,-0.93701297044754,8.97332572937012,1.57471179962158,0.25294056534767,1.04769897460938
480,1049180871,-1.23427915573120,-1.61388742923737,10.37350463867188,1.12741708755493,0.46507760882378,9.90339756011963,0.20417106151581,-0.23859660327435,-0.20775704085827
481,1049189204,-1.23875200748444,-1.61437547206879,10.36630344390869,0.92738038301468,-0.80719119310379,10.02808570861816,0.70987296104431,0.24233625829220,-1.31666135787964
482,1049197537,-1.22796058654785,-1.61093342304230,10.37790107727051,1.04598176479340,-0.14515952765942,10.20122528076172,2.60289287567139,0.59955239295959,1.10738015174866
483,1049205870,-1.22001969814301,-1.60854482650757,10.36801433563232,0.66196274757385,0.67217338085175,10.17188549041748,2.19150304794312,0.60211378335953,-1.52984857559204
484,1049214203,-1.22567701339722,-1.60935294628143,10.38352394104004,0.76732391119003,0.03994688391685,10.10001087188721,0.64358323812485,0.07850763946772,1.56536269187927
485,1049222536,-1.22374582290649,-1.61342859268188,10.36631774902344,0.88594686985016,-1.06273257732391,9.84818267822266,1.43841874599457,-0.14577062427998,-2.47361803054810
486,1049230869,-1.21412181854248,-1.61268901824951,10.38702774047852,0.34480354189873,0.44074746966362,9.98372745513916,2.49471116065979,0.25090423226357,2.19215607643127
487,1049239202,-1.21935474872589,-1.60831546783447,10.36908817291260,0.53721970319748,0.58579117059708,9.47004985809326,0.58121263980865,0.87382972240448,-2.47217082977295
488,1049247535,-1.22648859024048,-1.60490441322327,10.38936042785645,0.74137878417969,-0.97646367549896,9.85043621063232,0.48118901252747,0.57309281826019,2.14567852020264
489,1049255868,-1.22192966938019,-1.60598349571228,10.37167167663574,0.93014198541641,-0.83084368705750,9.22656536102295,1.74827408790588,0.22017997503281,-2.45313954353333
490,1049264201,-1.21639180183411,-1.59899187088013,10.39226818084717,0.27995601296425,0.58451265096664,10.09881114959717,2.00410890579224,1.00187504291534,2.19552397727966
491,1049272534,-1.22775685787201,-1.60644519329071,10.37470149993896,0.46228930354118,-0.38101267814636,10.04649639129639,-0.15006101131439,-0.54095983505249,-2.32832145690918
492,1049280867,-1.22236180305481,-1.60565137863159,10.39664554595947,0.46915516257286,-0.88931584358215,10.08034324645996,1.99102020263672,0.25378581881523,2.34106445312500
493,1049289200,-1.22406339645386,-1.61016464233398,10.37499046325684,-0.08234178274870,-0.21998849511147,9.37576675415039,0.98983645439148,-0.17490680515766,-2.93504571914673
494,1049297533,-1.22256386280060,-1.60250723361969,10.39587306976318,0.10346609354019,0.00020868564025,9.68810844421387,1.51874494552612,1.08143305778503,2.23215270042419
495,1049305866,-1.23683416843414,-1.60498118400574,10.37518215179443,0.04956067353487,0.17127926647663,10.07431888580322,-0.50758451223373,0.06216575577855,-2.71484017372131
496,1049314199,-1.24006307125092,-1.59959483146667,10.39510345458984,0.39240667223930,-0.72560834884644,9.46547603607178,0.94793164730072,0.81074178218842,2.11040806770325
497,1049322532,-1.23127543926239,-1.59979844093323,10.36914157867432,0.22680217027664,-0.66349947452545,10.10844135284424,2.23975992202759,0.34271848201752,-3.26219034194946
498,1049330865,-1.22720706462860,-1.60229945182800,10.38371086120605,0.35247457027435,0.72636181116104,10.33950996398926,1.80644392967224,-0.12098883837461,1.44789588451385
499,1049339198,-1.23318481445312,-1.60145282745361,10.37144660949707,0.24044838547707,0.49040833115578,10.05970478057861,0.51784294843674,0.43403321504593,-1.69818520545959
500,1049347531,-1.22826445102692,-1.59478664398193,10.38115406036377,0.67812079191208,-0.79905325174332,9.33343887329102,1.89268708229065,0.99160391092300,0.88679039478302
501,1049355864,-1.20405983924866,-1.59531438350677,10.37033367156982,0.32772609591484,-0.23905469477177,10.44210433959961,4.13644266128540,0.26164942979813,-1.41794002056122
502,1049364197,-1.20661723613739,-1.60237646102905,10.38316059112549,0.39561358094215,0.85495001077652,9.76205158233643,1.00640881061554,-0.66237127780914,1.22733163833618
503,1049372530,-1.21973514556885,-1.60289871692657,10.37252712249756,0.04363234341145,-0.60251259803772,9.34239292144775,-0.33915805816650,0.26414680480957,-1.43319320678711
504,1049380863,-1.21841335296631,-1.60001063346863,10.38167762756348,-0.17025963962078,-1.73569321632385,10.03925418853760,1.45819270610809,0.53928208351135,0.81215047836304
505,1049389196,-1.20651650428772,-1.59665060043335,10.36799907684326,-0.68396002054214,0.40280160307884,9.98086357116699,2.65179038047791,0.73592257499695,-1.70668923854828
506,1049397529,-1.21563851833344,-1.59545612335205,10.37970066070557,-0.73509794473648,0.87182414531708,9.73906040191650,0.21382762491703,0.32870748639107,1.11217021942139
507,1049405862,-1.22267436981201,-1.59421122074127,10.37090587615967,-0.87611615657806,-1.04890024662018,9.84199047088623,0.40137505531311,0.45934003591537,-1.10652208328247
508,1049414195,-1.21049153804779,-1.59404087066650,10.38072776794434,-1.14773285388947,-0.97563225030899,9.96148681640625,2.76579928398132,0.21236762404442,0.88433146476746
509,1049422528,-1.20186102390289,-1.59175980091095,10.37581062316895,-1.41882920265198,1.42467987537384,10.06085586547852,2.29093718528748,0.55982470512390,-0.68539857864380
510,1049430861,-1.23091578483582,-1.58913528919220,10.40157699584961,-1.82549929618835,0.62848758697510,9.97267627716064,-2.13078427314758,0.46474468708038,2.80291461944580
511,1049439194,-1.25166952610016,-1.59254336357117,10.38133907318115,-1.27318429946899,-3.06558394432068,9.66578865051270,-1.28676939010620,-0.10551784932613,-2.42998385429382
512,1049447527,-1.22150397300720,-1.58849096298218,10.40244960784912,-1.87214410305023,-0.47491067647934,9.89238071441650,4.96058130264282,0.64819389581680,2.24944210052490
513,1049455860,-1.22756421566010,-1.59533739089966,10.36999034881592,-1.44335007667542,1.58837902545929,9.90278434753418,0.44426608085632,-0.50754600763321,-4.00319719314575
514,1049464193,-1.24091231822968,-1.60846722126007,10.37168979644775,-0.37157589197159,-2.37370681762695,9.10337448120117,-0.32732433080673,-1.36349689960480,-0.12330693006516
515,1049472526,-1.20462894439697,-1.60378372669220,10.35916614532471,0.48153305053711,0.03132946044207,9.53913307189941,5.58577346801758,0.80024003982544,-1.49053072929382
516,1049480859,-1.19355523586273,-1.59767472743988,10.36094856262207,0.66960853338242,2.24531722068787,10.30529403686523,2.60486507415771,0.94447368383408,-0.06473997235298
517,1049489192,-1.22425448894501,-1.59971439838409,10.35637474060059,1.44160008430481,-0.27901300787926,9.74873352050781,-2.41576838493347,-0.03023760765791,-0.59006232023239
518,1049497525,-1.21578788757324,-1.59533107280731,10.35813808441162,0.69729846715927,-2.42223906517029,10.05202007293701,2.29201292991638,0.73735702037811,-0.07037511467934
519,1049505858,-1.19575393199921,-1.59214961528778,10.35802555084229,-1.08309936523438,0.94373047351837,9.91151714324951,3.67377233505249,0.59619683027267,-0.04373630136251
520,1049514191,-1.22250688076019,-1.59197509288788,10.35785865783691,-1.97905671596527,1.53716707229614,10.40823650360107,-1.94175112247467,0.23759762942791,-0.31363347172737
521,1049522524,-1.24958360195160,-1.59540045261383,10.35754871368408,-0.63452768325806,-2.27242922782898,9.75863265991211,-1.97612524032593,-0.20249332487583,-0.14002020657063
522,1049530857,-1.23199534416199,-1.59612596035004,10.34999465942383,0.73710250854492,-1.73341584205627,9.25343608856201,3.35531139373779,0.14974083006382,-1.20160222053528
523,1049539190,-1.22022616863251,-1.59988117218018,10.35112857818604,2.05692362785339,1.46132755279541,10.02110481262207,2.69528365135193,-0.26552999019623,0.13747160136700
524,1049547523,-1.24149954319000,-1.60457563400269,10.34796047210693,2.87821817398071,0.00898397061974,9.90647983551025,-1.29373645782471,-0.33983683586121,-0.68555212020874
525,1049555856,-1.24442565441132,-1.60476553440094,10.35572719573975,2.56223416328430,-2.30287218093872,9.42007255554199,0.95372045040131,0.15816791355610,0.94416642189026
526,1049564189,-1.20834517478943,-1.59699571132660,10.35454559326172,0.27597066760063,0.01581373251975,9.69907951354980,5.59619808197021,1.15135991573334,-0.41401568055153
527,1049572522,-1.20534861087799,-1.59520840644836,10.36021518707275,-1.97528159618378,1.60286474227905,9.87263488769531,1.66951024532318,0.42862859368324,0.76637786626816
528,1049580855,-1.21586966514587,-1.59657108783722,10.35663604736328,-2.80751276016235,-0.57559645175934,9.81008815765381,-0.00435442011803,0.06115398555994,-0.72529262304306
529,1049589188,-1.20360791683197,-1.59339070320129,10.35741043090820,-2.46560478210449,-1.18598926067352,9.56363677978516,2.75044369697571,0.59656834602356,0.06320312619209
530,1049597521,-1.19504845142365,-1.59816205501556,10.34843635559082,-1.72938454151154,1.13935983181000,10.78735351562500,2.26604008674622,-0.33351013064384,-1.38064563274384
531,1049605854,-1.20363867282867,-1.59941685199738,10.35101509094238,-1.00129067897797,1.43071877956390,10.67066097259521,0.26436451077461,0.02620336040854,0.33744192123413
532,1049614187,-1.22015786170959,-1.59285855293274,10.34784412384033,-0.44573655724525,-0.99891597032547,9.80428028106689,-0.72298741340637,1.01159584522247,-0.65708190202713
533,1049622520,-1.21661806106567,-1.58703029155731,10.35188007354736,-0.87214374542236,-1.11563742160797,9.91843318939209,1.70620250701904,0.85386329889297,0.51590913534164
534,1049630853,-1.21047413349152,-1.59852838516235,10.34566593170166,-1.70560395717621,0.16645483672619,10.25646495819092,1.98533344268799,-1.14691567420959,-1.06669199466705
535,1049639186,-1.22104525566101,-1.59635818004608,10.35089015960693,-2.31370878219604,-0.31431767344475,8.39762401580811,0.02615213394165,0.40232279896736,0.62532037496567
536,1049647519,-1.22003948688507,-1.59700953960419,10.34764194488525,-2.02689385414124,-1.96087324619293,9.98190689086914,1.37986433506012,0.14556568861008,-0.68470686674118
537,1049655852,-1.19277513027191,-1.58927667140961,10.34423255920410,-2.05239248275757,-0.50418287515640,9.87028121948242,4.53410434722900,1.06849789619446,-0.46690911054611
538,1049664185,-1.18782579898834,-1.59433686733246,10.34644031524658,-1.53464436531067,1.15507781505585,10.55322360992432,1.87124800682068,-0.39629060029984,-0.04094435274601
539,1049672518,-1.19793725013733,-1.60060012340546,10.34732437133789,-1.21514642238617,-0.57755631208420,9.74502563476562,0.07451181113720,-0.64415949583054,0.00345792155713
540,1049680851,-1.19741475582123,-1.60776984691620,10.34713745117188,-1.91812050342560,-1.08576607704163,10.16792488098145,1.33163285255432,-0.64369851350784,-0.33527752757072
541,1049689184,-1.19501125812531,-1.60479986667633,10.34243583679199,-2.76261544227600,1.15450084209442,10.56561374664307,1.55176150798798,0.45872533321381,-0.65978419780731
542,1049697517,-1.21244013309479,-1.61143767833710,10.34274673461914,-1.47213375568390,1.16522669792175,9.70119380950928,-0.82007813453674,-0.58117419481277,-0.27165174484253
543,1049705850,-1.22365999221802,-1.61736774444580,10.33559894561768,0.47488439083099,-1.02585363388062,9.10609817504883,-0.09554109722376,-0.62644731998444,-1.03955376148224
544,1049714183,-1.22551488876343,-1.61979746818542,10.33058643341064,2.56615400314331,-0.56569689512253,9.10358810424805,1.02947449684143,-0.06316471099854,-0.90072458982468
545,1049722516,-1.23178553581238,-1.62386119365692,10.31946659088135,3.96600890159607,0.55134809017181,10.06410694122314,0.48077914118767,-0.39915937185287,-1.54508888721466
546,1049730849,-1.24894547462463,-1.62568449974060,10.31953620910645,4.84166622161865,-0.43317615985870,9.16902160644531,-0.78876465559006,-0.00253580906428,-0.29064473509789
547,1049739182,-1.25335752964020,-1.61886370182037,10.30943489074707,4.45568895339966,-1.36266374588013,9.23248291015625,0.70247036218643,0.93924844264984,-1.45810306072235
548,1049747515,-1.23977565765381,-1.61339521408081,10.31167888641357,3.39630961418152,-0.31825658679008,10.13526535034180,2.90693378448486,0.86760532855988,-0.01054025720805
549,1049755848,-1.23627567291260,-1.61397707462311,10.30762004852295,2.91678977012634,0.75360220670700,10.04379749298096,1.68149757385254,0.08255467563868,-0.73652452230453
550,1049764181,-1.24767017364502,-1.61597514152527,10.30515480041504,3.35802364349365,-0.64872711896896,9.80264186859131,-0.10631188750267,-0.01671328954399,-0.59436559677124
551,1049772514,-1.24009215831757,-1.61691784858704,10.30427074432373,4.10079860687256,-0.85160928964615,10.40453147888184,2.17467403411865,0.06388189643621,-0.41281178593636
552,1049780847,-1.23490345478058,-1.61846315860748,10.30980682373047,4.79935836791992,0.87071639299393,10.58087921142578,1.91235864162445,0.01682855188847,0.36710318922997
553,1049789180,-1.24448585510254,-1.61941814422607,10.30020332336426,5.33682203292847,0.47708031535149,10.11757469177246,0.08885579556227,0.12248727679253,-1.50925481319427
554,1049797513,-1.25370562076569,-1.62052500247955,10.30846500396729,5.20735549926758,-1.05925738811493,9.58959484100342,0.19182501733303,0.06242189183831,0.69447869062424
555,1049805846,-1.24769055843353,-1.61762464046478,10.30816555023193,4.35032272338867,-0.48175913095474,8.99030399322510,1.98410427570343,0.60964441299438,-0.38654440641403
556,1049814179,-1.23721516132355,-1.61154603958130,10.32185935974121,3.05110812187195,0.56807929277420,10.05908203125000,2.57256531715393,0.91020178794861,1.36634004116058
557,1049822512,-1.23380506038666,-1.60872340202332,10.32409572601318,1.69451510906219,-0.26238900423050,9.17138767242432,1.68846476078033,0.64074003696442,-0.02795793488622
558,1049830845,-1.22658777236938,-1.59996831417084,10.33764743804932,0.23395948112011,-1.14404010772705,9.36018657684326,2.18139815330505,1.23180139064789,1.35444235801697
559,1049839178,-1.20276331901550,-1.60096192359924,10.33585739135742,-1.05766630172729,0.14490471780300,10.37177276611328,4.12086915969849,0.21188093721867,-0.48956486582756
560,1049847511,-1.20151686668396,-1.60593211650848,10.34541034698486,-1.84882092475891,0.67391961812973,10.05697345733643,1.45177626609802,-0.40547329187393,0.83852028846741
561,1049855844,-1.20402419567108,-1.60106098651886,10.34011554718018,-2.82929968833923,-0.56719154119492,9.91738891601562,0.95370763540268,0.91554236412048,-0.82237064838409
562,1049864177,-1.19446969032288,-1.59620153903961,10.34250831604004,-3.43844676017761,-0.56744444370270,10.09155273437500,2.42364454269409,0.79222267866135,0.00504600442946
563,1049872510,-1.19050085544586,-1.59555339813232,10.33740425109863,-3.72736477851868,0.55988842248917,10.20891094207764,1.72729587554932,0.38275352120399,-0.88442111015320
564,1049880843,-1.20068478584290,-1.59411382675171,10.34381103515625,-4.13568067550659,0.02230971679091,9.56134796142578,0.07000371068716,0.37235412001610,0.47847396135330
565,1049889176,-1.20712816715240,-1.58963143825531,10.34120082855225,-4.12563085556030,-1.26907885074615,9.72669315338135,0.48467251658440,0.79542440176010,-0.52995848655701
566,1049897509,-1.20098340511322,-1.59159290790558,10.34235095977783,-4.05263328552246,-0.56446874141693,9.95966339111328,2.01125526428223,-0.02239964716136,-0.16099826991558
567,1049905842,-1.19697928428650,-1.58965206146240,10.33800983428955,-4.03531694412231,0.64692777395248,10.06601428985596,1.73974442481995,0.44968348741531,-0.70554411411285
568,1049914175,-1.20280003547668,-1.58804869651794,10.34248828887939,-4.08367967605591,-0.30221477150917,10.18755817413330,0.58564382791519,0.39607289433479,0.24876542389393
569,1049922508,-1.20264828205109,-1.58873260021210,10.33875179290771,-4.03313827514648,-1.32847595214844,10.18112659454346,1.27307868003845,0.09315897524357,-0.72873783111572
570,1049930841,-1.19456005096436,-1.59328472614288,10.33828544616699,-4.12741184234619,-0.51594913005829,10.03667259216309,2.23847913742065,-0.32895076274872,-0.36084052920341
571,1049939174,-1.20010912418365,-1.59626889228821,10.33827304840088,-3.61609125137329,0.69818186759949,9.88105869293213,0.60795390605927,-0.23453675210476,-0.28568837046623
572,1049947507,-1.22118759155273,-1.60079300403595,10.34120368957520,-2.68997669219971,-0.55150562524796,9.73604202270508,-1.24916791915894,-0.33440667390823,0.04564456641674
573,1049955840,-1.21949291229248,-1.60653483867645,10.33526039123535,-0.89629203081131,-1.15333700180054,9.82086944580078,1.45299303531647,-0.58985739946365,-1.01597583293915
574,1049964173,-1.21382653713226,-1.61252474784851,10.33251094818115,0.32125249505043,0.84182620048523,9.43525505065918,1.94091868400574,-0.49485421180725,-0.63732057809830
575,1049972506,-1.23580205440521,-1.61432361602783,10.32791709899902,1.67054641246796,0.70387548208237,9.59796333312988,-1.37752068042755,-0.13712580502033,-0.90173631906509
576,1049980839,-1.24680054187775,-1.61712312698364,10.31732559204102,2.95517563819885,-1.29259741306305,9.42144584655762,-0.08475749939680,-0.09300529211760,-1.57199692726135
577,1049989172,-1.23607385158539,-1.61598765850067,10.31582164764404,3.61868381500244,-0.10083088278770,9.35736274719238,2.54965400695801,0.21366114914417,-0.46105623245239
578,1049997505,-1.23862552642822,-1.61897015571594,10.30901718139648,3.71859121322632,0.97099840641022,9.94675159454346,0.93932521343231,-0.12369114160538,-1.11772835254669
579,1050005838,-1.25390052795410,-1.62008047103882,10.30788326263428,4.30229902267456,-0.16269856691360,9.87702465057373,-0.56764978170395,-0.02237403206527,-0.56224519014359
580,1050014171,-1.25638508796692,-1.62019789218903,10.30151653289795,4.91436815261841,-1.12152278423309,9.59923648834229,0.94931489229202,0.21797712147236,-1.05711221694946
581,1050022504,-1.25057482719421,-1.62017595767975,10.32462978363037,5.21592235565186,0.59514594078064,10.90456390380859,2.03558897972107,0.08852279931307,2.25003123283386
582,1050030837,-1.26465153694153,-1.62171423435211,10.30470180511475,5.36579751968384,0.27644792199135,9.88822937011719,-0.48714429140091,0.08439890295267,-2.68853402137756
583,1050039170,-1.27822554111481,-1.61855852603912,10.30274009704590,6.29017448425293,-1.44751334190369,9.33464622497559,-0.37369886040688,0.57437354326248,-0.68281137943268
584,1050047503,-1.27505469322205,-1.62433588504791,10.30614280700684,6.01223421096802,-1.23023068904877,10.16108894348145,1.66182589530945,-0.48594036698341,0.10040779411793
585,1050055836,-1.27045524120331,-1.62349450588226,10.30677986145020,6.40912055969238,2.04922628402710,10.30438995361328,1.81876456737518,0.34156587719917,-0.42536282539368
586,1050064169,-1.27140903472900,-1.62480580806732,10.30530166625977,6.98823451995850,-1.27372825145721,9.69790363311768,1.14956688880920,0.06288294494152,-0.47395297884941
587,1050072502,-1.25164258480072,-1.62511646747589,10.31084918975830,7.45152187347412,-0.94066023826599,8.97579574584961,3.65007948875427,0.24643453955650,0.17945332825184
588,1050080835,-1.24110627174377,-1.61760807037354,10.32676696777344,5.07776069641113,0.43035450577736,9.79438304901123,2.58857440948486,1.07543921470642,1.63531506061554
589,1050089168,-1.23737466335297,-1.61033558845520,10.31974029541016,4.22987174987793,1.03672623634338,9.94253826141357,1.68825995922089,1.25138354301453,-1.38085055351257
590,1050097501,-1.22746562957764,-1.60361111164093,10.34208774566650,1.58413040637970,-1.08506536483765,9.68696212768555,2.53491282463074,0.96609216928482,2.40435695648193
591,1050105834,-1.21125030517578,-1.59823071956635,10.33652019500732,-0.10574838519096,0.40717348456383,9.73315238952637,3.18712806701660,1.05725324153900,-1.05902063846588
592,1050114167,-1.21000957489014,-1.59275531768799,10.34957122802734,-2.37466645240784,0.34850981831551,9.99370384216309,1.46326458454132,0.83932733535767,1.28460514545441
593,1050122500,-1.21969902515411,-1.59130501747131,10.34762382507324,-2.33900117874146,-0.35188409686089,9.39354991912842,0.09482389688492,0.57578241825104,-0.53821909427643
594,1050130833,-1.21362829208374,-1.58811616897583,10.35268211364746,-2.69317078590393,-1.63542819023132,8.96409225463867,2.01420092582703,0.58628410100937,0.32035723328590
595,1050139166,-1.20164763927460,-1.58388435840607,10.34684371948242,-2.61073994636536,0.27497670054436,10.33582687377930,2.68647193908691,0.88947993516922,-0.82294690608978
596,1050147499,-1.21266913414001,-1.58386445045471,10.35719203948975,-4.20892524719238,0.06001962348819,10.04623222351074,-0.01822452992201,0.19348995387554,0.94803410768509
597,1050155832,-1.21693944931030,-1.57996249198914,10.35356140136719,-5.15039730072021,-1.01533889770508,9.83809852600098,0.74842238426208,0.81542927026749,-0.50594520568848
598,1050164165,-1.19816255569458,-1.57654118537903,10.36260604858398,-7.42285108566284,-1.28611660003662,9.98435306549072,3.55441045761108,0.60439348220825,0.80085462331772
599,1050172498,-1.18653368949890,-1.57836914062500,10.34284591674805,-8.37214756011963,0.47661024332047,10.07573890686035,2.60441708564758,0.12531766295433,-2.51516437530518
600,1050180831,-1.18762016296387,-1.57675075531006,10.36421680450439,-9.00624370574951,0.31148624420166,10.50825309753418,1.20956826210022,0.35756191611290,2.27435207366943
601,1050189164,-1.19338417053223,-1.58016359806061,10.34209156036377,-7.86958265304565,-0.64447122812271,10.61553096771240,0.51046609878540,-0.13302753865719,-2.81030416488647
602,1050197497,-1.18524456024170,-1.58329761028290,10.36095428466797,-6.90702390670776,-0.51440316438675,10.61450767517090,2.30848264694214,-0.20577196776867,1.96041119098663
603,1050205830,-1.18363213539124,-1.58471894264221,10.33246231079102,-5.86046409606934,0.64363032579422,10.33325004577637,1.37602221965790,0.04661789909005,-3.56564188003540
604,1050214163,-1.20238769054413,-1.58696925640106,10.35672092437744,-5.12583684921265,0.46097066998482,9.99521541595459,-0.90110880136490,-0.11577633768320,2.61023163795471
605,1050222496,-1.22189509868622,-1.59294354915619,10.33252429962158,-3.71886038780212,-1.44309401512146,9.87069320678711,-1.14706945419312,-0.56601059436798,-3.03214907646179
606,1050230829,-1.21481525897980,-1.59079229831696,10.34189510345459,-2.47094678878784,-0.26744234561920,9.05706691741943,2.15032768249512,0.45054158568382,0.83647125959396
607,1050239162,-1.21173512935638,-1.58252751827240,10.31997013092041,-0.36337792873383,0.47474315762520,8.68818759918213,1.56807792186737,1.09874844551086,-2.91696214675903
608,1050247495,-1.22613286972046,-1.59682071208954,10.33239936828613,1.14969027042389,-0.58697032928467,10.70916748046875,-0.41702532768250,-1.52947700023651,1.16104197502136
609,1050255828,-1.21586084365845,-1.60450339317322,10.31150341033936,2.19576382637024,-0.72033947706223,10.16945743560791,2.43496584892273,-0.83057993650436,-2.73246216773987
610,1050264161,-1.19999802112579,-1.60245299339294,10.33211994171143,2.11360549926758,0.38605654239655,9.33877086639404,3.24282622337341,0.41066020727158,2.18413829803467
611,1050272494,-1.21515870094299,-1.60423731803894,10.31176090240479,1.62587130069733,0.22049534320831,9.80464267730713,-0.61681640148163,-0.10857874900103,-2.78173160552979
612,1050280827,-1.24042201042175,-1.61358606815338,10.32540798187256,1.56055641174316,-1.36489117145538,9.96271419525146,-1.71660184860229,-0.94115662574768,1.31918418407440
613,1050289160,-1.23014414310455,-1.61745250225067,10.30323123931885,2.51359820365906,-0.36159366369247,9.60144233703613,2.42502760887146,-0.33566173911095,-3.06119561195374
614,1050297493,-1.23581230640411,-1.62174320220947,10.31860828399658,3.35730314254761,0.74426764249802,10.26197052001953,0.64152133464813,-0.33759561181068,1.53942823410034
615,1050305826,-1.25526344776154,-1.62760233879089,10.29345989227295,5.11935234069824,0.27783745527267,9.88533306121826,-1.14870858192444,-0.55120551586151,-3.42015337944031
616,1050314159,-1.26703226566315,-1.63739907741547,10.30886363983154,7.24574708938599,-1.67375349998474,8.80646038055420,-0.08999561518431,-0.99996691942215,1.52729988098145
617,1050322492,-1.25412750244141,-1.63691353797913,10.30095386505127,7.30781173706055,-0.10896584391594,8.97485923767090,2.78552246093750,0.20145595073700,-1.35446798801422
618,1050330825,-1.25441002845764,-1.63248848915100,10.31503868103027,5.53084564208984,0.97862905263901,10.65255165100098,1.28422093391418,0.70989847183228,1.40709245204926
619,1050339158,-1.25648295879364,-1.62999784946442,10.30462074279785,4.09347343444824,0.00365315191448,10.01198577880859,0.98245954513550,0.50933903455734,-1.77682101726532
620,1050347491,-1.24306237697601,-1.62173843383789,10.32036781311035,3.09630203247070,-0.68279147148132,9.40865039825439,2.93457150459290,1.16644656658173,1.61861467361450
621,1050355824,-1.22169435024261,-1.61228990554810,10.31151390075684,2.30694556236267,0.40421795845032,10.17536449432373,3.79631185531616,1.37591993808746,-1.48558723926544
622,1050364157,-1.22749841213226,-1.61052811145782,10.31950473785400,2.79129672050476,-0.12957374751568,9.88826847076416,0.60050004720688,0.40790665149689,0.66881322860718
623,1050372490,-1.23089838027954,-1.60814023017883,10.30852222442627,3.96814894676208,-0.75288689136505,9.03839778900146,0.81778568029404,0.55398464202881,-1.74503374099731
624,1050380823,-1.22531390190125,-1.60727965831757,10.32685565948486,4.39946889877319,-0.56450051069260,9.99791622161865,2.00234150886536,0.27176705002785,1.90746653079987
625,1050389156,-1.22746121883392,-1.60207593441010,10.31909847259521,2.31660056114197,0.42545482516289,11.11149215698242,0.98035925626755,0.90858805179596,-1.38136303424835
626,1050397489,-1.23065567016602,-1.60001850128174,10.34014129638672,0.72553032636642,-0.26899626851082,9.57963275909424,0.95753705501556,0.40849581360817,2.23578977584839
627,1050405822,-1.21999418735504,-1.59561049938202,10.34131622314453,-0.97051787376404,-0.45473498106003,9.88937568664551,2.54595279693604,0.81609517335892,-0.30113375186920
628,1050414155,-1.20866620540619,-1.59721231460571,10.35119342803955,-2.41293287277222,-0.48261532187462,9.43033981323242,2.66316342353821,-0.00165211828426,0.88743084669113
629,1050422488,-1.20108258724213,-1.59793961048126,10.35201549530029,-2.15148496627808,0.36331573128700,9.28594779968262,2.17818307876587,0.19346429407597,-0.30149233341217
630,1050430821,-1.19972050189972,-1.59930610656738,10.35463142395020,-1.96324801445007,-0.83886396884918,9.61367797851562,1.44282424449921,0.04643860459328,0.01836540549994
631,1050439154,-1.19344615936279,-1.59921526908875,10.35069656372070,-1.71965909004211,-0.87163281440735,9.66039943695068,2.00387835502625,0.28354954719543,-0.88173156976700
632,1050447487,-1.17643380165100,-1.59280097484589,10.35393428802490,-3.12980127334595,1.05440855026245,10.56099033355713,3.32313990592957,0.97874563932419,0.11224156618118
633,1050455820,-1.18652713298798,-1.59411942958832,10.35542964935303,-4.32522392272949,0.11526806652546,10.00013923645020,0.06237066164613,0.08357923477888,-0.26710519194603
634,1050464153,-1.19610869884491,-1.58977544307709,10.36021041870117,-6.21710109710693,-0.96451079845428,10.47905826568604,0.13519191741943,0.72516453266144,0.29028612375259
635,1050472486,-1.18876254558563,-1.58274531364441,10.35570907592773,-6.77302980422974,-0.41727143526077,9.91247367858887,2.13164210319519,1.06790864467621,-0.89049160480499
636,1050480819,-1.18968284130096,-1.58450937271118,10.35577011108398,-6.00356006622314,0.46597194671631,10.50688934326172,1.16081142425537,0.00484109017998,-0.29060629010201
637,1050489152,-1.20073890686035,-1.58730828762054,10.35296821594238,-3.80392432212830,0.06403955072165,9.88435649871826,-0.06762157380581,-0.16805499792099,-0.71343326568604
638,1050497485,-1.20330023765564,-1.59567558765411,10.35625743865967,-1.76552903652191,-1.11931264400482,10.04447269439697,0.97231626510620,-0.79684603214264,0.08024939894676
639,1050505818,-1.19578814506531,-1.59833943843842,10.34626483917236,-0.32488894462585,-0.23594690859318,9.35591506958008,2.13241076469421,-0.17272959649563,-1.59232175350189
640,1050514151,-1.19802701473236,-1.60060536861420,10.35013198852539,-0.40116003155708,0.09070520102978,9.32843780517578,1.01422119140625,-0.06512418389320,0.16531427204609
641,1050522484,-1.21803569793701,-1.60288453102112,10.34486293792725,-1.22852933406830,-1.01173388957977,9.77946662902832,-1.15152621269226,-0.14893397688866,-1.07870507240295
642,1050530817,-1.21383726596832,-1.60769939422607,10.34679031372070,-1.56052148342133,-1.23504614830017,9.98710727691650,1.77957475185394,-0.36624518036842,-0.07503691315651
643,1050539150,-1.20228838920593,-1.60885417461395,10.34297466278076,-1.05956590175629,0.49681687355042,9.18456268310547,2.63990545272827,-0.02140069007874,-0.98856848478317
644,1050547483,-1.21483027935028,-1.61161780357361,10.34446716308594,0.27035629749298,0.40506559610367,9.83012199401855,-0.23043844103813,-0.11888846009970,-0.12175726145506
645,1050555816,-1.22695207595825,-1.61764585971832,10.33886909484863,2.39211106300354,-0.61374992132187,10.11704540252686,-0.20469616353512,-0.61360180377960,-1.17593669891357
646,1050564149,-1.22841978073120,-1.62714183330536,10.33916568756104,3.45792055130005,-0.21171703934669,9.97219276428223,1.09467566013336,-0.92322677373886,-0.28192308545113
647,1050572482,-1.23416697978973,-1.62807250022888,10.33283901214600,3.88495230674744,1.29301941394806,9.78048992156982,0.55617469549179,0.00928515940905,-1.26134741306305
648,1050580815,-1.24949538707733,-1.62470340728760,10.32790660858154,3.83299374580383,0.23537093400955,9.97463989257812,-0.58637386560440,0.63249236345291,-0.87494391202927
649,1050589148,-1.25587308406830,-1.62642431259155,10.32256698608398,4.61630201339722,-1.47626805305481,8.99662494659424,0.47340229153633,-0.05728623270988,-1.25818395614624
650,1050597481,-1.25604271888733,-1.62950956821442,10.32196044921875,4.75881481170654,-0.86354839801788,9.06112861633301,1.24764370918274,-0.15275049209595,-0.37410870194435
651,1050605814,-1.25376498699188,-1.62944006919861,10.32303905487061,5.63231992721558,0.36090382933617,10.23398590087891,1.53964602947235,0.16974553465843,-0.46112021803856
652,1050614147,-1.25251984596252,-1.62687337398529,10.32565116882324,6.28553915023804,0.28896769881248,10.58395481109619,1.42794227600098,0.51786857843399,0.02761214412749
653,1050622480,-1.22739005088806,-1.61641216278076,10.32642269134521,6.01553153991699,-0.38218167424202,10.20526409149170,4.27975463867188,1.45445311069489,-0.49913182854652
654,1050630813,-1.21859514713287,-1.61749780178070,10.34050655364990,4.32330465316772,-0.14853769540787,10.04443931579590,2.37331247329712,0.04894880205393,1.39292776584625
655,1050639146,-1.23035299777985,-1.61415767669678,10.33683013916016,2.80898571014404,0.47308188676834,9.80430889129639,-0.16166426241398,0.65534019470215,-0.99092513322830
656,1050647479,-1.23578107357025,-1.60932493209839,10.34413146972656,1.59869611263275,-0.98170626163483,9.83996582031250,0.64317345619202,0.77613693475723,0.59514677524567
657,1050655812,-1.22340881824493,-1.61051738262177,10.34803771972656,1.46656179428101,-0.58022922277451,9.84416007995605,2.75616860389709,0.11680091917515,-0.14936940371990
658,1050664145,-1.21925961971283,-1.61129164695740,10.35496711730957,1.53382110595703,0.93088513612747,9.84994029998779,1.78994834423065,0.10553064942360,0.53608030080795
659,1050672478,-1.22305285930634,-1.61498963832855,10.35911846160889,2.87178063392639,-0.43093731999397,9.41937160491943,0.82034718990326,-0.17631559073925,-0.14337570965290
660,1050680811,-1.21373105049133,-1.61202347278595,10.37008571624756,2.45245647430420,-0.96984416246414,9.65724086761475,2.42587280273438,0.54389262199402,1.02999961376190
661,1050689144,-1.20385599136353,-1.61326467990875,10.37319755554199,0.98361438512802,0.06610971689224,9.54922962188721,2.45602107048035,0.13485895097256,-0.20948602259159
662,1050697477,-1.20437455177307,-1.60912048816681,10.37937545776367,-1.52314066886902,0.14946579933167,9.52863121032715,1.22728037834167,0.69747561216354,0.45770075917244
663,1050705810,-1.19900679588318,-1.59912610054016,10.38350772857666,-3.70618486404419,-0.39231726527214,9.53473281860352,1.92368006706238,1.48649656772614,0.04185366258025
664,1050714143,-1.18654966354370,-1.59373998641968,10.38217926025391,-4.97467613220215,-0.82630378007889,9.93763065338135,2.75883245468140,0.86553061008453,-0.43996286392212
665,1050722476,-1.18286049365997,-1.60009729862213,10.38279056549072,-4.92298507690430,0.38954028487206,10.17788505554199,1.70849502086639,-0.48547938466072,-0.45284682512283
666,1050730809,-1.19235134124756,-1.60052037239075,10.38279819488525,-4.22311735153198,0.25449815392494,10.39174365997314,0.13058134913445,0.16421283781528,-0.29467895627022
667,1050739142,-1.19629168510437,-1.59552717208862,10.38287639617920,-3.27413511276245,-0.50474035739899,10.49313449859619,0.79155665636063,0.83781605958939,-0.46913751959801
668,1050747475,-1.19054865837097,-1.59485125541687,10.38309288024902,-2.93057918548584,-0.32765832543373,10.01026725769043,1.96005237102509,0.29692021012306,-0.26536348462105
669,1050755808,-1.19726467132568,-1.59600126743317,10.38270854949951,-2.99674081802368,0.46096497774124,9.85875606536865,0.45379456877708,0.07560041546822,-0.60275423526764
670,1050764141,-1.21249353885651,-1.59416437149048,10.38528442382812,-3.35258746147156,-0.76554018259048,9.66209602355957,-0.55010402202606,0.43039596080780,0.01982541568577
671,1050772474,-1.21262228488922,-1.59584271907806,10.38513278961182,-2.87311816215515,-1.49701130390167,9.54633426666260,1.24457001686096,-0.01276869513094,-0.53947418928146
672,1050780807,-1.20210647583008,-1.59585273265839,10.39037609100342,-2.13895726203918,0.43873521685600,9.92949581146240,2.54966664314270,0.20163525640965,0.33505979180336
673,1050789140,-1.21797847747803,-1.60120689868927,10.39418601989746,-0.84440016746521,-0.11400909721851,9.77435111999512,-0.62743347883224,-0.48570990562439,-0.13738194108009
674,1050797473,-1.21543765068054,-1.60535359382629,10.38514709472656,0.79790043830872,-1.57903206348419,9.58463954925537,1.54464077949524,-0.25876781344414,-1.38835537433624
675,1050805806,-1.19982326030731,-1.60866522789001,10.37980270385742,0.92613893747330,0.23345963656902,9.65976810455322,3.11809802055359,-0.22867107391357,-1.24035656452179
676,1050814139,-1.21312928199768,-1.61180329322815,10.38015651702881,1.35406947135925,1.63114869594574,9.91304492950439,-0.32679921388626,-0.16233019530773,-0.25948497653008
677,1050822472,-1.23491966724396,-1.61261606216431,10.37176322937012,1.77260208129883,-1.03348577022552,9.75751590728760,-1.37857079505920,0.08442451059818,-1.63494372367859
678,1050830805,-1.22870504856110,-1.61796116828918,10.37130260467529,2.73492312431335,-0.84278279542923,9.65639591217041,2.01422643661499,-0.42387714982033,-0.36101981997490
679,1050839138,-1.22458088397980,-1.61920654773712,10.36716461181641,3.25352716445923,0.80636030435562,9.82659339904785,1.74130678176880,0.03076269477606,-1.11535906791687
680,1050847471,-1.24590587615967,-1.62087106704712,10.36794853210449,4.42804622650146,1.17536234855652,10.09538650512695,-1.28607785701752,0.01434397138655,-0.20354352891445
681,1050855804,-1.25837504863739,-1.62501049041748,10.35316371917725,5.92386150360107,-1.77197182178497,9.52112293243408,-0.28731489181519,-0.26710522174835,-2.42915177345276
682,1050864137,-1.24448847770691,-1.62107336521149,10.36866664886475,6.30017757415771,-0.50252383947372,10.02403068542480,2.98816967010498,0.64769440889359,1.57633864879608
683,1050872470,-1.23744189739227,-1.62032520771027,10.35967540740967,5.54390573501587,1.24114632606506,10.03979873657227,2.07518839836121,0.33598190546036,-1.71916329860687
684,1050880803,-1.25395381450653,-1.61479425430298,10.36520957946777,5.18868637084961,-0.61467242240906,9.74991130828857,-0.69385117292404,0.86504387855530,0.38467457890511
685,1050889136,-1.24228715896606,-1.61198759078979,10.36453914642334,4.07254409790039,-2.09710168838501,9.86991405487061,2.65381383895874,0.59957796335220,-0.72561275959015
686,1050897469,-1.22124981880188,-1.60965156555176,10.38564109802246,3.22454428672791,0.61097067594528,9.85084152221680,3.86608481407166,0.44271644949913,2.24311542510986
687,1050905802,-1.22056543827057,-1.60906553268433,10.38039398193359,2.69362211227417,0.77566510438919,10.09657001495361,1.32998061180115,0.37075325846672,-1.19213771820068
688,1050914135,-1.22539734840393,-1.61086475849152,10.40025043487549,2.52322196960449,-0.81454396247864,9.78427886962891,0.75681108236313,-0.04984530806541,2.08306503295898
689,1050922468,-1.21458899974823,-1.60816884040833,10.39621734619141,1.48245739936829,-0.68772500753403,9.85090065002441,2.53980541229248,0.64199519157410,-1.15366518497467
690,1050930801,-1.20636868476868,-1.60447347164154,10.41083145141602,0.45411002635956,0.73775202035904,9.75698375701904,2.30616474151611,0.62241303920746,1.46883547306061
691,1050939134,-1.21505570411682,-1.60541987419128,10.40670299530029,-0.30853083729744,0.39460068941116,9.63716125488281,0.20712952315807,0.21184255182743,-1.04641842842102
692,1050947467,-1.21706068515778,-1.59830224514008,10.42213439941406,-0.94926673173904,-1.22762775421143,9.27665233612061,1.07989609241486,1.03046059608459,1.57545471191406
