sep=,
DeviceTag:,Xsens DOT
FirmwareVersion:,3.0.0
AppVersion:,2023.6.0
StartTime: ,2025-03-06_12:26:07_000 PST
© Movella Technologies B. V. 2005-2025

PacketCounter,SampleTimeFine,Euler_X,Euler_Y,Euler_Z,Acc_X,Acc_Y,Acc_Z,Gyr_X,Gyr_Y,Gyr_Z
0,991011697,-1.18401443958282,-1.27858400344849,22.60919380187988,0.00000000000000,0.00000000000000,0.00000000000000,0.00000000000000,0.00000000000000,0.00000000000000
1,991020030,-1.18470692634583,-1.27791702747345,22.61016273498535,0.17383591830730,-0.27588278055191,9.79096126556396,-5.45683097839355,0.17457380890846,-0.17599542438984
2,991028363,-1.18478155136108,-1.27811360359192,22.60995674133301,0.20846140384674,-0.28202328085899,9.77749633789062,-5.40959882736206,0.07388426363468,-0.32811838388443
3,991036696,-1.18559789657593,-1.27776980400085,22.61029052734375,0.21202228963375,-0.25487875938416,9.78681468963623,-5.47399330139160,0.13871389627457,-0.25793537497520
4,991045029,-1.18599712848663,-1.27827990055084,22.61068534851074,0.21660530567169,-0.27339774370193,9.79078197479248,-5.44681596755981,0.03456640988588,-0.25773042440414
5,991053362,-1.18592131137848,-1.27843832969666,22.61044311523438,0.21619544923306,-0.26706618070602,9.79751491546631,-5.36833429336548,0.07990360260010,-0.32945030927658
6,991061695,-1.18680799007416,-1.27856421470642,22.61058044433594,0.21427865326405,-0.28498166799545,9.77827644348145,-5.50547266006470,0.08290047943592,-0.28798085451126
7,991070028,-1.18635034561157,-1.27889978885651,22.61063957214355,0.22385598719120,-0.26495045423508,9.78199291229248,-5.32204866409302,0.05764483660460,-0.29036295413971
8,991078361,-1.18637526035309,-1.27894854545593,22.61095237731934,0.24375437200069,-0.27756211161613,9.81470012664795,-5.40211915969849,0.09104581177235,-0.26618313789368
9,991086694,-1.18590939044952,-1.27979576587677,22.61039352416992,0.24041572213173,-0.26957073807716,9.78357791900635,-5.32289409637451,-0.00238212407567,-0.36464425921440
10,991095027,-1.18553125858307,-1.28001666069031,22.60988998413086,0.22874741256237,-0.28084927797318,9.80319595336914,-5.35606479644775,0.07260355353355,-0.36418321728706
11,991103360,-1.18559050559998,-1.27941858768463,22.61026573181152,0.21672044694424,-0.29837241768837,9.80698871612549,-5.38226795196533,0.16786289215088,-0.25117319822311
12,991111693,-1.18569779396057,-1.27939188480377,22.61079025268555,0.23118752241135,-0.28337988257408,9.81408977508545,-5.41172456741333,0.10021570324898,-0.23931382596493
13,991120026,-1.18579757213593,-1.27985227108002,22.61045455932617,0.24421836435795,-0.28360971808434,9.78241634368896,-5.39097690582275,0.04271173477173,-0.34066933393478
14,991128359,-1.18639338016510,-1.27975404262543,22.61048126220703,0.24669805169106,-0.28460818529129,9.77770423889160,-5.47137975692749,0.11035894602537,-0.29932796955109
15,991136692,-1.18657982349396,-1.27973115444183,22.61069679260254,0.23975761234760,-0.27676832675934,9.79290485382080,-5.39914798736572,0.09939604252577,-0.27297091484070
16,991145025,-1.18725991249084,-1.27954828739166,22.61023521423340,0.22885321080685,-0.28753075003624,9.80503368377686,-5.48288106918335,0.12106567621231,-0.35834312438965
17,991153358,-1.18720805644989,-1.28000319004059,22.61056327819824,0.24521818757057,-0.27844530344009,9.76296138763428,-5.37035751342773,0.04232752323151,-0.26029187440872
18,991161691,-1.18761718273163,-1.27996969223022,22.61011123657227,0.22615310549736,-0.27238577604294,9.83497428894043,-5.45053005218506,0.10262342542410,-0.35665258765221
19,991170024,-1.18726480007172,-1.27967345714569,22.61045455932617,0.21799464523792,-0.28114357590675,9.77622318267822,-5.33272981643677,0.13302752375603,-0.25176230072975
20,991178357,-1.18813967704773,-1.27913606166840,22.61032867431641,0.21766039729118,-0.27240222692490,9.79774570465088,-5.50547218322754,0.16145934164524,-0.31633579730988
21,991186690,-1.18783211708069,-1.27898180484772,22.61021423339844,0.21268524229527,-0.27528846263885,9.79249000549316,-5.34074735641479,0.11727477610111,-0.31193014979362
22,991195023,-1.18813908100128,-1.27962207794189,22.60957336425781,0.20569357275963,-0.27533760666847,9.79038143157959,-5.43864440917969,0.02229718863964,-0.37950050830841
23,991203356,-1.18881726264954,-1.27944719791412,22.60902214050293,0.22746521234512,-0.29156029224396,9.79013347625732,-5.45888042449951,0.12101445347071,-0.36482357978821
24,991211689,-1.18903231620789,-1.27904450893402,22.60876274108887,0.21129459142685,-0.28046336770058,9.77412128448486,-5.42591476440430,0.14744836091995,-0.33362543582916
25,991220022,-1.18876338005066,-1.27893495559692,22.60891532897949,0.20564444363117,-0.25664404034615,9.79837703704834,-5.34479475021362,0.10895014554262,-0.27676180005074
26,991228355,-1.18967151641846,-1.27916407585144,22.60877418518066,0.20971608161926,-0.27465248107910,9.79089832305908,-5.50946855545044,0.07127161324024,-0.32117691636086
27,991236688,-1.18982648849487,-1.27904701232910,22.60843849182129,0.20083798468113,-0.28848451375961,9.78499794006348,-5.39668893814087,0.11374000459909,-0.34248793125153
28,991245021,-1.18988919258118,-1.27924871444702,22.60844230651855,0.18379914760590,-0.29638576507568,9.80340480804443,-5.40765190124512,0.07232180237770,-0.30388727784157
29,991253354,-1.19133579730988,-1.27923893928528,22.60883140563965,0.17687352001667,-0.26848411560059,9.77674579620361,-5.54806947708130,0.09775673598051,-0.24441103637218
30,991261687,-1.19196784496307,-1.27883982658386,22.60796356201172,0.21441532671452,-0.28284943103790,9.78350639343262,-5.47821903228760,0.14916449785233,-0.40542212128639
31,991270020,-1.19200885295868,-1.28009533882141,22.60820960998535,0.19529488682747,-0.27968764305115,9.77586364746094,-5.38052606582642,-0.05565972998738,-0.27181825041771
32,991278353,-1.19250977039337,-1.27973294258118,22.60804939270020,0.22102683782578,-0.27311915159225,9.78017711639404,-5.46064758300781,0.14181321859360,-0.32148429751396
33,991286686,-1.19208991527557,-1.28021979331970,22.60788154602051,0.19439209997654,-0.28839856386185,9.78367137908936,-5.32924652099609,0.04081628099084,-0.31677123904228
34,991295019,-1.19197809696198,-1.27991068363190,22.60829162597656,0.20922635495663,-0.27572536468506,9.78781318664551,-5.38552093505859,0.13371913135052,-0.25393953919411
35,991303352,-1.19141161441803,-1.27988612651825,22.60825157165527,0.20128698647022,-0.26939177513123,9.77915859222412,-5.30880641937256,0.10077920556068,-0.30329817533493
36,991311685,-1.19129776954651,-1.27912950515747,22.60811424255371,0.20078510046005,-0.27968892455101,9.81280422210693,-5.38677597045898,0.18873848021030,-0.31861546635628
37,991320018,-1.19115793704987,-1.28008317947388,22.60836982727051,0.22035475075245,-0.28575617074966,9.81825637817383,-5.35867786407471,-0.01887769252062,-0.26656734943390
38,991328351,-1.19081902503967,-1.27966523170471,22.60853004455566,0.21543237566948,-0.28877770900726,9.78151321411133,-5.35888242721558,0.14793500304222,-0.28444606065750
39,991336684,-1.19105207920074,-1.27904582023621,22.60861015319824,0.20842911303043,-0.30000719428062,9.80708217620850,-5.40398788452148,0.17203800380230,-0.28367763757706
40,991345017,-1.19134414196014,-1.27871155738831,22.60867691040039,0.22594189643860,-0.26761338114738,9.80888938903809,-5.43495655059814,0.13766372203827,-0.29295000433922
41,991353350,-1.19035089015961,-1.27760565280914,22.60879898071289,0.21363818645477,-0.28524675965309,9.81425285339355,-5.25673198699951,0.22918337583542,-0.27412354946136
42,991361683,-1.19081723690033,-1.27744591236115,22.60879516601562,0.23173591494560,-0.27657538652420,9.78787136077881,-5.45529413223267,0.11786389350891,-0.30424585938454
43,991370016,-1.19017314910889,-1.27628290653229,22.60813140869141,0.22199125587940,-0.28362897038460,9.79021358489990,-5.30127620697021,0.23876310884953,-0.36933165788651
44,991378349,-1.19071781635284,-1.27574551105499,22.60856628417969,0.22725628316402,-0.25097787380219,9.80197334289551,-5.46413135528564,0.16138249635696,-0.24994373321533
45,991386682,-1.19054377079010,-1.27584314346313,22.60873222351074,0.22835828363895,-0.27785462141037,9.76913452148438,-5.35598802566528,0.08482153713703,-0.27996361255646
46,991395015,-1.19032430648804,-1.27576911449432,22.60761833190918,0.23687882721424,-0.30613213777542,9.78376102447510,-5.37670993804932,0.10976979881525,-0.43577501177788
47,991403348,-1.19068372249603,-1.27597475051880,22.60838699340820,0.23549872636795,-0.28941130638123,9.78574752807617,-5.41902494430542,0.07119476795197,-0.20686057209969
48,991411681,-1.19110310077667,-1.27644300460815,22.60852241516113,0.23818124830723,-0.28672182559967,9.78075504302979,-5.44999217987061,0.04222506657243,-0.28734052181244
49,991420014,-1.19099712371826,-1.27633643150330,22.60820960998535,0.25104382634163,-0.26837179064751,9.78785228729248,-5.36451721191406,0.11148595064878,-0.33623805642128
50,991428347,-1.19148409366608,-1.27678835391998,22.60800170898438,0.22575534880161,-0.26371651887894,9.80184459686279,-5.45908498764038,0.04483772069216,-0.32911729812622
51,991436680,-1.19104635715485,-1.27770662307739,22.60789489746094,0.23408491909504,-0.28457620739937,9.78936576843262,-5.32558393478394,-0.01267904695123,-0.31298035383224
52,991445013,-1.19078183174133,-1.27792108058929,22.60824394226074,0.23013493418694,-0.29358595609665,9.79075908660889,-5.36743783950806,0.07050319761038,-0.26126521825790
53,991453346,-1.19075810909271,-1.27808725833893,22.60837554931641,0.22803430259228,-0.27966070175171,9.83028411865234,-5.37407112121582,0.07759831845760,-0.28339591622353
54,991461679,-1.19108986854553,-1.27837872505188,22.60877418518066,0.20314621925354,-0.28340870141983,9.80639266967773,-5.43872165679932,0.06266523152590,-0.25647529959679
55,991470012,-1.19120275974274,-1.27741694450378,22.60869598388672,0.22433114051819,-0.30299651622772,9.79331970214844,-5.39161682128906,0.21202182769775,-0.30076235532761
56,991478345,-1.19077718257904,-1.27697253227234,22.60869979858398,0.20857682824135,-0.26525104045868,9.76528549194336,-5.34884166717529,0.15203329920769,-0.30286270380020
57,991486678,-1.19061219692230,-1.27760660648346,22.60852813720703,0.20539180934429,-0.29802554845810,9.81611347198486,-5.35785770416260,0.02283509261906,-0.32025480270386
58,991495011,-1.19000744819641,-1.27710449695587,22.60815811157227,0.20573304593563,-0.30239591002464,9.79696559906006,-5.32847738265991,0.15900035202503,-0.34645810723305
59,991503344,-1.18979835510254,-1.27629888057709,22.60850715637207,0.21230226755142,-0.27336904406548,9.79673385620117,-5.34958457946777,0.19304171204567,-0.25419569015503
60,991511677,-1.18941879272461,-1.27635741233826,22.60856628417969,0.18169634044170,-0.26515361666679,9.79308032989502,-5.35427141189575,0.09027736634016,-0.29768863320351
61,991520010,-1.18991696834564,-1.27704060077667,22.60885620117188,0.20977298915386,-0.26698216795921,9.80644130706787,-5.43347120285034,0.01530450489372,-0.26147013902664
62,991528343,-1.18995857238770,-1.27792227268219,22.60879135131836,0.19307415187359,-0.29293045401573,9.81767559051514,-5.40526914596558,-0.00794041249901,-0.31280106306076
63,991536676,-1.19031429290771,-1.27749323844910,22.60840034484863,0.19811724126339,-0.30043470859528,9.80500030517578,-5.42004919052124,0.15029151737690,-0.34251356124878
64,991545009,-1.19114160537720,-1.27753281593323,22.60774803161621,0.18722037971020,-0.26199495792389,9.79999446868896,-5.50109195709229,0.09391459822655,-0.38162648677826
65,991553342,-1.19171786308289,-1.27806806564331,22.60795402526855,0.21682153642178,-0.29640617966652,9.80618762969971,-5.44609880447388,0.03326008841395,-0.27461025118828
66,991561675,-1.19086766242981,-1.27862179279327,22.60812377929688,0.21193641424179,-0.27982896566391,9.79143524169922,-5.29745864868164,0.03139024227858,-0.28421553969383
67,991570008,-1.19200372695923,-1.27916717529297,22.60832595825195,0.20905573666096,-0.27254489064217,9.77251529693604,-5.51292610168457,0.02995584532619,-0.27486634254456
68,991578341,-1.19199526309967,-1.27938711643219,22.60795783996582,0.21107339859009,-0.29813599586487,9.79681682586670,-5.40004396438599,0.07285968959332,-0.34817427396774
69,991586674,-1.19232368469238,-1.27946019172668,22.60680580139160,0.20415221154690,-0.26975399255753,9.80283737182617,-5.41994667053223,0.09173738211393,-0.43416133522987
70,991595007,-1.19185829162598,-1.28032493591309,22.60676193237305,0.22323590517044,-0.29641547799110,9.80688667297363,-5.34425640106201,-0.00489231850952,-0.31100803613663
71,991603340,-1.19171416759491,-1.28040921688080,22.60608863830566,0.23350739479065,-0.28448596596718,9.78706550598145,-5.36118745803833,0.08912473171949,-0.37463378906250
72,991611673,-1.19219660758972,-1.27957868576050,22.60562133789062,0.22732748091221,-0.26064842939377,9.78453063964844,-5.45923900604248,0.19749857485294,-0.35644772648811
73,991620006,-1.19230592250824,-1.27863407135010,22.60551452636719,0.22924560308456,-0.30335134267807,9.78658866882324,-5.39069509506226,0.21186813712120,-0.30895888805389
74,991628339,-1.19231212139130,-1.27837777137756,22.60662269592285,0.23491679131985,-0.30768844485283,9.76810169219971,-5.39781618118286,0.12595801055431,-0.16977116465569
75,991636672,-1.19216728210449,-1.27758538722992,22.60601997375488,0.23687544465065,-0.29310253262520,9.78792190551758,-5.36103391647339,0.19373326003551,-0.36700075864792
76,991645005,-1.19287407398224,-1.27827477455139,22.60643386840820,0.23789145052433,-0.28083798289299,9.78380584716797,-5.48377752304077,0.01474099233747,-0.25586059689522
77,991653338,-1.19265794754028,-1.27792668342590,22.60714149475098,0.22837814688683,-0.28787764906883,9.76948261260986,-5.34907150268555,0.13622929155827,-0.21016478538513
78,991661671,-1.19232511520386,-1.27723789215088,22.60667991638184,0.23530185222626,-0.29982584714890,9.80201721191406,-5.36123847961426,0.18310333788395,-0.35803574323654
79,991670004,-1.19256401062012,-1.27802515029907,22.60719871520996,0.22622659802437,-0.27634105086327,9.77711105346680,-5.40452718734741,0.00131913321093,-0.23752081394196
80,991678337,-1.19301736354828,-1.27834248542786,22.60742568969727,0.21838437020779,-0.26967063546181,9.76895999908447,-5.45375776290894,0.05959152057767,-0.27781200408936
81,991686670,-1.19253647327423,-1.27823019027710,22.60735893249512,0.24540606141090,-0.27262061834335,9.77495956420898,-5.32035779953003,0.11122981458902,-0.30739644169807
82,991695003,-1.19267499446869,-1.27808713912964,22.60704803466797,0.23061506450176,-0.30094990134239,9.79935646057129,-5.41741085052490,0.11504634469748,-0.34095111489296
83,991703336,-1.19260108470917,-1.27785789966583,22.60686683654785,0.21810299158096,-0.29309016466141,9.78318595886230,-5.36792421340942,0.12516397237778,-0.31725791096687
84,991711669,-1.19284617900848,-1.27795207500458,22.60716819763184,0.21247865259647,-0.26846548914909,9.80868148803711,-5.42860412597656,0.08628155291080,-0.26771998405457
85,991720002,-1.19356358051300,-1.27889752388000,22.60719490051270,0.20714168250561,-0.28881195187569,9.77026176452637,-5.46305465698242,-0.01639310829341,-0.29909738898277
86,991728335,-1.19373738765717,-1.27875459194183,22.60681343078613,0.21571405231953,-0.27402281761169,9.79835700988770,-5.42189359664917,0.11699301749468,-0.34763643145561
87,991736668,-1.19401764869690,-1.27913844585419,22.60664939880371,0.20777599513531,-0.29650667309761,9.81355476379395,-5.41244173049927,0.05101075023413,-0.31592598557472
88,991745001,-1.19370198249817,-1.27976489067078,22.60704231262207,0.21365959942341,-0.27642816305161,9.81862545013428,-5.36113643646240,0.02165683545172,-0.25729501247406
89,991753334,-1.19325530529022,-1.27970957756042,22.60626411437988,0.20939031243324,-0.28084263205528,9.79170799255371,-5.32443141937256,0.10533854365349,-0.38577598333359
90,991761667,-1.19364905357361,-1.27913820743561,22.60623168945312,0.20674709975719,-0.29186683893204,9.81192779541016,-5.44743061065674,0.16604429483414,-0.30511677265167
91,991770000,-1.19384551048279,-1.27799177169800,22.60651969909668,0.18056805431843,-0.28279730677605,9.80163097381592,-5.39973735809326,0.23456238210201,-0.26290452480316
92,991778333,-1.19482886791229,-1.27835738658905,22.60634803771973,0.19544255733490,-0.27055338025093,9.80488967895508,-5.51848459243774,0.05508341640234,-0.32527518272400
93,991786666,-1.17876827716827,-1.28214895725250,22.60203933715820,0.21748213469982,-0.29293474555016,9.79926681518555,-5.34323167800903,0.24242593348026,-0.25163426995277
94,991794999,-1.17901313304901,-1.28213334083557,22.60287475585938,0.20011766254902,-0.28324410319328,9.77700233459473,-5.42711830139160,0.09683461487293,-0.20363317430019
95,991803332,-1.17876243591309,-1.28327929973602,22.60316276550293,0.18296773731709,-0.28410625457764,9.78347969055176,-5.34735536575317,-0.04067540913820,-0.26518416404724
96,991811665,-1.17962074279785,-1.28319978713989,22.60310173034668,0.20620758831501,-0.27323424816132,9.79524707794189,-5.50455045700073,0.10877085477114,-0.30867716670036
97,991819998,-1.17998445034027,-1.28276371955872,22.60210990905762,0.21584151685238,-0.27067232131958,9.79332447052002,-5.42322492599487,0.15213574469090,-0.40465366840363
98,991828331,-1.17988884449005,-1.28371059894562,22.60146903991699,0.21520295739174,-0.28411763906479,9.81207084655762,-5.39164304733276,-0.01342186052352,-0.38234370946884
99,991836664,-1.17996323108673,-1.28369438648224,22.60177230834961,0.22136063873768,-0.28645578026772,9.79169273376465,-5.38605880737305,0.09865322709084,-0.26359611749649
100,991844997,-1.17961037158966,-1.28365302085876,22.60140800476074,0.20875462889671,-0.28958481550217,9.77303028106689,-5.35993194580078,0.10457012057304,-0.34612521529198
101,991853330,-1.17940258979797,-1.28368520736694,22.60130310058594,0.22545579075813,-0.26981824636459,9.77966022491455,-5.35345172882080,0.09306932240725,-0.30422028899193
102,991861663,-1.17937576770782,-1.28446733951569,22.60087394714355,0.25006696581841,-0.28285464644432,9.77157878875732,-5.39925003051758,0.00498196855187,-0.35552558302879
103,991869996,-1.17967057228088,-1.28556299209595,22.60051918029785,0.22885484993458,-0.28637757897377,9.76493263244629,-5.41446495056152,-0.03173603862524,-0.33836406469345
104,991878329,-1.18010282516479,-1.28534722328186,22.60048866271973,0.22124591469765,-0.27009567618370,9.80617809295654,-5.45332193374634,0.12331973761320,-0.30755013227463
105,991886662,-1.17980170249939,-1.28536272048950,22.59994888305664,0.24536035954952,-0.29248708486557,9.79880714416504,-5.34248971939087,0.09757743775845,-0.35941895842552
106,991894995,-1.17984139919281,-1.28583836555481,22.59975814819336,0.22391961514950,-0.29393407702446,9.79383563995361,-5.40667867660522,0.04130295664072,-0.32609483599663
107,991903328,-1.17994940280914,-1.28608489036560,22.59912300109863,0.23884999752045,-0.27809858322144,9.75078868865967,-5.39305162429810,0.07022143155336,-0.37909069657326
108,991911661,-1.17934322357178,-1.28603637218475,22.59930038452148,0.24229232966900,-0.28646308183670,9.76765060424805,-5.32809400558472,0.10416028648615,-0.28142362833023
109,991919994,-1.17901992797852,-1.28487575054169,22.59970664978027,0.24835781753063,-0.27342575788498,9.79972457885742,-5.33803224563599,0.23563817143440,-0.24771527945995
110,991928327,-1.17841160297394,-1.28363227844238,22.59929656982422,0.24767749011517,-0.26694440841675,9.79093647003174,-5.32947683334351,0.24959790706635,-0.34968551993370
111,991936660,-1.17817735671997,-1.28318631649017,22.59938621520996,0.25761711597443,-0.27630627155304,9.79757022857666,-5.35147953033447,0.15088064968586,-0.28454855084419
112,991944993,-1.17824268341064,-1.28383135795593,22.59946632385254,0.22609305381775,-0.27230939269066,9.78553199768066,-5.40900945663452,0.02029928006232,-0.29423069953918
113,991953326,-1.17886984348297,-1.28418767452240,22.59940528869629,0.22139157354832,-0.26713338494301,9.78193664550781,-5.45475625991821,0.05562131479383,-0.30299079418182
114,991961659,-1.17888903617859,-1.28492343425751,22.59965896606445,0.22723028063774,-0.28740262985229,9.79074001312256,-5.40298986434937,0.00974621623755,-0.27366250753403
115,991969992,-1.17954218387604,-1.28535044193268,22.59918785095215,0.21430243551731,-0.26740664243698,9.78323841094971,-5.45721530914307,0.04742476344109,-0.35368135571480
116,991978325,-1.17984426021576,-1.28476929664612,22.59958076477051,0.20662310719490,-0.27660417556763,9.78414535522461,-5.43582725524902,0.16737623512745,-0.25498971343040
117,991986658,-1.18020951747894,-1.28491842746735,22.59977912902832,0.22754764556885,-0.28394439816475,9.77701663970947,-5.42027997970581,0.07946816831827,-0.27386739850044
118,991994991,-1.18019831180573,-1.28446507453918,22.59947013854980,0.21613253653049,-0.27480271458626,9.80013179779053,-5.40078735351562,0.15234068036079,-0.33946546912193
119,992003324,-1.18058669567108,-1.28410840034485,22.59956359863281,0.18526130914688,-0.29577708244324,9.77346515655518,-5.42325115203857,0.14168515801430,-0.28608539700508
120,992011657,-1.18053948879242,-1.28395283222198,22.59998512268066,0.21449019014835,-0.28411453962326,9.78064155578613,-5.39456319808960,0.11455967277288,-0.25222340226173
121,992019990,-1.18063724040985,-1.28420388698578,22.59913444519043,0.19486065208912,-0.28007537126541,9.77737426757812,-5.39146327972412,0.06981159746647,-0.40163120627403
122,992028323,-1.18069612979889,-1.28415298461914,22.59906005859375,0.21417661011219,-0.29076677560806,9.79986763000488,-5.40859985351562,0.10472381114960,-0.31169962882996
123,992036656,-1.17979955673218,-1.28393638134003,22.59846305847168,0.17715790867805,-0.27619639039040,9.80685901641846,-5.27087163925171,0.12475412338972,-0.36541268229485
124,992044989,-1.18003404140472,-1.28255593776703,22.59890556335449,0.18498474359512,-0.28546014428139,9.78367710113525,-5.42837381362915,0.26363450288773,-0.24587105214596
125,992053322,-1.18036425113678,-1.28148078918457,22.59940338134766,0.18939378857613,-0.27337470650673,9.78076362609863,-5.41605281829834,0.22605842351913,-0.23726466298103
126,992061655,-1.18094325065613,-1.28035771846771,22.59950065612793,0.20248368382454,-0.28838667273521,9.78994274139404,-5.47053480148315,0.23207777738571,-0.28979945182800
127,992069988,-1.18135893344879,-1.27973413467407,22.59902381896973,0.19152157008648,-0.28860676288605,9.75661563873291,-5.42914247512817,0.17357487976551,-0.34955748915672
128,992078321,-1.18109631538391,-1.28044664859772,22.59888648986816,0.20416717231274,-0.27145999670029,9.78199768066406,-5.37022924423218,0.01399817969650,-0.31969124078751
129,992086654,-1.18130946159363,-1.28010880947113,22.59917068481445,0.20345981419086,-0.27770099043846,9.80378437042236,-5.40155553817749,0.13656230270863,-0.26451820135117
130,992094987,-1.18146193027496,-1.28021419048309,22.59798812866211,0.20860353112221,-0.26948800683022,9.82712078094482,-5.42278957366943,0.08866368234158,-0.44489368796349
131,992103320,-1.18157982826233,-1.28011310100555,22.59780502319336,0.21585343778133,-0.29722112417221,9.83640098571777,-5.39238595962524,0.11015401035547,-0.31894847750664
132,992111653,-1.18178164958954,-1.28051054477692,22.59780502319336,0.21102300286293,-0.26772132515907,9.80927467346191,-5.42560720443726,0.05052408203483,-0.30419465899467
133,992119986,-1.18143856525421,-1.28141760826111,22.59749412536621,0.24837452173233,-0.28682255744934,9.80103111267090,-5.33782720565796,-0.00950288120657,-0.33675035834312
134,992128319,-1.18170297145844,-1.28158295154572,22.59758949279785,0.22003223001957,-0.30024886131287,9.77215385437012,-5.43211317062378,0.07759831845760,-0.29210475087166
135,992136652,-1.18103885650635,-1.28114712238312,22.59730148315430,0.22609439492226,-0.29369977116585,9.80311203002930,-5.29907274246216,0.15070134401321,-0.34256479144096
136,992144985,-1.18118298053741,-1.28126239776611,22.59794044494629,0.21967589855194,-0.27246448397636,9.81890773773193,-5.41684675216675,0.08266994357109,-0.22722388803959
137,992153318,-1.18153250217438,-1.28054201602936,22.59814643859863,0.24148890376091,-0.28762790560722,9.80129337310791,-5.41920375823975,0.18361562490463,-0.26477435231209
138,992161651,-1.18142294883728,-1.28083384037018,22.59825515747070,0.24919569492340,-0.30531501770020,9.79330921173096,-5.38787746429443,0.06409961730242,-0.29072153568268
139,992169984,-1.18155395984650,-1.28069388866425,22.59797859191895,0.22388301789761,-0.25978979468346,9.80560874938965,-5.39469099044800,0.11412423104048,-0.33190926909447
140,992178317,-1.18151056766510,-1.28000926971436,22.59804725646973,0.26018774509430,-0.28101244568825,9.78813457489014,-5.39597177505493,0.18105423450470,-0.29271951317787
141,992186650,-1.18189513683319,-1.27974557876587,22.59792137145996,0.24449463188648,-0.28575307130814,9.79523563385010,-5.42453145980835,0.13046611845493,-0.31093120574951
142,992194983,-1.18214797973633,-1.28006458282471,22.59800148010254,0.24369153380394,-0.26867812871933,9.77693653106689,-5.43157577514648,0.05882309749722,-0.29295000433922
143,992203316,-1.18215751647949,-1.27993309497833,22.59815216064453,0.22533379495144,-0.27030760049820,9.80940914154053,-5.37881040573120,0.11412423104048,-0.27663376927376
144,992211649,-1.18250286579132,-1.28005766868591,22.59860992431641,0.24777387082577,-0.27248540520668,9.79111957550049,-5.44154024124146,0.08182467520237,-0.24807389080524
145,992219982,-1.18291521072388,-1.27935063838959,22.59891128540039,0.24630457162857,-0.27294841408730,9.78853130340576,-5.42488956451416,0.18120791018009,-0.26938492059708
146,992228315,-1.18351256847382,-1.27955305576324,22.59863853454590,0.21328246593475,-0.28596484661102,9.79969120025635,-5.47360801696777,0.07557479292154,-0.33672472834587
147,992236648,-1.18400192260742,-1.27932190895081,22.59842491149902,0.22174470126629,-0.27712348103523,9.81061649322510,-5.43700551986694,0.12608608603477,-0.32440432906151
148,992244981,-1.18400406837463,-1.27969229221344,22.59887313842773,0.21624988317490,-0.28286409378052,9.80970478057861,-5.40032625198364,0.05172794684768,-0.25145497918129
149,992253314,-1.18428289890289,-1.27915358543396,22.59918975830078,0.19679753482342,-0.27890434861183,9.80488586425781,-5.40995740890503,0.16199724376202,-0.25624480843544
150,992261647,-1.18390226364136,-1.27927231788635,22.59883499145508,0.22310172021389,-0.26944276690483,9.80493068695068,-5.35657739639282,0.08497522771358,-0.34502375125885
151,992269980,-1.18352937698364,-1.27911794185638,22.59930610656738,0.21286408603191,-0.27702587842941,9.79620933532715,-5.33196115493774,0.11481580138206,-0.24410362541676
152,992278313,-1.18471479415894,-1.27834594249725,22.59917068481445,0.22266358137131,-0.27401974797249,9.79292488098145,-5.54325342178345,0.19163288176060,-0.31687372922897
153,992286646,-1.18444776535034,-1.27833592891693,22.59845542907715,0.19119757413864,-0.28509783744812,9.77458286285400,-5.34797096252441,0.10070237517357,-0.38587847352028
154,992294979,-1.18472099304199,-1.27892768383026,22.59871673583984,0.19249247014523,-0.30673074722290,9.78992557525635,-5.43336868286133,0.02624178305268,-0.27399545907974
155,992303312,-1.18495869636536,-1.27936518192291,22.59863853454590,0.18451064825058,-0.28296154737473,9.78919696807861,-5.40752410888672,0.04629773274064,-0.31075191497803
156,992311645,-1.18517053127289,-1.27914547920227,22.59862709045410,0.18394973874092,-0.27744302153587,9.79755592346191,-5.42676019668579,0.12426746636629,-0.30357992649078
157,992319978,-1.18600571155548,-1.27920126914978,22.59902191162109,0.19865085184574,-0.30255505442619,9.79054355621338,-5.47512006759644,0.09032859653234,-0.25296619534492
158,992328311,-1.18637967109680,-1.27930915355682,22.59855842590332,0.21971295773983,-0.28062075376511,9.77663993835449,-5.44745588302612,0.08607663959265,-0.35806137323380
159,992336644,-1.18640542030334,-1.27924072742462,22.59829330444336,0.21784281730652,-0.27040123939514,9.81418800354004,-5.38362550735474,0.10833541303873,-0.33349734544754
160,992344977,-1.18698740005493,-1.27885723114014,22.59770202636719,0.20968875288963,-0.29417663812637,9.81375885009766,-5.47271156311035,0.14562973380089,-0.37373730540276
161,992353310,-1.18750536441803,-1.27850806713104,22.59724807739258,0.21106392145157,-0.29573604464531,9.78576850891113,-5.44000291824341,0.14073742926121,-0.34381988644600
162,992361643,-1.18770098686218,-1.27820432186127,22.59732627868652,0.20152503252029,-0.27203825116158,9.78139209747314,-5.42455720901489,0.13328367471695,-0.29346230626106
163,992369976,-1.18759131431580,-1.27908968925476,22.59650802612305,0.20176514983177,-0.28174522519112,9.77760124206543,-5.36728382110596,-0.00607057381421,-0.39604732394218
164,992378309,-1.18746399879456,-1.27889275550842,22.59618949890137,0.20449388027191,-0.31018394231796,9.76189231872559,-5.38692951202393,0.12365273386240,-0.34028509259224
165,992386642,-1.18805539608002,-1.27847003936768,22.59589767456055,0.22147363424301,-0.30277168750763,9.79437160491943,-5.44965887069702,0.14821676909924,-0.33436822891235
166,992394975,-1.18811011314392,-1.27921128273010,22.59577941894531,0.24054284393787,-0.29305377602577,9.79378604888916,-5.40826702117920,0.00964375957847,-0.31812885403633
167,992403308,-1.18775129318237,-1.27959740161896,22.59622955322266,0.24033372104168,-0.27716389298439,9.78715229034424,-5.33413982391357,0.05044724047184,-0.25542518496513
168,992411641,-1.18737161159515,-1.27971684932709,22.59657478332520,0.21815852820873,-0.27956584095955,9.80455493927002,-5.35475873947144,0.08369451761246,-0.26367294788361
169,992419974,-1.18698692321777,-1.27930927276611,22.59683418273926,0.24210514128208,-0.28322210907936,9.78846740722656,-5.33088636398315,0.14578343927860,-0.26167502999306
170,992428307,-1.18639600276947,-1.27924501895905,22.59715080261230,0.24387212097645,-0.28349700570107,9.79006862640381,-5.32893943786621,0.10477502644062,-0.26413401961327
171,992436640,-1.18624329566956,-1.27897608280182,22.59779357910156,0.23158037662506,-0.26619076728821,9.80793762207031,-5.35785818099976,0.12905733287334,-0.22504667937756
172,992444973,-1.18634092807770,-1.27928721904755,22.59777259826660,0.22887647151947,-0.29245686531067,9.79145431518555,-5.41310739517212,0.06171749532223,-0.30593642592430
173,992453306,-1.18622958660126,-1.27861630916595,22.59790802001953,0.23765635490417,-0.27415955066681,9.81907272338867,-5.36379957199097,0.17780122160912,-0.28183344006538
174,992461639,-1.18590450286865,-1.27839899063110,22.59816169738770,0.24164928495884,-0.27841147780418,9.81553554534912,-5.36167383193970,0.12383200973272,-0.27104982733727
175,992469972,-1.18600666522980,-1.27823507785797,22.59807395935059,0.25536039471626,-0.26772549748421,9.76471996307373,-5.39000368118286,0.11742846667767,-0.31190454959869
176,992478305,-1.18665146827698,-1.27807915210724,22.59813308715820,0.23974153399467,-0.28479081392288,9.79991340637207,-5.47862863540649,0.11632704734802,-0.29551142454147
177,992486638,-1.18626976013184,-1.27728128433228,22.59850120544434,0.25730744004250,-0.27559858560562,9.77908802032471,-5.33196210861206,0.19286240637302,-0.25040477514267
178,992494971,-1.18545377254486,-1.27843654155731,22.59842872619629,0.24515563249588,-0.28062799572945,9.78850078582764,-5.30360651016235,-0.04006066545844,-0.31479898095131
179,992503304,-1.18509399890900,-1.27876329421997,22.59843063354492,0.23724643886089,-0.27846586704254,9.79635143280029,-5.33349847793579,0.05782413482666,-0.29794481396675
180,992511637,-1.18483781814575,-1.27946937084198,22.59881210327148,0.21304327249527,-0.27422100305557,9.78574466705322,-5.36953783035278,0.01315291132778,-0.25834518671036
181,992519970,-1.18449151515961,-1.27941167354584,22.59858131408691,0.20421805977821,-0.28341838717461,9.78089141845703,-5.33667516708374,0.10531293600798,-0.32978332042694
182,992528303,-1.18505859375000,-1.27857983112335,22.59883880615234,0.20788545906544,-0.29142823815346,9.76268863677979,-5.46871566772461,0.19760102033615,-0.26923123002052
183,992536636,-1.18479442596436,-1.27914845943451,22.59837532043457,0.20293377339840,-0.27888897061348,9.76327514648438,-5.34766292572021,0.03008391894400,-0.35906031727791
184,992544969,-1.18524515628815,-1.27895128726959,22.59792137145996,0.19044759869576,-0.28506800532341,9.80770969390869,-5.45660018920898,0.12275621294975,-0.35793328285217
185,992553302,-1.18594086170197,-1.27772343158722,22.59799003601074,0.19937092065811,-0.31775361299515,9.76667785644531,-5.46128845214844,0.24521787464619,-0.28219202160835
186,992561635,-1.18562436103821,-1.27625286579132,22.59774398803711,0.20370121300220,-0.29667013883591,9.75160694122314,-5.36397886276245,0.27575001120567,-0.32947590947151
187,992569968,-1.18609595298767,-1.27585792541504,22.59793281555176,0.20743937790394,-0.26891997456551,9.79350376129150,-5.43318843841553,0.14483568072319,-0.26810419559479
188,992578301,-1.18644320964813,-1.27537488937378,22.59739112854004,0.20093919336796,-0.28757405281067,9.77989864349365,-5.44445943832397,0.15741229057312,-0.36572009325027
189,992586634,-1.18589210510254,-1.27608716487885,22.59718894958496,0.20638629794121,-0.29402446746826,9.76367664337158,-5.31175184249878,0.01230764016509,-0.32412251830101
190,992594967,-1.18560111522675,-1.27592909336090,22.59597015380859,0.19972549378872,-0.28224906325340,9.81212997436523,-5.36961412429810,0.12101445347071,-0.44976031780243
191,992603300,-1.18633377552032,-1.27566099166870,22.59564971923828,0.19862502813339,-0.27558824419975,9.77654838562012,-5.46692323684692,0.13061979413033,-0.33370226621628
192,992611633,-1.18590784072876,-1.27552652359009,22.59575843811035,0.20841720700264,-0.28520795702934,9.81801509857178,-5.34996795654297,0.11379123479128,-0.28918471932411
193,992619966,-1.18623232841492,-1.27496409416199,22.59558677673340,0.22713886201382,-0.27391773462296,9.77172183990479,-5.41666746139526,0.16606989502907,-0.31131541728973
194,992628299,-1.18639683723450,-1.27479624748230,22.59601020812988,0.20707866549492,-0.29167938232422,9.78046894073486,-5.41992092132568,0.11742844432592,-0.25199282169342
195,992636632,-1.18674218654633,-1.27432858943939,22.59539031982422,0.21775561571121,-0.28708457946777,9.77024364471436,-5.42086887359619,0.15618279576302,-0.37053555250168
196,992644965,-1.18634331226349,-1.27425241470337,22.59552192687988,0.20800012350082,-0.26117366552353,9.80165863037109,-5.35311889648438,0.10620943456888,-0.28588047623634
197,992653298,-1.18638038635254,-1.27453935146332,22.59554672241211,0.22225761413574,-0.27512440085411,9.76998043060303,-5.38311338424683,0.06415085494518,-0.29717636108398
198,992661631,-1.18568694591522,-1.27386343479156,22.59588050842285,0.22176042199135,-0.27530664205551,9.79175472259521,-5.31720781326294,0.17805735766888,-0.26111152768135
199,992669964,-1.18580186367035,-1.27437007427216,22.59527015686035,0.22561739385128,-0.27023431658745,9.77711391448975,-5.39415264129639,0.03794748708606,-0.36992076039314
200,992678297,-1.18580973148346,-1.27500236034393,22.59576606750488,0.22686351835728,-0.29078447818756,9.77718353271484,-5.40088987350464,0.02234841883183,-0.24535878002644
201,992686630,-1.18633365631104,-1.27540826797485,22.59613609313965,0.24507901072502,-0.29176682233810,9.79737758636475,-5.43943881988525,0.04786019772291,-0.24592226743698
202,992694963,-1.18599402904510,-1.27488183975220,22.59616279602051,0.25981387495995,-0.27821850776672,9.78758430480957,-5.36046981811523,0.16120317578316,-0.29927670955658
203,992703296,-1.18587779998779,-1.27442824840546,22.59616279602051,0.24018499255180,-0.27587634325027,9.78326416015625,-5.36380004882812,0.15313470363617,-0.29940479993820
204,992711629,-1.18631458282471,-1.27387690544128,22.59633636474609,0.23322166502476,-0.29050609469414,9.77496242523193,-5.45316839218140,0.16343162953854,-0.28142359852791
205,992719962,-1.18590569496155,-1.27378594875336,22.59613800048828,0.22364073991776,-0.25576156377792,9.79183959960938,-5.32904148101807,0.10987225919962,-0.31538808345795
206,992728295,-1.18593490123749,-1.27446973323822,22.59636306762695,0.23408611118793,-0.26738822460175,9.81127643585205,-5.40416812896729,0.01479222066700,-0.27832427620888
207,992736628,-1.18580734729767,-1.27385520935059,22.59642028808594,0.22472876310349,-0.27472543716431,9.77869415283203,-5.36139249801636,0.17170503735542,-0.28593170642853
208,992744961,-1.18619620800018,-1.27326941490173,22.59670829772949,0.21789583563805,-0.28936266899109,9.80172920227051,-5.44725131988525,0.16865694522858,-0.26608067750931
209,992753294,-1.18641853332520,-1.27330541610718,22.59549522399902,0.22186030447483,-0.27159476280212,9.77424621582031,-5.40770339965820,0.09563075006008,-0.44604632258415
210,992761627,-1.18554902076721,-1.27320849895477,22.59549522399902,0.22130994498730,-0.29949527978897,9.77034187316895,-5.29704904556274,0.10838664323092,-0.30176126956940
211,992769960,-1.18573033809662,-1.27446651458740,22.59592247009277,0.19545057415962,-0.30039781332016,9.77270889282227,-5.39852046966553,-0.05377708375454,-0.24841967225075
212,992778293,-1.18551039695740,-1.27419650554657,22.59610748291016,0.21132411062717,-0.28495776653290,9.78715133666992,-5.37446832656860,0.13137541711330,-0.27979710698128
213,992786626,-1.18617939949036,-1.27337205410004,22.59617424011230,0.17619174718857,-0.28012940287590,9.79035949707031,-5.45704889297485,0.19576959311962,-0.29083684086800
214,992794959,-1.18609964847565,-1.27408802509308,22.59675025939941,0.18755930662155,-0.28299978375435,9.80433845520020,-5.39027309417725,0.01042499393225,-0.23476728796959
215,992803292,-1.18565285205841,-1.27440810203552,22.59636878967285,0.18070214986801,-0.27019056677818,9.79048824310303,-5.32511043548584,0.06024468317628,-0.34104073047638
216,992811625,-1.18537640571594,-1.27436757087708,22.59695625305176,0.18950587511063,-0.29811543226242,9.76910591125488,-5.36652803421021,0.10212395340204,-0.23317919671535
217,992819958,-1.18559348583221,-1.27471661567688,22.59729194641113,0.17622053623199,-0.30152538418770,9.77293205261230,-5.40269565582275,0.05535236746073,-0.25008460879326
218,992828291,-1.18482089042664,-1.27442359924316,22.59752655029297,0.16594293713570,-0.26887097954750,9.81224822998047,-5.30799961090088,0.13237437605858,-0.27403390407562
219,992836624,-1.18513524532318,-1.27477931976318,22.59757232666016,0.22553935647011,-0.27677023410797,9.78931427001953,-5.41534948348999,0.05594149604440,-0.28686663508415
220,992844957,-1.18480205535889,-1.27467381954193,22.59746170043945,0.18525911867619,-0.26805067062378,9.77544116973877,-5.36158466339111,0.11093526333570,-0.31642547249794
221,992853290,-1.18464767932892,-1.27470290660858,22.59759140014648,0.20227226614952,-0.28579679131508,9.79921722412109,-5.35904884338379,0.09443968534470,-0.28015571832657
222,992861623,-1.18528985977173,-1.27482569217682,22.59737968444824,0.19105973839760,-0.26878678798676,9.77579975128174,-5.47892284393311,0.08414275199175,-0.32797747850418
223,992869956,-1.18506133556366,-1.27424788475037,22.59714508056641,0.21145720779896,-0.29388159513474,9.76671314239502,-5.34957122802734,0.16692794859409,-0.32021635770798
224,992878289,-1.18459618091583,-1.27431273460388,22.59754753112793,0.19482152163982,-0.26797622442245,9.77782917022705,-5.34447431564331,0.08936806768179,-0.25464394688606
225,992886622,-1.18480348587036,-1.27448904514313,22.59754753112793,0.21005417406559,-0.28564500808716,9.80137062072754,-5.40215730667114,0.07612550258636,-0.29898214340210
226,992894955,-1.18537950515747,-1.27447247505188,22.59702110290527,0.22022619843483,-0.30449792742729,9.78746032714844,-5.47182846069336,0.10112500190735,-0.36678302288055
227,992903288,-1.18587553501129,-1.27449393272400,22.59656143188477,0.22526273131371,-0.27560454607010,9.77162075042725,-5.43786382675171,0.09725724905729,-0.34839203953743
228,992911621,-1.18560051918030,-1.27422988414764,22.59636878967285,0.21043150126934,-0.28512802720070,9.80288791656494,-5.36888456344604,0.13017155230045,-0.32454517483711
229,992919954,-1.18576133251190,-1.27438926696777,22.59599876403809,0.21834959089756,-0.29325962066650,9.81278324127197,-5.39726543426514,0.08001888543367,-0.33466282486916
230,992928287,-1.18580436706543,-1.27472519874573,22.59589767456055,0.23566767573357,-0.28665316104889,9.79444599151611,-5.40679359436035,0.05722220614552,-0.31563141942024
231,992936620,-1.18592345714569,-1.27517354488373,22.59535598754883,0.24440975487232,-0.28718337416649,9.78425979614258,-5.39311552047729,0.04595194384456,-0.35922685265541
232,992944953,-1.18576347827911,-1.27556073665619,22.59613800048828,0.23541316390038,-0.29082468152046,9.78309249877930,-5.37997579574585,0.04935862869024,-0.21066425740719
233,992953286,-1.18599271774292,-1.27647757530212,22.59562492370605,0.24597120285034,-0.28656759858131,9.80820751190186,-5.40753650665283,-0.00933638960123,-0.36045634746552
234,992961619,-1.18524646759033,-1.27615427970886,22.59631347656250,0.24444949626923,-0.27021148800850,9.79715633392334,-5.30999708175659,0.13529439270496,-0.21888643503189
235,992969952,-1.18516123294830,-1.27690279483795,22.59549140930176,0.24135242402554,-0.25710904598236,9.78223228454590,-5.37060070037842,0.00865761190653,-0.39757138490677
236,992978285,-1.18401300907135,-1.27716219425201,22.59497451782227,0.22738274931908,-0.27900350093842,9.78570556640625,-5.26489067077637,0.06867176294327,-0.36634758114815
237,992986618,-1.18342542648315,-1.27653455734253,22.59512901306152,0.24475294351578,-0.28877562284470,9.77637767791748,-5.30679559707642,0.17376698553562,-0.27231773734093
238,992994951,-1.18397200107574,-1.27643787860870,22.59544372558594,0.24619105458260,-0.29088157415390,9.78013992309570,-5.46609067916870,0.10806646943092,-0.26389065384865
239,993003284,-1.18468558788300,-1.27613711357117,22.59522628784180,0.22876358032227,-0.26500570774078,9.78233242034912,-5.46475887298584,0.13519193232059,-0.32421219348907
240,993011617,-1.18508243560791,-1.27637922763824,22.59513092041016,0.22683270275593,-0.26084095239639,9.81903457641602,-5.44931316375732,0.06915844231844,-0.31258332729340
241,993019950,-1.18526875972748,-1.27617907524109,22.59396171569824,0.22013060748577,-0.29720777273178,9.80086708068848,-5.40313053131104,0.12568904459476,-0.44065445661545
242,993028283,-1.18517756462097,-1.27645528316498,22.59407424926758,0.22408179938793,-0.30453687906265,9.78082084655762,-5.39009380340576,0.06449665129185,-0.28955614566803
243,993036616,-1.18497538566589,-1.27657437324524,22.59417343139648,0.21082758903503,-0.28229540586472,9.77796745300293,-5.35203027725220,0.08352802693844,-0.28543224930763
244,993044949,-1.18510472774506,-1.27659010887146,22.59412193298340,0.20978997647762,-0.27192604541779,9.79282093048096,-5.41627073287964,0.09669373929501,-0.30858749151230
245,993053282,-1.18488705158234,-1.27696323394775,22.59433364868164,0.19944120943546,-0.27773013710976,9.80256652832031,-5.35023736953735,0.05071618780494,-0.27259951829910
246,993061615,-1.18470537662506,-1.27688407897949,22.59435844421387,0.21172557771206,-0.26833915710449,9.83000278472900,-5.37943744659424,0.10919348150492,-0.29967373609543
247,993069948,-1.18395912647247,-1.27876877784729,22.59474945068359,0.19683697819710,-0.28538146615028,9.79465675354004,-5.28778934478760,-0.12967205047607,-0.25187757611275
248,993078281,-1.18368875980377,-1.27914583683014,22.59406471252441,0.19931933283806,-0.27828839421272,9.79511451721191,-5.37062644958496,0.05478884652257,-0.38683900237083
249,993086614,-1.18326723575592,-1.27810323238373,22.59298133850098,0.19575256109238,-0.27432376146317,9.78009605407715,-5.32943868637085,0.22535406053066,-0.42131572961807
250,993094947,-1.18337547779083,-1.27747428417206,22.59275245666504,0.21305806934834,-0.28893792629242,9.75217437744141,-5.41488742828369,0.17328028380871,-0.32997536659241
251,993103280,-1.18296992778778,-1.27739036083221,22.59247016906738,0.19088940322399,-0.29800704121590,9.81577777862549,-5.32984876632690,0.10924471914768,-0.32946312427521
252,993111613,-1.18285989761353,-1.27684473991394,22.59169769287109,0.19939422607422,-0.29167568683624,9.77639865875244,-5.39011907577515,0.16592901945114,-0.39426711201668
253,993119946,-1.18302965164185,-1.27671933174133,22.59098052978516,0.19193412363529,-0.29901260137558,9.77536582946777,-5.39816141128540,0.11331737786531,-0.37746417522430
254,993128279,-1.18258833885193,-1.27726244926453,22.59138488769531,0.20766486227512,-0.28529766201973,9.77393150329590,-5.34726572036743,0.03304236009717,-0.25443899631500
255,993136612,-1.18301749229431,-1.27721774578094,22.59087753295898,0.20407938957214,-0.27335816621780,9.79608345031738,-5.43012857437134,0.10243133455515,-0.35635805130005
256,993144945,-1.18316578865051,-1.27787220478058,22.59134292602539,0.20407623052597,-0.27927842736244,9.79593658447266,-5.41780757904053,0.01977418735623,-0.24872702360153
257,993153278,-1.18363022804260,-1.27787482738495,22.59106826782227,0.21805208921432,-0.27989289164543,9.78834152221680,-5.43381690979004,0.09738533198833,-0.33025714755058
258,993161611,-1.18397748470306,-1.27751171588898,22.59081649780273,0.19930307567120,-0.26643523573875,9.78123760223389,-5.44352483749390,0.14203093945980,-0.33325400948524
259,993169944,-1.18457353115082,-1.27648937702179,22.59063148498535,0.21180348098278,-0.28440201282501,9.79501533508301,-5.44959449768066,0.22087153792381,-0.31724509596825
260,993178277,-1.18415403366089,-1.27751147747040,22.59030723571777,0.23241214454174,-0.28495785593987,9.77712726593018,-5.35180044174194,-0.02365474589169,-0.34439620375633
261,993186610,-1.18391811847687,-1.27683424949646,22.59025001525879,0.22910034656525,-0.27018854022026,9.81426715850830,-5.34972524642944,0.17935086786747,-0.30402818322182
262,993194943,-1.18429696559906,-1.27667391300201,22.59075736999512,0.23670680820942,-0.28079527616501,9.79271221160889,-5.44475412368774,0.11610931903124,-0.24163189530373
263,993203276,-1.18462002277374,-1.27695357799530,22.59077262878418,0.23967546224594,-0.30224698781967,9.80888938903809,-5.41709041595459,0.06413804739714,-0.29037579894066
264,993211609,-1.18459737300873,-1.27605772018433,22.59125137329102,0.22781744599342,-0.27766978740692,9.79388046264648,-5.39723968505859,0.20570793747902,-0.24355296790600
265,993219942,-1.18531978130341,-1.27658462524414,22.59098434448242,0.23702806234360,-0.27839449048042,9.79501533508301,-5.46519422531128,0.03493781760335,-0.32987293601036
266,993228275,-1.18481683731079,-1.27739143371582,22.59149169921875,0.23539814352989,-0.27635049819946,9.78026390075684,-5.33958101272583,-0.00057632022072,-0.24467995762825
267,993236608,-1.18473446369171,-1.27678835391998,22.59104919433594,0.22623264789581,-0.29222089052200,9.80817890167236,-5.36901330947876,0.17169223725796,-0.35087662935257
268,993244941,-1.18448603153229,-1.27769994735718,22.59077835083008,0.23087941110134,-0.28700035810471,9.80351448059082,-5.37208604812622,-0.01074517052621,-0.33868423104286
269,993253274,-1.18492817878723,-1.27818775177002,22.59061431884766,0.23714637756348,-0.28474497795105,9.78414726257324,-5.43020534515381,0.03939469531178,-0.31942236423492
270,993261607,-1.18481314182281,-1.27765870094299,22.59111976623535,0.23751798272133,-0.29489675164223,9.79494571685791,-5.38622522354126,0.16172827780247,-0.24004381895065
271,993269940,-1.18479442596436,-1.27731227874756,22.59050178527832,0.24322882294655,-0.28544214367867,9.81461906433105,-5.37779855728149,0.14005863666534,-0.37152168154716
272,993278273,-1.18434166908264,-1.27708899974823,22.59065628051758,0.22631217539310,-0.27652266621590,9.78927898406982,-5.34647178649902,0.12589396536350,-0.28463822603226
273,993286606,-1.18437206745148,-1.27656328678131,22.59050178527832,0.21121893823147,-0.26657056808472,9.78082180023193,-5.38199949264526,0.16029387712479,-0.31199422478676
274,993294939,-1.18417286872864,-1.27672791481018,22.59091186523438,0.22177465260029,-0.27924194931984,9.79819679260254,-5.37626123428345,0.07832833379507,-0.25292775034904
275,993303272,-1.18473565578461,-1.27781319618225,22.59059524536133,0.20374102890491,-0.30306121706963,9.77115058898926,-5.44585561752319,-0.03123655915260,-0.34006741642952
276,993311605,-1.18450427055359,-1.27777457237244,22.59045600891113,0.21274650096893,-0.28612661361694,9.78239440917969,-5.37387895584106,0.10312289744616,-0.31937107443810
277,993319938,-1.18494546413422,-1.27844893932343,22.58984375000000,0.21116101741791,-0.25306051969528,9.84494304656982,-5.43258714675903,0.01718715019524,-0.36921635270119
278,993328271,-1.18542087078094,-1.27871882915497,22.58929634094238,0.19280278682709,-0.28519210219383,9.80081462860107,-5.45981502532959,0.06713490933180,-0.36937010288239
279,993336604,-1.18483400344849,-1.27776801586151,22.58902359008789,0.18865418434143,-0.29575857520103,9.81844139099121,-5.30838394165039,0.21408377587795,-0.32728588581085
280,993344937,-1.18408262729645,-1.27834749221802,22.58918190002441,0.19923599064350,-0.28231140971184,9.79656887054443,-5.31012535095215,0.02740723267198,-0.28484311699867
281,993353270,-1.18377053737640,-1.27800118923187,22.58860206604004,0.20689614117146,-0.26123049855232,9.80430507659912,-5.34175920486450,0.14228707551956,-0.36714163422585
282,993361603,-1.18312096595764,-1.27861630916595,22.58863067626953,0.19445389509201,-0.27969726920128,9.77811622619629,-5.32334280014038,0.02343702502549,-0.30039095878601
283,993369936,-1.18394184112549,-1.27866089344025,22.58877182006836,0.22327001392841,-0.27242445945740,9.78939628601074,-5.47574758529663,0.09154527634382,-0.27249705791473
284,993378269,-1.18406748771667,-1.27936255931854,22.58781242370605,0.21908807754517,-0.29286226630211,9.78799915313721,-5.41898584365845,0.01762259379029,-0.41926658153534
285,993386602,-1.18417227268219,-1.27926409244537,22.58820343017578,0.22026607394218,-0.29379552602768,9.79568099975586,-5.38814640045166,0.10911663621664,-0.25046879053116
286,993394935,-1.18427622318268,-1.27921617031097,22.58862495422363,0.21210308372974,-0.28358384966850,9.80848979949951,-5.41271114349365,0.10150922089815,-0.25205689668655
287,993403268,-1.18409788608551,-1.27975237369537,22.58830070495605,0.21211510896683,-0.29409295320511,9.82287502288818,-5.35653877258301,0.03409254923463,-0.33796700835228
288,993411601,-1.18364346027374,-1.28008210659027,22.58900642395020,0.21111576259136,-0.30018195509911,9.79863834381104,-5.34485864639282,0.05816992744803,-0.21824607253075
289,993419934,-1.18309497833252,-1.28056001663208,22.58735466003418,0.22296145558357,-0.26093748211861,9.77673053741455,-5.31524753570557,0.04333928599954,-0.49628859758377
290,993428267,-1.18369281291962,-1.28032028675079,22.58797645568848,0.21609364449978,-0.27064791321754,9.78670024871826,-5.47131586074829,0.12530484795570,-0.22810755670071
291,993436600,-1.18359375000000,-1.27963948249817,22.58806419372559,0.21029736101627,-0.31944686174393,9.77039432525635,-5.36399221420288,0.17942771315575,-0.28929996490479
292,993444933,-1.18314409255981,-1.27930855751038,22.58820724487305,0.23180459439754,-0.28770273923874,9.77324581146240,-5.34690809249878,0.13803511857986,-0.28468945622444
293,993453266,-1.18297314643860,-1.27831757068634,22.58851814270020,0.21633571386337,-0.25318983197212,9.81086921691895,-5.35682058334351,0.21451920270920,-0.25646254420280
294,993461599,-1.18340826034546,-1.27834093570709,22.58808898925781,0.24338181316853,-0.28413185477257,9.78829765319824,-5.45453882217407,0.09677058458328,-0.35612753033638
295,993469932,-1.18364691734314,-1.27901709079742,22.58731651306152,0.24655956029892,-0.27577546238899,9.76547431945801,-5.40825366973877,0.01985103264451,-0.39055305719376
296,993478265,-1.18332302570343,-1.27894783020020,22.58753204345703,0.25111117959023,-0.27348986268044,9.77752017974854,-5.36186647415161,0.10558188706636,-0.27654409408569
297,993486598,-1.18328893184662,-1.27821040153503,22.58782958984375,0.25262171030045,-0.27280795574188,9.81499576568604,-5.37359714508057,0.18578003346920,-0.25802499055862
298,993494931,-1.18359875679016,-1.27827692031860,22.58829116821289,0.22545170783997,-0.29330077767372,9.80344963073730,-5.43732500076294,0.08990595489740,-0.24675472080708
299,993503264,-1.18306744098663,-1.27839159965515,22.58797073364258,0.23541861772537,-0.26471361517906,9.77729320526123,-5.31266117095947,0.08406592160463,-0.33850491046906
300,993511597,-1.18325066566467,-1.27787208557129,22.58819007873535,0.20293058454990,-0.30314376950264,9.78973484039307,-5.42272567749023,0.15975597500801,-0.27462300658226
301,993519930,-1.18318855762482,-1.27789366245270,22.58869171142578,0.22745056450367,-0.28398412466049,9.76094341278076,-5.36791133880615,0.09323582053185,-0.23276935517788
302,993528263,-1.18317162990570,-1.27820122241974,22.58911514282227,0.21261061728001,-0.28510013222694,9.77981185913086,-5.39800786972046,0.06019344925880,-0.25372177362442
303,993536596,-1.18361330032349,-1.27829647064209,22.58989715576172,0.23456615209579,-0.28177803754807,9.81799697875977,-5.42777156829834,0.08544908463955,-0.20674531161785
304,993544929,-1.18327033519745,-1.27862417697906,22.59060859680176,0.21748302876949,-0.30045929551125,9.80026912689209,-5.35822916030884,0.05668430030346,-0.21865592896938
305,993553262,-1.18338322639465,-1.27866840362549,22.59088134765625,0.20966324210167,-0.28718471527100,9.79512596130371,-5.38952970504761,0.09200634062290,-0.26340401172638
306,993561595,-1.18354511260986,-1.27891504764557,22.59148597717285,0.23268383741379,-0.28253060579300,9.79105758666992,-5.41906309127808,0.06682754307985,-0.23146305978298
307,993569928,-1.18422722816467,-1.27924680709839,22.59146499633789,0.21742787957191,-0.27392682433128,9.80139732360840,-5.45861148834229,0.05709412693977,-0.29647198319435
308,993578261,-1.18421089649200,-1.27915906906128,22.59092140197754,0.19391551613808,-0.27415570616722,9.83233356475830,-5.40077495574951,0.11139632016420,-0.36831992864609
309,993586594,-1.18471908569336,-1.28016185760498,22.59158706665039,0.19166724383831,-0.28122264146805,9.80234432220459,-5.43686485290527,-0.02475616149604,-0.22439351677895
310,993594927,-1.18464946746826,-1.27996134757996,22.59196662902832,0.19148159027100,-0.29263609647751,9.80182552337646,-5.39188528060913,0.12192374467850,-0.25717970728874
311,993603260,-1.18432664871216,-1.28007173538208,22.59206581115723,0.18470408022404,-0.26093211770058,9.79464721679688,-5.33789110183716,0.08434768021107,-0.28678980469704
312,993611593,-1.18477499485016,-1.27958440780640,22.59164619445801,0.17890818417072,-0.27319514751434,9.81006813049316,-5.45628023147583,0.15681034326553,-0.35136327147484
313,993619926,-1.18499255180359,-1.27908992767334,22.59141349792480,0.20724476873875,-0.29161623120308,9.81413745880127,-5.40448856353760,0.15809106826782,-0.32364869117737
314,993628259,-1.18552434444427,-1.27922153472900,22.59145927429199,0.21253372728825,-0.27238902449608,9.77601337432861,-5.46493816375732,0.08117151260376,-0.29893091320992
315,993636592,-1.18584096431732,-1.27858960628510,22.59129524230957,0.18852888047695,-0.27349004149437,9.79393863677979,-5.41619396209717,0.17476594448090,-0.31691217422485
316,993644925,-1.18539500236511,-1.28009688854218,22.59094619750977,0.20218908786774,-0.28250145912170,9.80258464813232,-5.34870052337646,-0.08164537698030,-0.34844323992729
317,993653258,-1.18545091152191,-1.28043699264526,22.59084320068359,0.20302125811577,-0.26822710037231,9.80425167083740,-5.38353538513184,0.05711973831058,-0.30669203400612
318,993661591,-1.18575441837311,-1.28045701980591,22.59127807617188,0.19396089017391,-0.27178561687469,9.80335807800293,-5.43655729293823,0.09543864428997,-0.25046879053116
319,993669924,-1.18566656112671,-1.28038823604584,22.59078979492188,0.21042034029961,-0.30181056261063,9.77728843688965,-5.36901283264160,0.10678575187922,-0.35466751456261
320,993678257,-1.18492388725281,-1.28042209148407,22.59030151367188,0.22714899480343,-0.26907920837402,9.79166221618652,-5.31340503692627,0.09623268246651,-0.36178827285767
321,993686590,-1.18537783622742,-1.28057909011841,22.58970260620117,0.22766415774822,-0.28138980269432,9.78371334075928,-5.43327903747559,0.07948096841574,-0.36921641230583
322,993694923,-1.18531119823456,-1.28077328205109,22.58983993530273,0.21897429227829,-0.29190880060196,9.77671241760254,-5.39291048049927,0.07512653619051,-0.28655922412872
323,993703256,-1.18551683425903,-1.28083765506744,22.58846855163574,0.22656197845936,-0.28830143809319,9.81164932250977,-5.40822839736938,0.09305652976036,-0.45917361974716
324,993711589,-1.18580675125122,-1.28036332130432,22.58904457092285,0.22066546976566,-0.27560105919838,9.77185535430908,-5.43443202972412,0.15427455306053,-0.23264130949974
325,993719922,-1.18560409545898,-1.28033959865570,22.58909606933594,0.22599358856678,-0.27118402719498,9.77704238891602,-5.35356712341309,0.10122745484114,-0.29460212588310
326,993728255,-1.18523192405701,-1.28068280220032,22.58930397033691,0.22160442173481,-0.29125478863716,9.79373550415039,-5.35612916946411,0.05637693405151,-0.27859324216843
327,993736588,-1.18478298187256,-1.28073203563690,22.58914375305176,0.24215109646320,-0.27657574415207,9.78308296203613,-5.32498168945312,0.09198071062565,-0.31634858250618
328,993744921,-1.18530130386353,-1.28086686134338,22.58915710449219,0.23452799022198,-0.29603683948517,9.79573249816895,-5.46347808837891,0.08286205679178,-0.30144113302231
329,993753254,-1.18516123294830,-1.28128433227539,22.58876037597656,0.23226891458035,-0.27976274490356,9.77524280548096,-5.36286497116089,0.04866704344749,-0.35159379243851
330,993761587,-1.18493139743805,-1.28117787837982,22.58877372741699,0.22354826331139,-0.26868674159050,9.79427433013916,-5.37367486953735,0.11083280295134,-0.30151799321175
331,993769920,-1.18552327156067,-1.28004968166351,22.58875274658203,0.23263783752918,-0.28711077570915,9.78857803344727,-5.44959497451782,0.23411412537098,-0.30156922340393
332,993778253,-1.18557095527649,-1.27957749366760,22.58832359313965,0.20497317612171,-0.29704970121384,9.80166816711426,-5.40810012817383,0.15527349710464,-0.35228541493416
333,993786586,-1.16860425472260,-1.28129029273987,22.59362411499023,0.20591200888157,-0.28445038199425,9.79978942871094,-5.30917787551880,0.14448989927769,-0.27160054445267
334,993794919,-1.16887927055359,-1.28191900253296,22.59353256225586,0.21540576219559,-0.28341302275658,9.76631546020508,-5.43455982208252,0.02282228507102,-0.31570824980736
335,993803252,-1.16883635520935,-1.28152596950531,22.59333992004395,0.22006353735924,-0.28847512602806,9.77429676055908,-5.37341880798340,0.14536079764366,-0.32434025406837
336,993811585,-1.16857671737671,-1.28170347213745,22.59326744079590,0.22131864726543,-0.27373605966568,9.77086162567139,-5.37170171737671,0.07745744287968,-0.31276264786720
337,993819918,-1.16783404350281,-1.28199362754822,22.59363174438477,0.19853150844574,-0.28820732235909,9.77293491363525,-5.28748273849487,0.06139732524753,-0.25451585650444
338,993828251,-1.16805994510651,-1.28180289268494,22.59367179870605,0.20923747122288,-0.28726828098297,9.79515552520752,-5.42964172363281,0.12089919298887,-0.29729163646698
339,993836584,-1.16796112060547,-1.28160190582275,22.59348678588867,0.19812655448914,-0.27878558635712,9.78417778015137,-5.36655330657959,0.12276902049780,-0.32485252618790
340,993844917,-1.16710996627808,-1.28126931190491,22.59380531311035,0.20440654456615,-0.26988744735718,9.79933738708496,-5.29970026016235,0.13806071877480,-0.26437729597092
341,993853250,-1.16778576374054,-1.28071451187134,22.59419441223145,0.19661986827850,-0.29142150282860,9.77829456329346,-5.46012210845947,0.16380301117897,-0.24900877475739
342,993861583,-1.16790819168091,-1.27955460548401,22.59362792968750,0.19912344217300,-0.28949975967407,9.80718040466309,-5.41883277893066,0.23839169740677,-0.36937010288239
343,993869916,-1.16776299476624,-1.27915537357330,22.59327316284180,0.19275934994221,-0.26954740285873,9.77389621734619,-5.36178970336914,0.14748677611351,-0.34949347376823
344,993878249,-1.16724908351898,-1.27821648120880,22.59377861022949,0.19563154876232,-0.28655648231506,9.80828094482422,-5.33968496322632,0.20880725979805,-0.23971082270145
345,993886582,-1.16792929172516,-1.27834689617157,22.59343910217285,0.21141006052494,-0.28290385007858,9.80180931091309,-5.46265840530396,0.08352802693844,-0.34040039777756
346,993894915,-1.16813850402832,-1.27865672111511,22.59312057495117,0.19459977746010,-0.28849273920059,9.80360221862793,-5.42856550216675,0.06339523196220,-0.34278255701065
347,993903248,-1.16791558265686,-1.27812206745148,22.59365081787109,0.18721900880337,-0.28359106183052,9.79090690612793,-5.35077476501465,0.15952543914318,-0.23289740085602
348,993911581,-1.16743433475494,-1.27736115455627,22.59328842163086,0.18703413009644,-0.28411337733269,9.79330444335938,-5.34583187103271,0.19192744791508,-0.34429371356964
349,993919914,-1.16826498508453,-1.27768158912659,22.59334754943848,0.20621865987778,-0.28788369894028,9.78645038604736,-5.48010158538818,0.05914327502251,-0.29821377992630
350,993928247,-1.16828489303589,-1.27801597118378,22.59261322021484,0.20589743554592,-0.28536570072174,9.77619361877441,-5.40710115432739,0.05957871302962,-0.39106529951096
351,993936580,-1.16822612285614,-1.27748382091522,22.59310913085938,0.20319847762585,-0.27961990237236,9.78828334808350,-5.37049818038940,0.16083177924156,-0.24188803136349
352,993944913,-1.16734302043915,-1.27655911445618,22.59306335449219,0.21330536901951,-0.27421772480011,9.78327178955078,-5.29667806625366,0.20908902585506,-0.30743488669395
353,993953246,-1.16721141338348,-1.27718007564545,22.59291267395020,0.20328833162785,-0.29790866374969,9.79867553710938,-5.36296796798706,0.02356509678066,-0.31488862633705
354,993961579,-1.16798162460327,-1.27718472480774,22.59274101257324,0.23847323656082,-0.26935535669327,9.77873325347900,-5.49541854858398,0.09930638223886,-0.32462200522423
355,993969912,-1.16800451278687,-1.27714431285858,22.59328842163086,0.22704385221004,-0.26501438021660,9.81939697265625,-5.38035964965820,0.10132991522551,-0.22756965458393
356,993978245,-1.16794669628143,-1.27705478668213,22.59336853027344,0.22463059425354,-0.28497090935707,9.76744556427002,-5.39549779891968,0.10893735289574,-0.29370564222336
357,993986578,-1.16796410083771,-1.27740025520325,22.59354972839355,0.21909460425377,-0.28019273281097,9.78842544555664,-5.37902784347534,0.05545482411981,-0.28266590833664
358,993994911,-1.16792869567871,-1.27723538875580,22.59333801269531,0.24252144992352,-0.28029006719589,9.79550743103027,-5.39905834197998,0.11785110086203,-0.32779818773270
359,994003244,-1.16874849796295,-1.27705645561218,22.59305572509766,0.23275864124298,-0.27907311916351,9.78592491149902,-5.47923040390015,0.12025882303715,-0.34037470817566
360,994011577,-1.16919672489166,-1.27591776847839,22.59290313720703,0.24216534197330,-0.28324678540230,9.78352928161621,-5.45684289932251,0.23549723625183,-0.31911492347717
361,994019910,-1.16922450065613,-1.27534079551697,22.59270477294922,0.22185897827148,-0.28449672460556,9.75020790100098,-5.38284397125244,0.16659498214722,-0.31732195615768
362,994028243,-1.16915929317474,-1.27632069587708,22.59314727783203,0.23081205785275,-0.28248170018196,9.78929615020752,-5.39365386962891,-0.01953085511923,-0.25333762168884
363,994036576,-1.16858279705048,-1.27652728557587,22.59247207641602,0.23518311977386,-0.28587982058525,9.76780796051025,-5.30997133255005,0.07522900402546,-0.37948769330978
364,994044909,-1.16833555698395,-1.27625000476837,22.59200477600098,0.22497208416462,-0.27468401193619,9.78352069854736,-5.37426328659058,0.13316839933395,-0.35976472496986
365,994053242,-1.16951692104340,-1.27644431591034,22.59200096130371,0.23213803768158,-0.28781235218048,9.78162384033203,-5.52052068710327,0.07446057349443,-0.29091367125511
366,994061575,-1.16915166378021,-1.27682805061340,22.59194755554199,0.21861778199673,-0.29263457655907,9.80434894561768,-5.35892009735107,0.05273970589042,-0.31107205152512
367,994069908,-1.16860616207123,-1.27703261375427,22.59137725830078,0.20492039620876,-0.28410419821739,9.76739311218262,-5.31532526016235,0.07358969748020,-0.36819186806679
368,994078241,-1.16879272460938,-1.27711153030396,22.59133338928223,0.19851465523243,-0.28779807686806,9.82633304595947,-5.42505645751953,0.09036702662706,-0.30909976363182
369,994086574,-1.16942298412323,-1.27687394618988,22.59148979187012,0.20576578378677,-0.30972218513489,9.81963253021240,-5.45438480377197,0.12558658421040,-0.28051427006721
370,994094907,-1.16935229301453,-1.27714478969574,22.59079360961914,0.20087067782879,-0.27923685312271,9.79574394226074,-5.39600992202759,0.06690438836813,-0.38622426986694
371,994103240,-1.16944980621338,-1.27712631225586,22.59133911132812,0.21560928225517,-0.29081276059151,9.79304981231689,-5.38850545883179,0.09876848757267,-0.23889118432999
372,994111573,-1.16945683956146,-1.27627182006836,22.59145927429199,0.19367478787899,-0.30079370737076,9.78814125061035,-5.40259265899658,0.20081558823586,-0.28584203124046
373,994119906,-1.16817295551300,-1.27572572231293,22.59129333496094,0.20153196156025,-0.27799981832504,9.77788066864014,-5.22721242904663,0.16516059637070,-0.32262408733368
374,994128239,-1.16768980026245,-1.27545988559723,22.59138870239258,0.18828539550304,-0.28929322957993,9.81095314025879,-5.34439754486084,0.12932628393173,-0.29035016894341
375,994136572,-1.16754329204559,-1.27487301826477,22.59146881103516,0.19182859361172,-0.28787302970886,9.79745769500732,-5.36104631423950,0.16769638657570,-0.29040136933327
376,994144905,-1.16796529293060,-1.27513480186462,22.59185409545898,0.19713467359543,-0.26566317677498,9.79429817199707,-5.45223331451416,0.06716053187847,-0.25758954882622
377,994153238,-1.16775047779083,-1.27600085735321,22.59181022644043,0.19557635486126,-0.29399031400681,9.78194618225098,-5.35436153411865,-0.00610899459571,-0.29798319935799
378,994161571,-1.16687655448914,-1.27692079544067,22.59155464172363,0.19281236827374,-0.27085962891579,9.78728199005127,-5.29841995239258,-0.01130868494511,-0.33632770180702
379,994169904,-1.16701781749725,-1.27681839466095,22.59177970886230,0.19366437196732,-0.26417979598045,9.81878185272217,-5.39498567581177,0.10888612270355,-0.25469517707825
380,994178237,-1.16669595241547,-1.27708351612091,22.59182167053223,0.20583239197731,-0.27958536148071,9.80411148071289,-5.36388969421387,0.06698122620583,-0.30016043782234
381,994186570,-1.16626548767090,-1.27681696414948,22.59181404113770,0.21110348403454,-0.30629387497902,9.77965259552002,-5.32708215713501,0.12917259335518,-0.30372080206871
382,994194903,-1.16551816463470,-1.27680432796478,22.59147644042969,0.21678732335567,-0.27929478883743,9.80891132354736,-5.31391668319702,0.10197027027607,-0.34265446662903
383,994203236,-1.16557395458221,-1.27660799026489,22.59158515930176,0.22108106315136,-0.29303032159805,9.79907989501953,-5.38509845733643,0.12102726846933,-0.28438204526901
384,994211569,-1.16478741168976,-1.27585303783417,22.59153366088867,0.21457225084305,-0.28358590602875,9.79672908782959,-5.30835771560669,0.18864881992340,-0.30835691094398
385,994219902,-1.16481208801270,-1.27589678764343,22.59072875976562,0.22145909070969,-0.27899628877640,9.78782558441162,-5.38374042510986,0.09456775337458,-0.39967170357704
386,994228235,-1.16533672809601,-1.27594912052155,22.59117507934570,0.22306278347969,-0.29551425576210,9.78471660614014,-5.46442604064941,0.09087930619717,-0.24967473745346
387,994236568,-1.16542267799377,-1.27600967884064,22.59134864807129,0.22620269656181,-0.29648089408875,9.77464389801025,-5.38981151580811,0.08995718508959,-0.28005322813988
388,994244901,-1.16518032550812,-1.27625405788422,22.59069442749023,0.23098671436310,-0.26162007451057,9.79950618743896,-5.37531375885010,0.07228337228298,-0.38251015543938
389,994253234,-1.16516828536987,-1.27578866481781,22.59071922302246,0.22923368215561,-0.26947727799416,9.81396675109863,-5.37779903411865,0.15345489978790,-0.29460212588310
390,994261567,-1.16548252105713,-1.27594590187073,22.59073448181152,0.22993758320808,-0.29345029592514,9.79852867126465,-5.43957948684692,0.07960903644562,-0.30162042379379
391,994269900,-1.16535079479218,-1.27559220790863,22.59097671508789,0.23451550304890,-0.29257184267044,9.77588272094727,-5.36319828033447,0.13859862089157,-0.27167740464211
392,994278233,-1.16574335098267,-1.27555835247040,22.59079360961914,0.23525805771351,-0.27356171607971,9.79629802703857,-5.45031261444092,0.10319975763559,-0.32515990734100
393,994286566,-1.16553926467896,-1.27535760402679,22.59081268310547,0.23113617300987,-0.28568106889725,9.81361579895020,-5.35425901412964,0.12235920876265,-0.29693302512169
394,994294899,-1.16532599925995,-1.27432143688202,22.59078216552734,0.23076069355011,-0.29112651944160,9.79879665374756,-5.37718391418457,0.22228033840656,-0.30413061380386
395,994303232,-1.16475975513458,-1.27457785606384,22.59160995483398,0.21148136258125,-0.28863823413849,9.80899238586426,-5.30935668945312,0.06580296903849,-0.20792356133461
396,994311565,-1.16488146781921,-1.27427113056183,22.59195709228516,0.21871863305569,-0.27491500973701,9.80154800415039,-5.41624593734741,0.13444912433624,-0.25992047786713
397,994319898,-1.16449379920959,-1.27472865581512,22.59292984008789,0.22826467454433,-0.29695808887482,9.80781650543213,-5.32997655868530,0.04152067378163,-0.18279600143433
398,994328231,-1.16505992412567,-1.27523100376129,22.59350204467773,0.23776151239872,-0.27247282862663,9.80222702026367,-5.46903657913208,0.03703818470240,-0.23699572682381
399,994336564,-1.16485309600830,-1.27563869953156,22.59427261352539,0.20683215558529,-0.27183228731155,9.80153179168701,-5.35187673568726,0.04587509483099,-0.20994709432125
400,994344897,-1.16470062732697,-1.27596402168274,22.59501647949219,0.18962864577770,-0.29000777006149,9.80148315429688,-5.38225507736206,0.05855413898826,-0.21565903723240
401,994353230,-1.16376340389252,-1.27618467807770,22.59519577026367,0.19643615186214,-0.27885344624519,9.79742145538330,-5.26532602310181,0.07054159790277,-0.27398267388344
402,994361563,-1.16408181190491,-1.27618420124054,22.59508514404297,0.20560535788536,-0.29265305399895,9.77682113647461,-5.44111680984497,0.09884534031153,-0.31629738211632
403,994369896,-1.16422200202942,-1.27638196945190,22.59523963928223,0.20501290261745,-0.30276691913605,9.77990531921387,-5.39570283889771,0.07392268627882,-0.28100097179413
404,994378229,-1.16443181037903,-1.27590930461884,22.59491539001465,0.22372041642666,-0.27382758259773,9.82657623291016,-5.42874479293823,0.15532472729683,-0.34239825606346
405,994386562,-1.16428661346436,-1.27498543262482,22.59464454650879,0.20330879092216,-0.27243044972420,9.79558372497559,-5.36273670196533,0.20970372855663,-0.31809037923813
406,994394895,-1.16495394706726,-1.27476906776428,22.59471893310547,0.18358628451824,-0.29464527964592,9.79830837249756,-5.48261213302612,0.12481816112995,-0.29339829087257
407,994403228,-1.16474509239197,-1.27402102947235,22.59389686584473,0.18693719804287,-0.27360811829567,9.77871608734131,-5.35699987411499,0.18985272943974,-0.39987665414810
408,994411561,-1.16453719139099,-1.27428638935089,22.59400939941406,0.20614014565945,-0.27016735076904,9.77501106262207,-5.37672281265259,0.06672508269548,-0.29186141490936
409,994419894,-1.16504442691803,-1.27496826648712,22.59406661987305,0.20787875354290,-0.29236644506454,9.81936550140381,-5.43963146209717,0.01480502914637,-0.28466382622719
410,994428227,-1.16454935073853,-1.27368521690369,22.59437561035156,0.19805556535721,-0.28585791587830,9.81278800964355,-5.34239959716797,0.25178790092468,-0.26376256346703
411,994436560,-1.16445255279541,-1.27369248867035,22.59401321411133,0.21575392782688,-0.28868225216866,9.80235671997070,-5.36832141876221,0.09876849502325,-0.34157863259315
412,994444893,-1.16463339328766,-1.27319705486298,22.59431266784668,0.22887523472309,-0.28665331006050,9.82014846801758,-5.42369937896729,0.15670789778233,-0.26586294174194
413,994453226,-1.16471552848816,-1.27343654632568,22.59407997131348,0.22315563261509,-0.29689577221870,9.80206775665283,-5.38888931274414,0.07028544694185,-0.32679918408394
414,994461559,-1.16525864601135,-1.27363348007202,22.59429931640625,0.20258833467960,-0.29382461309433,9.80862140655518,-5.46719217300415,0.07471672445536,-0.27805534005165
415,994469892,-1.16489338874817,-1.27402436733246,22.59456062316895,0.20932655036449,-0.27251517772675,9.81014347076416,-5.33476591110229,0.04999898746610,-0.26929524540901
416,994478225,-1.16442251205444,-1.27348959445953,22.59447097778320,0.20203165709972,-0.27611228823662,9.80974292755127,-5.34639549255371,0.16247111558914,-0.31186613440514
417,994486558,-1.16514968872070,-1.27353858947754,22.59332656860352,0.22783465683460,-0.27469599246979,9.79533958435059,-5.46919012069702,0.09464460611343,-0.43627449870110
418,994494891,-1.16514825820923,-1.27285373210907,22.59397506713867,0.23370027542114,-0.27681139111519,9.79303550720215,-5.40072345733643,0.17976070940495,-0.22441910207272
419,994503224,-1.16512942314148,-1.27220463752747,22.59446716308594,0.24026238918304,-0.28128486871719,9.81655216217041,-5.37654304504395,0.17407433688641,-0.23991572856903
420,994511557,-1.16507470607758,-1.27165162563324,22.59469223022461,0.22080060839653,-0.27650439739227,9.81240463256836,-5.39554834365845,0.16431531310081,-0.27469986677170
421,994519890,-1.16573178768158,-1.27166438102722,22.59472465515137,0.24405336380005,-0.29064911603928,9.78022670745850,-5.45743322372437,0.09638636559248,-0.29370564222336
422,994528223,-1.16577661037445,-1.27143561840057,22.59454536437988,0.22557121515274,-0.28297796845436,9.76921367645264,-5.40856170654297,0.12612450122833,-0.32469889521599
423,994536556,-1.16560423374176,-1.27052891254425,22.59389114379883,0.23032039403915,-0.28133946657181,9.77861309051514,-5.35902261734009,0.20852546393871,-0.37592729926109
424,994544889,-1.16519129276276,-1.27024233341217,22.59437942504883,0.24996185302734,-0.28868472576141,9.81628322601318,-5.35177421569824,0.13165718317032,-0.24514104425907
425,994553222,-1.16497766971588,-1.26989829540253,22.59460258483887,0.22583842277527,-0.28497266769409,9.78712940216064,-5.35351562500000,0.13864986598492,-0.26768156886101
426,994561555,-1.16479039192200,-1.27000629901886,22.59485816955566,0.24285694956779,-0.27403524518013,9.77337932586670,-5.37938642501831,0.08519294857979,-0.27201038599014
427,994569888,-1.16537308692932,-1.26973235607147,22.59500122070312,0.24168345332146,-0.28343039751053,9.81573581695557,-5.44795465469360,0.13037645816803,-0.28018128871918
428,994578221,-1.16585314273834,-1.26999092102051,22.59490203857422,0.21747176349163,-0.30335465073586,9.79377651214600,-5.46060895919800,0.06792894750834,-0.31583634018898
429,994586554,-1.16592669487000,-1.26922166347504,22.59472656250000,0.22287926077843,-0.26279476284981,9.78194713592529,-5.38865900039673,0.19031377136707,-0.31770616769791
430,994594887,-1.16475415229797,-1.26809966564178,22.59477424621582,0.21814367175102,-0.28976166248322,9.79659080505371,-5.26168918609619,0.23211619257927,-0.29703548550606
431,994603220,-1.16413819789886,-1.26802825927734,22.59517097473145,0.21631777286530,-0.29103651642799,9.81410694122314,-5.30290269851685,0.10560750216246,-0.25262042880058
432,994611553,-1.16441190242767,-1.26861560344696,22.59606552124023,0.22449997067451,-0.30490332841873,9.78566932678223,-5.43315076828003,0.02599845081568,-0.19598731398582
433,994619886,-1.16479027271271,-1.26869237422943,22.59663963317871,0.21661864221096,-0.29648676514626,9.77986621856689,-5.42195796966553,0.08813858032227,-0.22941391170025
434,994628219,-1.16537916660309,-1.26883459091187,22.59700775146484,0.21663266420364,-0.30056396126747,9.78027248382568,-5.47239208221436,0.08045431226492,-0.25922885537148
435,994636552,-1.16504991054535,-1.26936829090118,22.59755897521973,0.20609124004841,-0.28149306774139,9.78732204437256,-5.33627843856812,0.03194095194340,-0.22618651390076
436,994644885,-1.16465449333191,-1.26944255828857,22.59794044494629,0.19831350445747,-0.27620261907578,9.77912807464600,-5.35410499572754,0.08801051229239,-0.25840920209885
437,994653218,-1.16411077976227,-1.26853883266449,22.59784126281738,0.18855138123035,-0.28009238839149,9.80092239379883,-5.31386518478394,0.20750090479851,-0.31137943267822
438,994661551,-1.16463887691498,-1.26809501647949,22.59779167175293,0.20187968015671,-0.28692719340324,9.79493522644043,-5.46624422073364,0.15120081603527,-0.30843380093575
439,994669884,-1.16496920585632,-1.26843655109406,22.59722709655762,0.19466768205166,-0.26204910874367,9.79039955139160,-5.41775655746460,0.05778571590781,-0.36194193363190
440,994678217,-1.16481029987335,-1.26829206943512,22.59720039367676,0.19949060678482,-0.29879647493362,9.76490783691406,-5.38351058959961,0.11649354547262,-0.30682012438774
441,994686550,-1.16460514068604,-1.26839435100555,22.59687423706055,0.19829538464546,-0.28174254298210,9.75218868255615,-5.35438728332520,0.08603822439909,-0.33924776315689
442,994694883,-1.16439855098724,-1.26817524433136,22.59654426574707,0.19111561775208,-0.27801752090454,9.82252502441406,-5.37871980667114,0.12499746680260,-0.34360215067863
443,994703216,-1.16433632373810,-1.26848590373993,22.59594535827637,0.21494126319885,-0.26979795098305,9.81304931640625,-5.37357139587402,0.06380505114794,-0.36043068766594
444,994711549,-1.16447973251343,-1.26806199550629,22.59659767150879,0.20626305043697,-0.27831637859344,9.78918647766113,-5.41803836822510,0.14784537255764,-0.22324088215828
445,994719882,-1.16490399837494,-1.26785659790039,22.59662437438965,0.21277032792568,-0.29116612672806,9.77568435668945,-5.42948770523071,0.12241042405367,-0.30036532878876
446,994728215,-1.16455471515656,-1.26773571968079,22.59628868103027,0.21214543282986,-0.27573525905609,9.79095268249512,-5.36171245574951,0.11365037411451,-0.34349972009659
447,994736548,-1.16427087783813,-1.26716005802155,22.59602737426758,0.24257086217403,-0.25511023402214,9.79400157928467,-5.34457683563232,0.16715848445892,-0.33758279681206
448,994744881,-1.16478872299194,-1.26651966571808,22.59635925292969,0.21104004979134,-0.27361032366753,9.78805255889893,-5.46393823623657,0.17438170313835,-0.26271238923073
449,994753214,-1.16498160362244,-1.26678574085236,22.59672927856445,0.21376602351665,-0.28623339533806,9.79290866851807,-5.40062141418457,0.06500893086195,-0.25287654995918
450,994761547,-1.16501295566559,-1.26647102832794,22.59612655639648,0.21906247735023,-0.30237138271332,9.80672359466553,-5.40781879425049,0.13780459761620,-0.37505647540092
451,994769880,-1.16459190845490,-1.26591217517853,22.59577560424805,0.25581899285316,-0.28585100173950,9.80044174194336,-5.33033466339111,0.16574971377850,-0.33666068315506
452,994778213,-1.16381585597992,-1.26570117473602,22.59536552429199,0.21963927149773,-0.28582069277763,9.79555511474609,-5.31056070327759,0.12566342949867,-0.35249024629593
453,994786546,-1.16400825977325,-1.26550805568695,22.59529304504395,0.23593923449516,-0.29742217063904,9.79463005065918,-5.40018558502197,0.12005393207073,-0.30687138438225
454,994794879,-1.16430377960205,-1.26593506336212,22.59618186950684,0.23128251731396,-0.30263975262642,9.82060623168945,-5.43561029434204,0.04449192807078,-0.19900980591774
455,994803212,-1.16417610645294,-1.26567137241364,22.59563636779785,0.22786222398281,-0.25134077668190,9.77695083618164,-5.36529874801636,0.13134980201721,-0.35981595516205
456,994811545,-1.16454231739044,-1.26586222648621,22.59486198425293,0.22466245293617,-0.28643050789833,9.77480602264404,-5.44862174987793,0.07720130681992,-0.39611136913300
457,994819878,-1.16472101211548,-1.26612055301666,22.59486961364746,0.23784208297729,-0.29165631532669,9.80669021606445,-5.40005731582642,0.06705807149410,-0.30026289820671
458,994828211,-1.16505241394043,-1.26680731773376,22.59534454345703,0.23965065181255,-0.27893376350403,9.81630802154541,-5.44111680984497,0.01485625561327,-0.24657543003559
459,994836544,-1.16559660434723,-1.26689624786377,22.59497642517090,0.23448941111565,-0.28212612867355,9.83141517639160,-5.44329404830933,0.08696033805609,-0.34022110700607
460,994844877,-1.16538953781128,-1.26702690124512,22.59464836120605,0.22486242651939,-0.28219506144524,9.80341053009033,-5.37859249114990,0.08437329530716,-0.34342288970947
461,994853210,-1.16558969020844,-1.26704740524292,22.59477233886719,0.21145755052567,-0.28162139654160,9.81076431274414,-5.40315628051758,0.09438846260309,-0.28768625855446
462,994861543,-1.16606879234314,-1.26609921455383,22.59464263916016,0.20791789889336,-0.29074564576149,9.77227497100830,-5.46053218841553,0.21413499116898,-0.31691214442253
463,994869876,-1.16639947891235,-1.26548755168915,22.59454345703125,0.20016215741634,-0.28638792037964,9.79614257812500,-5.41711664199829,0.17079573869705,-0.30387449264526
464,994878209,-1.16593956947327,-1.26575303077698,22.59483528137207,0.18717841804028,-0.28218981623650,9.76672172546387,-5.34649801254272,0.06521384418011,-0.26919281482697
465,994886542,-1.16601157188416,-1.26522278785706,22.59493827819824,0.20349992811680,-0.26811200380325,9.79537677764893,-5.38691711425781,0.16160021722317,-0.29800882935524
466,994894875,-1.16577005386353,-1.26566720008850,22.59516334533691,0.20450282096863,-0.30576089024544,9.80428028106689,-5.37300872802734,0.04541403800249,-0.27759429812431
467,994903208,-1.16640686988831,-1.26560568809509,22.59540748596191,0.19349746406078,-0.25197082757950,9.79830169677734,-5.45446205139160,0.10442924499512,-0.27116510272026
468,994911541,-1.16669595241547,-1.26476633548737,22.59562110900879,0.19326263666153,-0.28696566820145,9.78502082824707,-5.43660831451416,0.19856153428555,-0.27544265985489
469,994919874,-1.16702687740326,-1.26538801193237,22.59599876403809,0.19963946938515,-0.28478813171387,9.76313877105713,-5.41701316833496,0.02307842485607,-0.25584775209427
470,994928207,-1.16672074794769,-1.26622498035431,22.59630393981934,0.19527271389961,-0.27140960097313,9.79684638977051,-5.36506843566895,-0.00306090107188,-0.26878300309181
471,994936540,-1.16715228557587,-1.26660406589508,22.59648323059082,0.19735285639763,-0.29034376144409,9.80582618713379,-5.43053817749023,0.05207373946905,-0.27664655447006
472,994944873,-1.16746699810028,-1.26720666885376,22.59687805175781,0.19953779876232,-0.28916808962822,9.77193546295166,-5.43937492370605,0.02561423555017,-0.25671869516373
473,994953206,-1.16756081581116,-1.26713800430298,22.59601402282715,0.21468399465084,-0.29113516211510,9.82178401947021,-5.39104127883911,0.10732363909483,-0.40067067742348
474,994961539,-1.16792440414429,-1.26701259613037,22.59568977355957,0.19641815125942,-0.27414220571518,9.79631900787354,-5.44708442687988,0.11408580094576,-0.34198844432831
475,994969872,-1.16765713691711,-1.26680135726929,22.59587478637695,0.20632909238338,-0.28404095768929,9.80439662933350,-5.34598588943481,0.12271781265736,-0.27101141214371
476,994978205,-1.16789674758911,-1.26725959777832,22.59508132934570,0.21213005483150,-0.28266197443008,9.78791046142578,-5.43361139297485,0.04582386463881,-0.39946678280830
477,994986538,-1.16801941394806,-1.26691532135010,22.59471702575684,0.21209345757961,-0.27335950732231,9.77812194824219,-5.39595842361450,0.13890597224236,-0.34951901435852
478,994994871,-1.16776490211487,-1.26687490940094,22.59451866149902,0.22677987813950,-0.30497476458549,9.76515579223633,-5.37254762649536,0.10478783398867,-0.32702973484993
479,995003204,-1.16810905933380,-1.26680362224579,22.59373664855957,0.23499032855034,-0.27203959226608,9.81035423278809,-5.42249536514282,0.10873242467642,-0.40041452646255
480,995011537,-1.16720020771027,-1.26717317104340,22.59382629394531,0.21064066886902,-0.29156795144081,9.78967761993408,-5.29334735870361,0.05353374406695,-0.29329580068588
481,995019870,-1.16675710678101,-1.26717126369476,22.59404373168945,0.21684743463993,-0.29782387614250,9.78292369842529,-5.32480287551880,0.09715478867292,-0.27713322639465
482,995028203,-1.16614413261414,-1.26669812202454,22.59370613098145,0.23173452913761,-0.28153616189957,9.77454948425293,-5.32931041717529,0.15716895461082,-0.34191161394119
483,995036536,-1.16634428501129,-1.26637244224548,22.59312248229980,0.23422583937645,-0.27406281232834,9.79109001159668,-5.40533304214478,0.13777896761894,-0.37631151080132
484,995044869,-1.16648304462433,-1.26550292968750,22.59345054626465,0.22825770080090,-0.28541326522827,9.80827617645264,-5.41834592819214,0.20191702246666,-0.26268681883812
485,995053202,-1.16690051555634,-1.26526522636414,22.59403038024902,0.26357999444008,-0.28805032372475,9.80582046508789,-5.42836093902588,0.12558659911156,-0.22690372169018
486,995061535,-1.16659533977509,-1.26560723781586,22.59458732604980,0.24926342070103,-0.26900768280029,9.79656982421875,-5.36450433731079,0.05619762837887,-0.23743113875389
487,995069868,-1.16670274734497,-1.26573252677917,22.59473991394043,0.24085649847984,-0.28312203288078,9.78451251983643,-5.39198875427246,0.08240099996328,-0.27408513426781
488,995078201,-1.16663229465485,-1.26622128486633,22.59522819519043,0.23201689124107,-0.28822931647301,9.81589603424072,-5.39291048049927,0.03816521167755,-0.24588385224342
489,995086534,-1.16717374324799,-1.26599931716919,22.59488487243652,0.25145900249481,-0.27550277113914,9.78097629547119,-5.44552278518677,0.12509992718697,-0.33507263660431
490,995094867,-1.16780245304108,-1.26609814167023,22.59490776062012,0.22365991771221,-0.28936779499054,9.79499053955078,-5.47792434692383,0.08749822527170,-0.30131307244301
491,995103200,-1.16845226287842,-1.26594340801239,22.59524917602539,0.22934752702713,-0.27149251103401,9.80496120452881,-5.45628023147583,0.11521282047033,-0.25569412112236
492,995111533,-1.16798496246338,-1.26592266559601,22.59481620788574,0.20929864048958,-0.26794633269310,9.80681324005127,-5.34775304794312,0.10263624787331,-0.35505172610283
493,995119866,-1.16839885711670,-1.26573491096497,22.59514808654785,0.21451741456985,-0.30632764101028,9.79276561737061,-5.42669534683228,0.11856829375029,-0.26017659902573
494,995128199,-1.16744601726532,-1.26576876640320,22.59511947631836,0.20501095056534,-0.29563048481941,9.80313873291016,-5.28822469711304,0.09449090808630,-0.30630782246590
495,995136532,-1.16743302345276,-1.26589739322662,22.59517860412598,0.19884768128395,-0.26182565093040,9.82855987548828,-5.37697887420654,0.08181186765432,-0.29278349876404
496,995144865,-1.16778290271759,-1.26466453075409,22.59508895874023,0.21571968495846,-0.29231530427933,9.79493522644043,-5.44488239288330,0.24710053205490,-0.30933034420013
497,995153198,-1.16787052154541,-1.26519763469696,22.59525299072266,0.20431712269783,-0.28808999061584,9.78477382659912,-5.38776254653931,0.03450237587094,-0.28056553006172
498,995161531,-1.16832375526428,-1.26521968841553,22.59503364562988,0.18698132038116,-0.27803665399551,9.79977989196777,-5.45781660079956,0.09620706737041,-0.32864344120026
499,995169864,-1.16843092441559,-1.26514852046967,22.59532737731934,0.19023439288139,-0.26609724760056,9.79504108428955,-5.39011907577515,0.10453169792891,-0.26937213540077
500,995178197,-1.16903758049011,-1.26376295089722,22.59543609619141,0.19035877287388,-0.27467805147171,9.79087162017822,-5.47446727752686,0.26549157500267,-0.28704592585564
501,995186530,-1.16894066333771,-1.26354312896729,22.59584808349609,0.19265334308147,-0.27135536074638,9.80678367614746,-5.36599016189575,0.12174445390701,-0.24777927994728
502,995194863,-1.16918456554413,-1.26362717151642,22.59655380249023,0.17003262042999,-0.25637301802635,9.76940917968750,-5.42997503280640,0.08655049651861,-0.21740081906319
503,995203196,-1.16939580440521,-1.26351988315582,22.59730148315430,0.19145403802395,-0.26747915148735,9.77288818359375,-5.40282297134399,0.10865557938814,-0.21158637106419
504,995211529,-1.16955661773682,-1.26282393932343,22.59762001037598,0.20453213155270,-0.30057030916214,9.79102325439453,-5.42106056213379,0.18127192556858,-0.26368573307991
505,995219862,-1.16999006271362,-1.26302742958069,22.59680366516113,0.20368343591690,-0.28240755200386,9.79298877716064,-5.43240833282471,0.07612551003695,-0.39390850067139
506,995228195,-1.17024314403534,-1.26246809959412,22.59650611877441,0.19928723573685,-0.28242105245590,9.78460788726807,-5.43368768692017,0.16569848358631,-0.33881229162216
507,995236528,-1.16993975639343,-1.26240813732147,22.59617042541504,0.20597012341022,-0.27594479918480,9.77910041809082,-5.34298849105835,0.10611978173256,-0.33899161219597
508,995244861,-1.17024540901184,-1.26275348663330,22.59589195251465,0.21990273892879,-0.27986758947372,9.77004337310791,-5.43983650207520,0.05850291997194,-0.33845371007919
509,995253194,-1.17095828056335,-1.26276826858521,22.59572792053223,0.23203803598881,-0.29969313740730,9.78735542297363,-5.46404123306274,0.09569478780031,-0.32541602849960
510,995261527,-1.17118370532990,-1.26295328140259,22.59552192687988,0.22277207672596,-0.28233841061592,9.81667232513428,-5.43041038513184,0.07720130681992,-0.32731151580811
511,995269860,-1.17148077487946,-1.26272106170654,22.59539222717285,0.21028533577919,-0.27443906664848,9.78459548950195,-5.41540002822876,0.12615011632442,-0.32395604252815
512,995278193,-1.17190861701965,-1.26371586322784,22.59523010253906,0.22773796319962,-0.29954221844673,9.78417778015137,-5.45428276062012,-0.01996629685163,-0.32531359791756
513,995286526,-1.17224574089050,-1.26415634155273,22.59504127502441,0.19809582829475,-0.29008412361145,9.79404544830322,-5.42034339904785,0.04438947141171,-0.32887396216393
514,995294859,-1.17198443412781,-1.26346731185913,22.59495925903320,0.22446508705616,-0.29078501462936,9.80816555023193,-5.37149715423584,0.18198913335800,-0.31122577190399
515,995303192,-1.17209780216217,-1.26403212547302,22.59465789794922,0.24881885945797,-0.27315837144852,9.76389408111572,-5.39321804046631,0.03017357178032,-0.33732670545578
516,995311525,-1.17207920551300,-1.26464056968689,22.59452819824219,0.24331331253052,-0.28007948398590,9.74611663818359,-5.40062093734741,0.02692056261003,-0.32154831290245
517,995319858,-1.17146682739258,-1.26431596279144,22.59401702880859,0.22403655946255,-0.26804837584496,9.79778671264648,-5.30589866638184,0.13754843175411,-0.36230054497719
518,995328191,-1.17207872867584,-1.26453828811646,22.59301757812500,0.24054478108883,-0.28749373555183,9.79092884063721,-5.47810363769531,0.07417882978916,-0.42264765501022
519,995336524,-1.17240858078003,-1.26487731933594,22.59353828430176,0.25323456525803,-0.26534262299538,9.79011249542236,-5.41734647750854,0.05517306551337,-0.23622727394104
520,995344857,-1.17211782932281,-1.26547694206238,22.59287643432617,0.23578858375549,-0.26543095707893,9.78402423858643,-5.36939716339111,0.02776583284140,-0.38409826159477
521,995353190,-1.17275619506836,-1.26591908931732,22.59243202209473,0.22710701823235,-0.27212482690811,9.79629039764404,-5.45689535140991,0.04623369500041,-0.35692155361176
522,995361523,-1.17208766937256,-1.26649045944214,22.59154510498047,0.20968566834927,-0.28565838932991,9.78307914733887,-5.32485389709473,0.03209463879466,-0.41073709726334
523,995369856,-1.17183244228363,-1.26698529720306,22.59141159057617,0.20855478942394,-0.25984171032906,9.79296684265137,-5.34926366806030,0.03977890685201,-0.30861312150955
524,995378189,-1.17201685905457,-1.26642036437988,22.59043884277344,0.21811376512051,-0.28109219670296,9.76387977600098,-5.42723369598389,0.16792692244053,-0.41942030191422
525,995386522,-1.17199480533600,-1.26593637466431,22.59053421020508,0.18537142872810,-0.28946465253830,9.79191303253174,-5.37480115890503,0.15547840297222,-0.28725084662437
526,995394855,-1.17196679115295,-1.26631355285645,22.59019470214844,0.19987744092941,-0.28826555609703,9.81468772888184,-5.40021085739136,0.05404603853822,-0.34434497356415
527,995403188,-1.17245519161224,-1.26651859283447,22.58947753906250,0.20737405121326,-0.27005100250244,9.80861568450928,-5.43852996826172,0.07551077008247,-0.37684944272041
528,995411521,-1.17223596572876,-1.26650094985962,22.58903312683105,0.20528797805309,-0.28911894559860,9.78626918792725,-5.37741422653198,0.10186781734228,-0.35845842957497
529,995419854,-1.17224836349487,-1.26621210575104,22.58892059326172,0.19244047999382,-0.28160628676414,9.80931949615479,-5.37861824035645,0.13224630057812,-0.31004753708839
530,995428187,-1.17225205898285,-1.26655018329620,22.58869171142578,0.18995326757431,-0.28032639622688,9.81871795654297,-5.40377092361450,0.05801624059677,-0.33230629563332
531,995436520,-1.17156207561493,-1.26575994491577,22.58884811401367,0.18941190838814,-0.28724125027657,9.82247734069824,-5.29555034637451,0.19187621772289,-0.28276833891869
532,995444853,-1.17122042179108,-1.26646327972412,22.58873367309570,0.20073372125626,-0.27282285690308,9.79500865936279,-5.36189174652100,0.01401098631322,-0.31734752655029
533,995453186,-1.17190015316010,-1.26573348045349,22.58865165710449,0.18023869395256,-0.25676387548447,9.80798625946045,-5.46109580993652,0.18718880414963,-0.30735799670219
534,995461519,-1.17244994640350,-1.26580727100372,22.58890724182129,0.20139896869659,-0.30576333403587,9.81107139587402,-5.46790981292725,0.08852279931307,-0.27231773734093
535,995469852,-1.17247045040131,-1.26554095745087,22.58966445922852,0.19342909753323,-0.27304181456566,9.80138969421387,-5.37930965423584,0.12699538469315,-0.21104848384857
536,995478185,-1.17224919795990,-1.26601564884186,22.59050559997559,0.19347512722015,-0.28202438354492,9.79895210266113,-5.37300872802734,0.03983013704419,-0.20369721949100
537,995486518,-1.17240655422211,-1.26586341857910,22.59050178527832,0.20610706508160,-0.29035383462906,9.80008220672607,-5.39652204513550,0.11603249609470,-0.30110818147659
538,995494851,-1.17234575748444,-1.26656675338745,22.59057807922363,0.20347958803177,-0.25642141699791,9.79332637786865,-5.39521598815918,0.01424151472747,-0.29426914453506
539,995503184,-1.17291474342346,-1.26741194725037,22.59060096740723,0.20715551078320,-0.27161988615990,9.80681228637695,-5.44631671905518,-0.00539179705083,-0.29964813590050
540,995511517,-1.17210090160370,-1.26663637161255,22.59073066711426,0.21811743080616,-0.30295935273170,9.79409790039062,-5.30456638336182,0.19195306301117,-0.28581640124321
541,995519850,-1.17136812210083,-1.26727187633514,22.59051704406738,0.23429687321186,-0.28247532248497,9.79371643066406,-5.29232358932495,0.02166964113712,-0.32726028561592
542,995528183,-1.17131543159485,-1.26739394664764,22.59066581726074,0.20092882215977,-0.26286539435387,9.77381229400635,-5.39595842361450,0.08309257775545,-0.28520169854164
543,995536516,-1.17186439037323,-1.26710581779480,22.59026336669922,0.22690396010876,-0.28703850507736,9.79712390899658,-5.44542026519775,0.13524316251278,-0.34565129876137
544,995544849,-1.17127287387848,-1.26681447029114,22.59022140502930,0.21061430871487,-0.29172539710999,9.79389381408691,-5.33169269561768,0.13273297250271,-0.30641028285027
545,995553182,-1.17122721672058,-1.26705646514893,22.58992576599121,0.23108802735806,-0.27660557627678,9.78505134582520,-5.37413549423218,0.06985002011061,-0.33701929450035
546,995561515,-1.17166972160339,-1.26771140098572,22.58968734741211,0.23306883871555,-0.29877126216888,9.77542304992676,-5.45643424987793,0.01990226097405,-0.33327960968018
547,995569848,-1.17100274562836,-1.26791727542877,22.58906364440918,0.21878837049007,-0.28195241093636,9.81832981109619,-5.29982900619507,0.07471672445536,-0.37016415596008
548,995578181,-1.17110800743103,-1.26735603809357,22.58972740173340,0.21273143589497,-0.27344992756844,9.79500389099121,-5.41340160369873,0.16503250598907,-0.22193452715874
549,995586514,-1.17206490039825,-1.26630997657776,22.58992385864258,0.25214582681656,-0.28074544668198,9.80347251892090,-5.49316501617432,0.22220350801945,-0.27669778466225
550,995594847,-1.17178261280060,-1.26561164855957,22.58980560302734,0.23899170756340,-0.28313228487968,9.77071666717529,-5.36908960342407,0.18367968499660,-0.31624615192413
551,995603180,-1.17194628715515,-1.26471793651581,22.58991432189941,0.23819836974144,-0.25880289077759,9.79255580902100,-5.39841794967651,0.20340265333652,-0.28538098931313
552,995611513,-1.17221701145172,-1.26475441455841,22.58952331542969,0.23557844758034,-0.28003349900246,9.77304172515869,-5.43607091903687,0.09541302919388,-0.35013380646706
553,995619846,-1.17225682735443,-1.26414883136749,22.59010124206543,0.23011626303196,-0.28968939185143,9.78696441650391,-5.38266515731812,0.16946378350258,-0.23097634315491
554,995628179,-1.17272794246674,-1.26353192329407,22.59086799621582,0.21232113242149,-0.28918808698654,9.80025482177734,-5.45686960220337,0.17143608629704,-0.20999832451344
555,995636512,-1.17325437068939,-1.26406574249268,22.59134864807129,0.22132094204426,-0.28082773089409,9.80941200256348,-5.44042539596558,0.03140305355191,-0.24135015904903
556,995644845,-1.17294478416443,-1.26465523242950,22.59102821350098,0.21771955490112,-0.29227012395859,9.78861331939697,-5.36642551422119,0.02886724472046,-0.34193724393845
557,995653178,-1.17348122596741,-1.26431679725647,22.59182357788086,0.21727177500725,-0.29633131623268,9.77593231201172,-5.43855524063110,0.13762529194355,-0.20502917468548
558,995661511,-1.17287755012512,-1.26413691043854,22.59191513061523,0.22283983230591,-0.26509103178978,9.81217861175537,-5.32979726791382,0.11908058822155,-0.29099053144455
559,995669844,-1.17293906211853,-1.26407229900360,22.59158897399902,0.22458250820637,-0.28211152553558,9.77126598358154,-5.38666057586670,0.10734925419092,-0.35208046436310
560,995678177,-1.17326247692108,-1.26425361633301,22.59127426147461,0.21436804533005,-0.27503675222397,9.78736209869385,-5.44219255447388,0.07717569917440,-0.34111759066582
561,995686510,-1.17324852943420,-1.26441526412964,22.59115409851074,0.20725528895855,-0.29500743746758,9.77711200714111,-5.37644100189209,0.07955781370401,-0.31880757212639
562,995694843,-1.17349636554718,-1.26461160182953,22.59079551696777,0.19953508675098,-0.29312399029732,9.78439521789551,-5.43320178985596,0.07461427152157,-0.34583058953285
563,995703176,-1.17342793941498,-1.26429176330566,22.59115028381348,0.18632122874260,-0.26796907186508,9.80341529846191,-5.36765575408936,0.13480772078037,-0.25077620148659
564,995711509,-1.17306971549988,-1.26490724086761,22.59035491943359,0.18405412137508,-0.29611140489578,9.79519271850586,-5.36153316497803,0.02645950578153,-0.40159276127815
565,995719842,-1.17269635200500,-1.26600158214569,22.59037590026855,0.19451546669006,-0.29231104254723,9.80715942382812,-5.33486938476562,-0.03333692625165,-0.29731726646423
566,995728175,-1.17250752449036,-1.26656901836395,22.59021568298340,0.18954965472221,-0.28852233290672,9.80766296386719,-5.38012981414795,0.03109568357468,-0.32395604252815
567,995736508,-1.17252659797668,-1.26715576648712,22.59090232849121,0.20005124807358,-0.27073791623116,9.79108238220215,-5.37700414657593,0.02579353377223,-0.21499305963516
568,995744841,-1.17259645462036,-1.26729202270508,22.59105491638184,0.20525108277798,-0.27518180012703,9.75980281829834,-5.41058492660522,0.08109467476606,-0.28361362218857
569,995753174,-1.17277789115906,-1.26736092567444,22.59079360961914,0.21763387322426,-0.28810083866119,9.79604911804199,-5.40120983123779,0.09098175913095,-0.32971924543381
570,995761507,-1.17194986343384,-1.26697063446045,22.59038734436035,0.22433789074421,-0.27842760086060,9.77482223510742,-5.30410623550415,0.14669273793697,-0.35118401050568
571,995769840,-1.17171537876129,-1.26700925827026,22.58994674682617,0.22191564738750,-0.28031748533249,9.78173065185547,-5.35074996948242,0.09369688481092,-0.34303861856461
572,995778173,-1.17176043987274,-1.26796412467957,22.58975219726562,0.23351475596428,-0.30885559320450,9.79983711242676,-5.40853595733643,-0.01497152168304,-0.32864347100258
573,995786506,-1.16177308559418,-1.27530610561371,22.59022331237793,0.23851840198040,-0.25826153159142,9.78269863128662,-5.35082674026489,0.14141620695591,-0.29293721914291
574,995794839,-1.16152966022491,-1.27591502666473,22.59023666381836,0.21271514892578,-0.29210293292999,9.80241775512695,-5.37331628799438,0.02397492527962,-0.30277308821678
575,995803172,-1.16110384464264,-1.27613842487335,22.58945846557617,0.24135047197342,-0.27524206042290,9.78789806365967,-5.33051443099976,0.07325671613216,-0.39608576893806
576,995811505,-1.16054499149323,-1.27582764625549,22.58913230895996,0.23880000412464,-0.26775094866753,9.80144214630127,-5.33730220794678,0.13841931521893,-0.34055405855179
577,995819838,-1.16043460369110,-1.27555978298187,22.58910942077637,0.20834991335869,-0.29626673460007,9.79714584350586,-5.36655330657959,0.12994101643562,-0.30023723840714
578,995828171,-1.15979242324829,-1.27557361125946,22.58887672424316,0.23249156773090,-0.28597292304039,9.78595542907715,-5.32692861557007,0.09718040376902,-0.33094874024391
579,995836504,-1.16024386882782,-1.27541804313660,22.58841896057129,0.20177972316742,-0.29544165730476,9.79490947723389,-5.43625020980835,0.11931111663580,-0.35202923417091
580,995844837,-1.15951430797577,-1.27476298809052,22.58890342712402,0.23975110054016,-0.29070124030113,9.80689048767090,-5.31463384628296,0.17573927342892,-0.24393719434738
581,995853170,-1.15937769412994,-1.27528977394104,22.58833885192871,0.23361520469189,-0.28515532612801,9.78291511535645,-5.36417150497437,0.03696134313941,-0.37669578194618
582,995861503,-1.15946042537689,-1.27438294887543,22.58836746215820,0.26634344458580,-0.27158239483833,9.77955532073975,-5.41342735290527,0.20755212008953,-0.29777827858925
583,995869836,-1.15915095806122,-1.27410900592804,22.58797073364258,0.23655909299850,-0.28309327363968,9.81313133239746,-5.34396219253540,0.13199014961720,-0.34652215242386
584,995878169,-1.15884804725647,-1.27449440956116,22.58815383911133,0.24306520819664,-0.28046679496765,9.77250957489014,-5.36645174026489,0.05314953625202,-0.28138521313667
585,995886502,-1.15836906433105,-1.27445149421692,22.58798980712891,0.22186492383480,-0.29268968105316,9.79530906677246,-5.32252311706543,0.10366081446409,-0.32451951503754
586,995894835,-1.15727770328522,-1.27403557300568,22.58838272094727,0.22532670199871,-0.25980082154274,9.80010700225830,-5.27167797088623,0.14869062602520,-0.25344005227089
587,995903168,-1.15773713588715,-1.27385449409485,22.58705329895020,0.19414727389812,-0.28670582175255,9.80368995666504,-5.43747949600220,0.12284587323666,-0.45750871300697
588,995911501,-1.15722322463989,-1.27268362045288,22.58785629272461,0.19010293483734,-0.28489157557487,9.80981254577637,-5.33953094482422,0.23739272356033,-0.20405581593513
589,995919834,-1.15636360645294,-1.27234351634979,22.58761978149414,0.20083060860634,-0.27726474404335,9.76546478271484,-5.27849197387695,0.13911092281342,-0.33156347274780
590,995928167,-1.15702652931213,-1.27202689647675,22.58726501464844,0.20236821472645,-0.27495107054710,9.78963184356689,-5.48391819000244,0.13885477185249,-0.34472921490669
591,995936500,-1.15755915641785,-1.27256762981415,22.58744812011719,0.20890453457832,-0.31445989012718,9.76119709014893,-5.44170618057251,0.03235078230500,-0.28197434544563
592,995944833,-1.15735721588135,-1.27142977714539,22.58758354187012,0.22487153112888,-0.26514747738838,9.76122474670410,-5.37882328033447,0.23577904701233,-0.28420275449753
593,995953166,-1.15809190273285,-1.27277481555939,22.58789825439453,0.19298900663853,-0.28950074315071,9.75581932067871,-5.46660280227661,-0.06450945138931,-0.26322469115257
594,995961499,-1.15739643573761,-1.27283942699432,22.58787536621094,0.19635121524334,-0.28811791539192,9.79939460754395,-5.32001256942749,0.09192948788404,-0.30589798092842
595,995969832,-1.15787160396576,-1.27312123775482,22.58743667602539,0.20823191106319,-0.26747938990593,9.78815269470215,-5.43686437606812,0.06490647792816,-0.35138890147209
596,995978165,-1.15820300579071,-1.27408385276794,22.58742904663086,0.20782153308392,-0.27604272961617,9.80887031555176,-5.44319105148315,-0.01686697453260,-0.30441239476204
597,995986498,-1.15813171863556,-1.27367413043976,22.58717536926270,0.20375312864780,-0.30426409840584,9.78245258331299,-5.37346982955933,0.14879310131073,-0.33156347274780
598,995994831,-1.15799498558044,-1.27355885505676,22.58728599548340,0.18610174953938,-0.26657819747925,9.79818058013916,-5.38666105270386,0.11288193613291,-0.28958174586296
599,996003164,-1.15759301185608,-1.27264273166656,22.58734703063965,0.20178543031216,-0.30258622765541,9.78906154632568,-5.33228158950806,0.20747528970242,-0.29516562819481
600,996011497,-1.15712106227875,-1.27310037612915,22.58727836608887,0.19065620005131,-0.30310320854187,9.79165649414062,-5.34688234329224,0.04436385631561,-0.31286507844925
601,996019830,-1.15678679943085,-1.27251040935516,22.58714103698730,0.21244069933891,-0.26762145757675,9.81738662719727,-5.33924913406372,0.16974554955959,-0.31785985827446
602,996028163,-1.15627408027649,-1.27174508571625,22.58704948425293,0.20606023073196,-0.27674821019173,9.80435085296631,-5.34222030639648,0.19087728857994,-0.31301876902580
603,996036496,-1.15643167495728,-1.27114939689636,22.58621025085449,0.21650695800781,-0.29049244523048,9.76865291595459,-5.40067148208618,0.17233255505562,-0.38899058103561
604,996044829,-1.15646672248840,-1.27115476131439,22.58565711975098,0.22521735727787,-0.26977553963661,9.82307147979736,-5.40922737121582,0.09981866925955,-0.36916518211365
605,996053162,-1.15716826915741,-1.27102530002594,22.58562469482422,0.23789131641388,-0.27966052293777,9.78694820404053,-5.46227455139160,0.11234404891729,-0.30361834168434
606,996061495,-1.15716171264648,-1.27178704738617,22.58560562133789,0.23497793078423,-0.28024327754974,9.80031394958496,-5.40254163742065,0.00888813938946,-0.30815204977989
607,996069828,-1.15798151493073,-1.27239155769348,22.58563041687012,0.23116882145405,-0.27506941556931,9.77275657653809,-5.47812891006470,0.02482019364834,-0.29321894049644
608,996078161,-1.15736877918243,-1.27324306964874,22.58468246459961,0.23497302830219,-0.27617818117142,9.77517890930176,-5.33233308792114,-0.00147281854879,-0.41885682940483
609,996086494,-1.15752351284027,-1.27350258827209,22.58431816101074,0.21378000080585,-0.27088376879692,9.77264976501465,-5.39772605895996,0.06787771731615,-0.34332039952278
610,996094827,-1.15750896930695,-1.27353000640869,22.58378219604492,0.24628455936909,-0.26936417818069,9.78326034545898,-5.40261888504028,0.09687303751707,-0.36721849441528
611,996103160,-1.15764427185059,-1.27244806289673,22.58403778076172,0.25097870826721,-0.27221083641052,9.75615119934082,-5.39401245117188,0.22724951803684,-0.26780962944031
612,996111493,-1.15767133235931,-1.27263772487640,22.58348846435547,0.23538286983967,-0.28634533286095,9.81204986572266,-5.40812540054321,0.07779043167830,-0.37052270770073
613,996119826,-1.15700030326843,-1.27268528938293,22.58316040039062,0.23041227459908,-0.30198416113853,9.80089759826660,-5.29903411865234,0.09385056048632,-0.33850491046906
614,996128159,-1.15727591514587,-1.27305400371552,22.58310127258301,0.21956135332584,-0.26763215661049,9.80335235595703,-5.43663406372070,0.05409726873040,-0.31099525094032
615,996136492,-1.15697574615479,-1.27397966384888,22.58296966552734,0.22661058604717,-0.28280293941498,9.78411674499512,-5.34214353561401,-0.01335782464594,-0.31647667288780
616,996144825,-1.15622532367706,-1.27408158779144,22.58281517028809,0.23388524353504,-0.29545935988426,9.76371288299561,-5.31376314163208,0.08847156912088,-0.32175323367119
617,996153158,-1.15611302852631,-1.27384948730469,22.58223533630371,0.23445330560207,-0.25719881057739,9.78256988525391,-5.36750173568726,0.12689292430878,-0.36675748229027
618,996161491,-1.15628433227539,-1.27464175224304,22.58304786682129,0.21573328971863,-0.29452401399612,9.80325412750244,-5.42167520523071,0.00110141211189,-0.20879444479942
619,996169824,-1.15596747398376,-1.27455198764801,22.58344841003418,0.21096713840961,-0.29504662752151,9.79902839660645,-5.33971023559570,0.10747733712196,-0.24841967225075
620,996178157,-1.15598261356354,-1.27435958385468,22.58323287963867,0.19320580363274,-0.27723589539528,9.80508613586426,-5.40548753738403,0.12363992631435,-0.32933506369591
621,996186490,-1.15638172626495,-1.27395856380463,22.58351135253906,0.20118778944016,-0.28760102391243,9.77776622772217,-5.42828416824341,0.14528393745422,-0.26378819346428
622,996194823,-1.15692317485809,-1.27443754673004,22.58378219604492,0.23066389560699,-0.27615630626678,9.78756999969482,-5.46778059005737,0.04126452654600,-0.27293244004250
623,996203156,-1.15729510784149,-1.27418851852417,22.58359527587891,0.20748619735241,-0.27632603049278,9.80068778991699,-5.42490291595459,0.13035085797310,-0.33415052294731
624,996211489,-1.15704107284546,-1.27391612529755,22.58428001403809,0.19336368143559,-0.27143752574921,9.76413154602051,-5.37113904953003,0.12883961200714,-0.21983419358730
625,996219822,-1.15741908550262,-1.27280342578888,22.58519554138184,0.20406129956245,-0.27793166041374,9.76563262939453,-5.42144536972046,0.22986215353012,-0.18935324251652
626,996228155,-1.15718638896942,-1.27201068401337,22.58490562438965,0.20650319755077,-0.26379099488258,9.76924991607666,-5.37626171112061,0.19492430984974,-0.33568733930588
627,996236488,-1.15665590763092,-1.27158904075623,22.58475494384766,0.19567474722862,-0.29670298099518,9.80395507812500,-5.31632423400879,0.14874187111855,-0.31491422653198
628,996244821,-1.15663659572601,-1.27209556102753,22.58438682556152,0.19410833716393,-0.30659082531929,9.81638336181641,-5.40159416198730,0.03959960862994,-0.34775167703629
629,996253154,-1.15614724159241,-1.27250397205353,22.58381462097168,0.17770522832870,-0.27552467584610,9.80008506774902,-5.31960296630859,0.05069057643414,-0.36463144421577
630,996261487,-1.15639603137970,-1.27363157272339,22.58415222167969,0.20369985699654,-0.26814180612564,9.78867244720459,-5.43248462677002,-0.03676923364401,-0.26389065384865
631,996269820,-1.15670764446259,-1.27462267875671,22.58389854431152,0.20652309060097,-0.28824588656425,9.79041004180908,-5.41755104064941,-0.02037612535059,-0.33356136083603
632,996278153,-1.15640854835510,-1.27572894096375,22.58399772644043,0.20541666448116,-0.28431379795074,9.79013824462891,-5.36750173568726,-0.03466887027025,-0.29309087991714
633,996286486,-1.15594804286957,-1.27602732181549,22.58388137817383,0.21282321214676,-0.27545279264450,9.78091621398926,-5.32580137252808,0.06306224316359,-0.31429946422577
634,996294819,-1.15573799610138,-1.27623915672302,22.58335494995117,0.21146486699581,-0.28047192096710,9.81260204315186,-5.37953996658325,0.07504970580339,-0.36855039000511
635,996303152,-1.15602290630341,-1.27608895301819,22.58277511596680,0.23281016945839,-0.30095550417900,9.77547359466553,-5.41465711593628,0.11690335720778,-0.35510292649269
636,996311485,-1.15606057643890,-1.27571880817413,22.58260154724121,0.21512252092361,-0.29803547263145,9.79041671752930,-5.40825414657593,0.14482288062572,-0.32331568002701
637,996319818,-1.15531301498413,-1.27570605278015,22.58208465576172,0.20546646416187,-0.29465508460999,9.78118705749512,-5.29106855392456,0.09981866925955,-0.36596336960793
638,996328151,-1.15524590015411,-1.27576279640198,22.58102607727051,0.21495801210403,-0.28017103672028,9.78978538513184,-5.39818763732910,0.09490074962378,-0.43107479810715
639,996336484,-1.15523934364319,-1.27568590641022,22.58084106445312,0.22167637944221,-0.28950285911560,9.79375171661377,-5.37930965423584,0.10916785895824,-0.32093355059624
640,996344817,-1.15570056438446,-1.27621984481812,22.58062362670898,0.23607005178928,-0.28154966235161,9.78708171844482,-5.45932817459106,0.03445114567876,-0.33146101236343
641,996353150,-1.15549910068512,-1.27650594711304,22.58045959472656,0.23935349285603,-0.29574680328369,9.80457019805908,-5.35569334030151,0.06380505859852,-0.32060059905052
642,996361483,-1.15568077564240,-1.27661311626434,22.57996368408203,0.21458154916763,-0.24152056872845,9.82894134521484,-5.42664480209351,0.08785683661699,-0.36365810036659
643,996369816,-1.15588045120239,-1.27648949623108,22.58036231994629,0.23102980852127,-0.30673190951347,9.75966262817383,-5.40282344818115,0.11257455497980,-0.25812748074532
644,996378149,-1.15569949150085,-1.27571785449982,22.58079338073730,0.23610965907574,-0.28234618902206,9.81640148162842,-5.38074445724487,0.19097973406315,-0.24995653331280
645,996386482,-1.15583813190460,-1.27642190456390,22.58061218261719,0.24493235349655,-0.27755790948868,9.80801105499268,-5.39636850357056,0.01296080276370,-0.33650702238083
646,996394815,-1.15604543685913,-1.27630841732025,22.58036804199219,0.23869079351425,-0.28587123751640,9.77745342254639,-5.42818164825439,0.11467494070530,-0.33235752582550
647,996403148,-1.15606927871704,-1.27630388736725,22.58020019531250,0.23705525696278,-0.28989461064339,9.79403114318848,-5.38343286514282,0.09817937016487,-0.30933034420013
648,996411481,-1.15589833259583,-1.27646422386169,22.58051681518555,0.22727529704571,-0.28740760684013,9.80407333374023,-5.38220357894897,0.07884061336517,-0.26424923539162
649,996419814,-1.15624904632568,-1.27571856975555,22.58059310913086,0.21705885231495,-0.24679662287235,9.82186603546143,-5.42164993286133,0.18741935491562,-0.28917190432549
650,996428147,-1.15670967102051,-1.27589380741119,22.58093070983887,0.20137034356594,-0.29668450355530,9.80460739135742,-5.45776557922363,0.07715007662773,-0.26373696327209
651,996436480,-1.15681636333466,-1.27671396732330,22.58161544799805,0.21689391136169,-0.28409659862518,9.79012489318848,-5.39001655578613,-0.00144720438402,-0.22196017205715
652,996444813,-1.15650606155396,-1.27613174915314,22.58215522766113,0.20354418456554,-0.28549283742905,9.77878284454346,-5.36463260650635,0.16759394109249,-0.23753362894058
653,996453146,-1.15722787380219,-1.27665150165558,22.58153724670410,0.17595601081848,-0.29030784964561,9.77812290191650,-5.46742296218872,0.03826766833663,-0.37103500962257
654,996461479,-1.15704214572906,-1.27723562717438,22.58193969726562,0.22640167176723,-0.27451384067535,9.78485870361328,-5.37989854812622,0.02797074429691,-0.25618073344231
655,996469812,-1.15710020065308,-1.27719509601593,22.58128738403320,0.19937244057655,-0.29240858554840,9.77168464660645,-5.38835096359253,0.10327658057213,-0.37833502888680
656,996478145,-1.15693688392639,-1.27713680267334,22.58125686645508,0.19285863637924,-0.28801140189171,9.78684234619141,-5.38371467590332,0.10734926164150,-0.30730679631233
657,996486478,-1.15706229209900,-1.27749574184418,22.58098983764648,0.21414592862129,-0.26291462779045,9.81300926208496,-5.39403772354126,0.05440463125706,-0.31719389557838
658,996494811,-1.15723061561584,-1.27783572673798,22.58137512207031,0.19613324105740,-0.28710702061653,9.81630516052246,-5.42257213592529,0.05663307383657,-0.26002293825150
659,996503144,-1.15819156169891,-1.27779948711395,22.58081054687500,0.21894362568855,-0.27862933278084,9.78164100646973,-5.49562406539917,0.10465975850821,-0.37057393789291
660,996511477,-1.15757930278778,-1.27832281589508,22.58098030090332,0.20915089547634,-0.27823281288147,9.79114246368408,-5.32925891876221,0.03596238419414,-0.28509920835495
661,996519810,-1.15779876708984,-1.27761340141296,22.58181190490723,0.19376491010189,-0.28055495023727,9.79882812500000,-5.40351533889771,0.18060597777367,-0.19819016754627
662,996528143,-1.15806424617767,-1.27763342857361,22.58289718627930,0.21054704487324,-0.27936714887619,9.80005836486816,-5.43215227127075,0.09505443274975,-0.17344681918621
663,996536476,-1.15738511085510,-1.27666485309601,22.58347129821777,0.20843727886677,-0.27291026711464,9.80882930755615,-5.29824018478394,0.21190655231476,-0.22493138909340
664,996544809,-1.15748786926270,-1.27666282653809,22.58366966247559,0.20748448371887,-0.27778261899948,9.81736850738525,-5.41488790512085,0.09910147637129,-0.28018131852150
665,996553142,-1.15809345245361,-1.27664220333099,22.58361053466797,0.21116907894611,-0.29160895943642,9.77599143981934,-5.45143938064575,0.10079201310873,-0.31186613440514
666,996561475,-1.15755319595337,-1.27760636806488,22.58409309387207,0.22494547069073,-0.30806726217270,9.79786109924316,-5.33745622634888,-0.01668767444789,-0.24665230512619
667,996569808,-1.15789675712585,-1.27803838253021,22.58442687988281,0.24727639555931,-0.28015676140785,9.78020000457764,-5.41921615600586,0.04551649466157,-0.25825551152229
668,996578141,-1.15755784511566,-1.27773261070251,22.58374786376953,0.23349733650684,-0.30273196101189,9.77861118316650,-5.36476039886475,0.13590914011002,-0.38389331102371
669,996586474,-1.15776073932648,-1.27770018577576,22.58359527587891,0.21434955298901,-0.29009628295898,9.77774333953857,-5.40313053131104,0.10309729725122,-0.31857702136040
670,996594807,-1.15750575065613,-1.27814269065857,22.58350181579590,0.22642679512501,-0.28742611408234,9.79081153869629,-5.37313652038574,0.04541403800249,-0.31568264961243
671,996603140,-1.15759468078613,-1.27778065204620,22.58368301391602,0.23100201785564,-0.29453659057617,9.79924392700195,-5.38806962966919,0.14205653965473,-0.28543221950531
672,996611473,-1.15734875202179,-1.27732729911804,22.58331108093262,0.23783272504807,-0.27536964416504,9.80020999908447,-5.37495517730713,0.15342926979065,-0.34764918684959
673,996619806,-1.15726363658905,-1.27735614776611,22.58336830139160,0.21120654046535,-0.29552403092384,9.76239013671875,-5.36829566955566,0.09546425938606,-0.29613900184631
674,996628139,-1.15741956233978,-1.27783823013306,22.58312606811523,0.23137295246124,-0.29736608266830,9.80235385894775,-5.42280292510986,0.04164874553680,-0.33248558640480
675,996636472,-1.15813469886780,-1.27783811092377,22.58334541320801,0.23325163125992,-0.27123481035233,9.82120609283447,-5.46445131301880,0.09636075794697,-0.27116510272026
676,996644805,-1.15737700462341,-1.27749097347260,22.58371353149414,0.23264445364475,-0.27704992890358,9.79014301300049,-5.31132936477661,0.14090390503407,-0.25766640901566
677,996653138,-1.15762925148010,-1.27777349948883,22.58333587646484,0.23677301406860,-0.30199611186981,9.77389049530029,-5.41071271896362,0.06390751898289,-0.35264396667480
678,996661471,-1.15702855587006,-1.27759182453156,22.58337783813477,0.23075079917908,-0.29323321580887,9.78716182708740,-5.33123159408569,0.12059180438519,-0.29749652743340
679,996669804,-1.15724170207977,-1.27784478664398,22.58259582519531,0.20879332721233,-0.27237686514854,9.80109024047852,-5.40753650665283,0.07118196785450,-0.39946681261063
680,996678137,-1.15625941753387,-1.27757298946381,22.58154869079590,0.23277440667152,-0.29602441191673,9.78983497619629,-5.28817415237427,0.13416735827923,-0.42777055501938
681,996686470,-1.15540015697479,-1.27772307395935,22.58096122741699,0.22383354604244,-0.28934520483017,9.79400730133057,-5.27915763854980,0.08155572414398,-0.37859120965004
682,996694803,-1.15536355972290,-1.27806890010834,22.58171272277832,0.20558191835880,-0.27655088901520,9.80333328247070,-5.39695835113525,0.05496815219522,-0.21468570828438
683,996703136,-1.15661990642548,-1.27840459346771,22.58166694641113,0.20365211367607,-0.28573164343834,9.80227470397949,-5.53051042556763,0.05809308588505,-0.30510392785072
684,996711469,-1.15611159801483,-1.27809488773346,22.58130645751953,0.20551984012127,-0.29222422838211,9.78309345245361,-5.34347534179688,0.13708738982677,-0.34483164548874
685,996719802,-1.15584564208984,-1.27803540229797,22.58141899108887,0.20152063667774,-0.28116104006767,9.79562091827393,-5.34726572036743,0.10509521514177,-0.28087291121483
686,996728135,-1.15498781204224,-1.27854657173157,22.58101844787598,0.22619502246380,-0.28349512815475,9.79066848754883,-5.30144214630127,0.03934346511960,-0.35256713628769
687,996736468,-1.15503203868866,-1.27776515483856,22.58106613159180,0.20877122879028,-0.27009269595146,9.82818698883057,-5.38468885421753,0.19210678339005,-0.28471508622169
688,996744801,-1.15489196777344,-1.27731609344482,22.58128929138184,0.19672499597073,-0.26824012398720,9.80450344085693,-5.38602066040039,0.15207172930241,-0.27564758062363
689,996753134,-1.15523159503937,-1.27755618095398,22.58166694641113,0.22354131937027,-0.28060281276703,9.78995037078857,-5.42098426818848,0.06938896328211,-0.25822991132736
690,996761467,-1.15487253665924,-1.27743864059448,22.58179855346680,0.19527910649776,-0.29106453061104,9.79306411743164,-5.35997104644775,0.11211351305246,-0.28676417469978
691,996769800,-1.15451431274414,-1.27791333198547,22.58156585693359,0.20913971960545,-0.26582458615303,9.78382396697998,-5.33707189559937,0.04259647056460,-0.32713219523430
