sep=,
DeviceTag:,Xsens DOT
FirmwareVersion:,3.0.0
AppVersion:,2023.6.0
StartTime: ,2025-03-06_12:21:16_000 PST
© Movella Technologies B. V. 2005-2025

PacketCounter,SampleTimeFine,Euler_X,Euler_Y,Euler_Z,Acc_X,Acc_Y,Acc_Z,Gyr_X,Gyr_Y,Gyr_Z
0,699806679,-1.41287004947662,-1.27742195129395,23.01859474182129,0.00000000000000,0.00000000000000,0.00000000000000,0.00000000000000,0.00000000000000,0.00000000000000
1,699815012,-1.41247606277466,-1.27671706676483,23.01827049255371,0.24332413077354,-0.27646952867508,9.80322074890137,-5.32819652557373,0.17357487976551,-0.33103838562965
2,699823345,-1.41223406791687,-1.27601706981659,23.01689720153809,0.25845491886139,-0.29459205269814,9.79398059844971,-5.36643838882446,0.17744262516499,-0.45910957455635
3,699831678,-1.41235578060150,-1.27654671669006,23.01641845703125,0.27352160215378,-0.28433474898338,9.81354427337646,-5.39015722274780,0.02524282783270,-0.35959821939468
4,699840011,-1.41176998615265,-1.27650737762451,23.01687049865723,0.27828440070152,-0.28089141845703,9.82034111022949,-5.32015371322632,0.09329985827208,-0.23992857336998
5,699848344,-1.41136348247528,-1.27679312229156,23.01615333557129,0.29251959919930,-0.28840553760529,9.76727771759033,-5.32776117324829,0.05626166984439,-0.37763071060181
6,699856677,-1.41137707233429,-1.27761292457581,23.01616096496582,0.26822188496590,-0.27458375692368,9.81653690338135,-5.39369153976440,-0.00881129782647,-0.29543459415436
7,699865010,-1.41207563877106,-1.27683258056641,23.01535987854004,0.28466016054153,-0.27364620566368,9.80186462402344,-5.46016025543213,0.18420478701591,-0.39274308085442
8,699873343,-1.41181075572968,-1.27582764625549,23.01514625549316,0.28238922357559,-0.27877780795097,9.80396556854248,-5.36067533493042,0.21153517067432,-0.31746286153793
9,699881676,-1.41121435165405,-1.27498543262482,23.01499366760254,0.28664484620094,-0.30476793646812,9.80016326904297,-5.30319690704346,0.18835428357124,-0.31692492961884
10,699890009,-1.41050159931183,-1.27494764328003,23.01489639282227,0.27794796228409,-0.26542007923126,9.77259445190430,-5.30527162551880,0.09511846303940,-0.30593642592430
11,699898342,-1.41090667247772,-1.27543282508850,23.01499176025391,0.26037687063217,-0.27452838420868,9.80963706970215,-5.42150926589966,0.02998146228492,-0.27484077215195
12,699906675,-1.41139137744904,-1.27574813365936,23.01452064514160,0.26077827811241,-0.27865523099899,9.78837776184082,-5.45199012756348,0.05262444913387,-0.35242626070976
13,699915008,-1.41229188442230,-1.27593052387238,23.01444625854492,0.25710704922676,-0.28315144777298,9.78129482269287,-5.48175382614136,0.06532910466194,-0.29902055859566
14,699923341,-1.41270661354065,-1.27572822570801,23.01443290710449,0.24407669901848,-0.28773304820061,9.77911186218262,-5.44166803359985,0.11438037455082,-0.29635670781136
15,699931674,-1.41300499439240,-1.27564609050751,23.01363182067871,0.21786470711231,-0.28841984272003,9.78273010253906,-5.41192960739136,0.10052307695150,-0.37483876943588
16,699940007,-1.41311264038086,-1.27514255046844,23.01352500915527,0.19274371862411,-0.27092075347900,9.78505420684814,-5.40560245513916,0.15024028718472,-0.30565467476845
17,699948340,-1.41311204433441,-1.27517461776733,23.01306724548340,0.18864746391773,-0.29339677095413,9.81565189361572,-5.37483930587769,0.08494960516691,-0.34904515743256
18,699956673,-1.41198992729187,-1.27543437480927,23.01329040527344,0.17567293345928,-0.28151133656502,9.78891658782959,-5.25637388229370,0.05828518792987,-0.26897507905960
19,699965006,-1.41155791282654,-1.27588891983032,23.01313209533691,0.17785187065601,-0.27386096119881,9.81627941131592,-5.32279205322266,0.03382359817624,-0.30660238862038
20,699973339,-1.41168642044067,-1.27600920200348,23.01298332214355,0.15730284154415,-0.29259225726128,9.77983856201172,-5.40842008590698,0.07580532133579,-0.31254488229752
21,699981672,-1.41229724884033,-1.27655017375946,23.01257705688477,0.15127311646938,-0.28997448086739,9.78130531311035,-5.44814777374268,0.02432071603835,-0.34612521529198
22,699990005,-1.41203939914703,-1.27706265449524,23.01179885864258,0.15205575525761,-0.28372403979301,9.79571247100830,-5.36292934417725,0.03087796084583,-0.39041218161583
23,699998338,-1.41225016117096,-1.27694523334503,23.01055335998535,0.16925080120564,-0.27539047598839,9.80924320220947,-5.40222120285034,0.10605573654175,-0.43964275717735
24,700006671,-1.41269326210022,-1.27725541591644,23.01050758361816,0.15797036886215,-0.28783565759659,9.82197093963623,-5.44453620910645,0.05129250884056,-0.30114656686783
25,700015004,-1.41239106655121,-1.27715444564819,23.01065254211426,0.16666834056377,-0.28273212909698,9.81596183776855,-5.33483028411865,0.09890937060118,-0.26157256960869
26,700023337,-1.41299557685852,-1.27842068672180,23.01120376586914,0.17217284440994,-0.29365000128746,9.82004261016846,-5.46279954910278,-0.06267803162336,-0.23209057748318
27,700031670,-1.41270601749420,-1.27789795398712,23.01085662841797,0.18792119622231,-0.29494810104370,9.77184772491455,-5.34059286117554,0.15093186497688,-0.33493170142174
28,700040003,-1.41219961643219,-1.27864348888397,23.01059722900391,0.16937078535557,-0.28856068849564,9.81816196441650,-5.33065557479858,0.00149843294639,-0.32811838388443
29,700048336,-1.41323888301849,-1.27935898303986,23.01088905334473,0.18562003970146,-0.26996630430222,9.78955364227295,-5.49832534790039,0.00131913297810,-0.25578373670578
30,700056669,-1.41314923763275,-1.27964651584625,23.01047897338867,0.18813128769398,-0.28513008356094,9.77559852600098,-5.38247299194336,0.05559569969773,-0.34499815106392
31,700065002,-1.41316068172455,-1.27950251102448,23.01005363464355,0.22292190790176,-0.27488064765930,9.81042385101318,-5.37586450576782,0.10800242424011,-0.35322034358978
32,700073335,-1.41296553611755,-1.27961909770966,23.00963973999023,0.21024684607983,-0.28354614973068,9.80209350585938,-5.36897420883179,0.07723972946405,-0.34561291337013
33,700081668,-1.41263520717621,-1.27955734729767,23.00993347167969,0.23467509448528,-0.29404303431511,9.78205394744873,-5.33216667175293,0.09273633360863,-0.25885748863220
34,700090001,-1.41236543655396,-1.27969682216644,23.00897407531738,0.24412474036217,-0.27940037846565,9.79898452758789,-5.36134147644043,0.07603586465120,-0.41103163361549
35,700098334,-1.41213226318359,-1.27957844734192,23.00893783569336,0.27297243475914,-0.26969662308693,9.78701400756836,-5.34604978561401,0.10239291936159,-0.29922550916672
36,700106667,-1.41235983371735,-1.27966213226318,23.00923728942871,0.29123023152351,-0.30752491950989,9.76707935333252,-5.41830778121948,0.07846920192242,-0.25975397229195
37,700115000,-1.41283488273621,-1.27967369556427,23.00937843322754,0.27967980504036,-0.26958003640175,9.77813816070557,-5.43147277832031,0.08674260228872,-0.27778634428978
38,700123333,-1.41264879703522,-1.28031444549561,23.00945854187012,0.26636925339699,-0.27226480841637,9.78499412536621,-5.36887216567993,0.01176974177361,-0.28846752643585
39,700131666,-1.41273665428162,-1.28010046482086,23.00897026062012,0.27183628082275,-0.31660979986191,9.77402210235596,-5.38621234893799,0.11584038287401,-0.35073575377464
40,700139999,-1.41263830661774,-1.28050661087036,23.00843620300293,0.27255117893219,-0.27237430214882,9.79562473297119,-5.38132047653198,0.04209699481726,-0.35959824919701
41,700148332,-1.41271114349365,-1.28095126152039,23.00884437561035,0.26831996440887,-0.27570110559464,9.80672359466553,-5.38103866577148,0.03433588519692,-0.25201845169067
42,700156665,-1.41301524639130,-1.28024780750275,23.00951194763184,0.27842721343040,-0.29559665918350,9.78802204132080,-5.42763090133667,0.17073169350624,-0.21244448423386
43,700164998,-1.41294646263123,-1.27928483486176,23.00963783264160,0.26077151298523,-0.29045853018761,9.79953289031982,-5.36592578887939,0.20321053266525,-0.26989719271660
44,700173331,-1.41188907623291,-1.27949726581573,23.00960350036621,0.27200251817703,-0.26280617713928,9.79655647277832,-5.26444244384766,0.06548279523849,-0.29750934243202
45,700181664,-1.41268897056580,-1.27970695495605,23.00970458984375,0.24584360420704,-0.29277530312538,9.78109836578369,-5.46904802322388,0.06120521202683,-0.27778634428978
46,700189997,-1.41304254531860,-1.27946531772614,23.00991058349609,0.24051102995872,-0.29273414611816,9.76084899902344,-5.43288183212280,0.11873478442430,-0.26951301097870
47,700198330,-1.41360616683960,-1.27994763851166,23.01000785827637,0.21519261598587,-0.28711721301079,9.78768730163574,-5.44166755676270,0.03041690774262,-0.28260189294815
48,700206663,-1.41332590579987,-1.28040874004364,23.00933837890625,0.19755047559738,-0.28783217072487,9.81377887725830,-5.35949707031250,0.03707660734653,-0.37617069482803
49,700214996,-1.41384172439575,-1.28052318096161,23.00884437561035,0.18256048858166,-0.27253183722496,9.78994560241699,-5.43728733062744,0.07498567551374,-0.33400964736938
50,700223329,-1.41453433036804,-1.28068065643311,23.00936698913574,0.16538929939270,-0.29491123557091,9.76910209655762,-5.47373628616333,0.06937615573406,-0.23101477324963
51,700231662,-1.41485440731049,-1.28131687641144,23.00956344604492,0.15773288905621,-0.28923067450523,9.75893115997314,-5.41280031204224,0.01046341564506,-0.27450776100159
52,700239995,-1.41506099700928,-1.28189218044281,23.00933074951172,0.15330609679222,-0.28748938441277,9.76979732513428,-5.41712903976440,0.02119578048587,-0.32499343156815
53,700248328,-1.41575431823730,-1.28100502490997,23.01010513305664,0.15742230415344,-0.27613854408264,9.78443145751953,-5.45368051528931,0.19301608204842,-0.19005763530731
54,700256661,-1.41654956340790,-1.28194987773895,23.00954818725586,0.14369338750839,-0.27721461653709,9.80033683776855,-5.48787546157837,-0.02200262807310,-0.36356842517853
55,700264994,-1.41704809665680,-1.28256988525391,23.01004600524902,0.17537739872932,-0.28329160809517,9.78161525726318,-5.43234395980835,0.01146237179637,-0.23762327432632
56,700273327,-1.41762483119965,-1.28294491767883,23.01033973693848,0.16677239537239,-0.27988287806511,9.80658054351807,-5.46028852462769,0.04419735819101,-0.26034307479858
57,700281660,-1.41780436038971,-1.28378438949585,23.00991249084473,0.15687613189220,-0.29811426997185,9.78441238403320,-5.39748334884644,-0.01057867892087,-0.34113037586212
58,700289993,-1.41782653331757,-1.28324723243713,23.01032066345215,0.18072368204594,-0.27813678979874,9.80198955535889,-5.39292383193970,0.15236629545689,-0.24412930011749
59,700298326,-1.41839075088501,-1.28312444686890,23.00953102111816,0.17571792006493,-0.26606988906860,9.81250858306885,-5.44422864913940,0.10444203764200,-0.39533010125160
60,700306659,-1.41803920269012,-1.28206670284271,23.00944519042969,0.17687942087650,-0.27922803163528,9.77495193481445,-5.35009622573853,0.21865589916706,-0.30252969264984
61,700314992,-1.41808235645294,-1.28254377841949,23.00930404663086,0.19088689982891,-0.27335408329964,9.77209091186523,-5.37942504882812,0.03072427585721,-0.30591082572937
62,700323325,-1.41757333278656,-1.28218924999237,23.00864982604980,0.19536486268044,-0.28097742795944,9.80183696746826,-5.33301210403442,0.13389842212200,-0.37263590097427
63,700331658,-1.41716456413269,-1.28235781192780,23.00872421264648,0.23558796942234,-0.28207001090050,9.79232215881348,-5.32391881942749,0.06619998812675,-0.28470221161842
64,700339991,-1.41744470596313,-1.28254115581512,23.00844001770020,0.24691891670227,-0.29204908013344,9.78219223022461,-5.42504358291626,0.06896632909775,-0.33016747236252
65,700348324,-1.41750788688660,-1.28332734107971,23.00856971740723,0.28094518184662,-0.28893852233887,9.79176139831543,-5.38334369659424,-0.00653162971139,-0.27855479717255
66,700356657,-1.41763210296631,-1.28388774394989,23.00827789306641,0.27192664146423,-0.28224235773087,9.76742362976074,-5.40606355667114,0.02439755946398,-0.33185803890228
67,700364990,-1.41771852970123,-1.28446292877197,23.00850677490234,0.26076552271843,-0.30754706263542,9.79593849182129,-5.38257551193237,0.01645714789629,-0.26082977652550
68,700373323,-1.41792178153992,-1.28484880924225,23.00826454162598,0.27973094582558,-0.29338577389717,9.80338478088379,-5.41700029373169,0.04465841501951,-0.32578739523888
69,700381656,-1.41843843460083,-1.28560638427734,23.00862121582031,0.28072088956833,-0.28532707691193,9.80786514282227,-5.43651914596558,-0.00381652079523,-0.25345283746719
70,700389989,-1.41834092140198,-1.28575491905212,23.00713539123535,0.28082799911499,-0.28948286175728,9.79845142364502,-5.38339519500732,0.07601025700569,-0.47378653287888
71,700398322,-1.41863095760345,-1.28590607643127,23.00649261474609,0.28633609414101,-0.28333157300949,9.77596569061279,-5.41118669509888,0.07273162156343,-0.36948534846306
72,700406655,-1.41995465755463,-1.28555572032928,23.00606346130371,0.27899512648582,-0.27717396616936,9.81139945983887,-5.55157852172852,0.13318121433258,-0.34479323029518
73,700414988,-1.42051684856415,-1.28513562679291,23.00617218017578,0.28489667177200,-0.29415223002434,9.80514526367188,-5.44023323059082,0.13697212934494,-0.28434363007545
74,700423321,-1.42059218883514,-1.28514289855957,23.00606918334961,0.28264662623405,-0.28306305408478,9.78748130798340,-5.40063381195068,0.08940649032593,-0.30834418535233
75,700431654,-1.42094242572784,-1.28566217422485,23.00615310668945,0.26718202233315,-0.28200066089630,9.79818153381348,-5.41741037368774,0.02636985294521,-0.28416430950165
76,700439987,-1.42098867893219,-1.28637003898621,23.00617218017578,0.24638907611370,-0.26380434632301,9.78235149383545,-5.39658689498901,0.00462336931378,-0.29451248049736
77,700448320,-1.42114162445068,-1.28615224361420,23.00616264343262,0.24776636064053,-0.27610793709755,9.80044555664062,-5.39161682128906,0.11376561969519,-0.30222237110138
78,700456653,-1.42147862911224,-1.28558731079102,23.00593948364258,0.22436127066612,-0.27371206879616,9.82515335083008,-5.43239545822144,0.15920528769493,-0.32148426771164
79,700464986,-1.42182815074921,-1.28570079803467,23.00614356994629,0.20917612314224,-0.29826235771179,9.80150985717773,-5.41705274581909,0.07339759171009,-0.26920560002327
80,700473319,-1.42159211635590,-1.28623104095459,23.00630378723145,0.17088975012302,-0.28509607911110,9.82157611846924,-5.36344146728516,0.02675407007337,-0.27691552042961
81,700481652,-1.42190313339233,-1.28537237644196,23.00607109069824,0.15997056663036,-0.29583325982094,9.81847858428955,-5.41128921508789,0.19147923588753,-0.32089516520500
82,700489985,-1.42171227931976,-1.28559219837189,23.00526809692383,0.15298320353031,-0.28660851716995,9.77879524230957,-5.37076711654663,0.06573893874884,-0.39230763912201
83,700498318,-1.42177784442902,-1.28566062450409,23.00526809692383,0.14859390258789,-0.28015044331551,9.77942752838135,-5.38329267501831,0.08000607043505,-0.29656162858009
84,700506651,-1.42235565185547,-1.28574430942535,23.00525665283203,0.14884549379349,-0.27417212724686,9.80746269226074,-5.46021175384521,0.07990361005068,-0.29725319147110
85,700514984,-1.42240285873413,-1.28557729721069,23.00458717346191,0.15122152864933,-0.28987652063370,9.79710578918457,-5.38188409805298,0.11043576896191,-0.38521251082420
86,700523317,-1.42202842235565,-1.28593814373016,23.00476264953613,0.16817235946655,-0.27335670590401,9.80476474761963,-5.34620237350464,0.04578544199467,-0.27489197254181
87,700531650,-1.42221701145172,-1.28650736808777,23.00473403930664,0.18685255944729,-0.25152611732483,9.80982303619385,-5.39743137359619,0.01983822323382,-0.30173563957214
88,700539983,-1.42297112941742,-1.28700053691864,23.00527763366699,0.18783976137638,-0.28093042969704,9.75043106079102,-5.48047351837158,0.02972532063723,-0.23116847872734
89,700548316,-1.42292976379395,-1.28628432750702,23.00497245788574,0.18229764699936,-0.29947245121002,9.81886959075928,-5.37135648727417,0.17436891794205,-0.32760608196259
90,700556649,-1.42349505424500,-1.28647863864899,23.00528526306152,0.16360352933407,-0.27606275677681,9.78257751464844,-5.45829057693481,0.06563647836447,-0.25732061266899
91,700564982,-1.42365097999573,-1.28609204292297,23.00446701049805,0.17849925160408,-0.28719049692154,9.77642250061035,-5.39487028121948,0.13645984232426,-0.38395741581917
92,700573315,-1.42292761802673,-1.28672206401825,23.00452804565430,0.18285840749741,-0.28537648916245,9.79563808441162,-5.30437469482422,0.01404940709472,-0.28967139124870
93,700581648,-1.42298948764801,-1.28639793395996,23.00437736511230,0.20092049241066,-0.28693541884422,9.79334545135498,-5.38267803192139,0.12657272815704,-0.28882613778114
94,700589981,-1.42320132255554,-1.28623521327972,23.00347328186035,0.22364464402199,-0.31050077080727,9.78758621215820,-5.41946029663086,0.11245929449797,-0.40465366840363
95,700598314,-1.42294871807098,-1.28614068031311,23.00314521789551,0.23441490530968,-0.29793167114258,9.81986331939697,-5.34438467025757,0.09944725781679,-0.34571528434753
96,700606647,-1.42264235019684,-1.28580439090729,23.00290870666504,0.23896221816540,-0.27060747146606,9.79739952087402,-5.35514307022095,0.13197736442089,-0.32199656963348
97,700614980,-1.42244577407837,-1.28566098213196,23.00305938720703,0.27734929323196,-0.29066181182861,9.81283378601074,-5.35183811187744,0.10349430888891,-0.28226888179779
98,700623313,-1.42237687110901,-1.28574430942535,23.00344085693359,0.28902572393417,-0.29546138644218,9.78445720672607,-5.38234519958496,0.07885342836380,-0.25009742379189
99,700631646,-1.42218565940857,-1.28481090068817,23.00252342224121,0.26445055007935,-0.28479352593422,9.77680301666260,-5.35391283035278,0.20341545343399,-0.40101650357246
100,700639979,-1.42247104644775,-1.28543746471405,23.00278663635254,0.29894059896469,-0.26855897903442,9.80735015869141,-5.42624759674072,0.01502274908125,-0.26608070731163
101,700648312,-1.42249977588654,-1.28566479682922,23.00189208984375,0.28736722469330,-0.29250183701515,9.78872203826904,-5.37983512878418,0.06141013279557,-0.40629300475121
102,700656645,-1.42210948467255,-1.28548371791840,23.00168037414551,0.28252926468849,-0.28731215000153,9.80381679534912,-5.34384679794312,0.11263860017061,-0.32127934694290
103,700664978,-1.42212533950806,-1.28533017635345,23.00185012817383,0.26003780961037,-0.28937217593193,9.80671310424805,-5.37501907348633,0.10600451380014,-0.26398032903671
104,700673311,-1.42185521125793,-1.28547954559326,23.00184059143066,0.25957524776459,-0.28799292445183,9.80514621734619,-5.35875415802002,0.07229617983103,-0.29730445146561
105,700681644,-1.42236936092377,-1.28412103652954,23.00160789489746,0.26926210522652,-0.26664119958878,9.79996681213379,-5.43713378906250,0.25141653418541,-0.31997305154800
106,700689977,-1.42288064956665,-1.28375577926636,23.00080299377441,0.26400634646416,-0.29654553532600,9.81390857696533,-5.45549917221069,0.13638299703598,-0.39061707258224
107,700698310,-1.42307722568512,-1.28454315662384,23.00094032287598,0.26652529835701,-0.27834960818291,9.81112861633301,-5.39648389816284,-0.00676215859130,-0.29323175549507
108,700706643,-1.42251253128052,-1.28386008739471,23.00105094909668,0.24730053544044,-0.27135345339775,9.81543922424316,-5.32422637939453,0.17221729457378,-0.27911829948425
109,700714976,-1.42303144931793,-1.28477120399475,23.00074005126953,0.23404708504677,-0.27813753485680,9.82386207580566,-5.43644237518311,-0.02044015750289,-0.34015706181526
110,700723309,-1.42204606533051,-1.28460550308228,23.00052261352539,0.19644537568092,-0.28636562824249,9.79518890380859,-5.27420139312744,0.10928312689066,-0.32081830501556
111,700731642,-1.42237699031830,-1.28477180004120,22.99994087219238,0.18456642329693,-0.27614530920982,9.79460811614990,-5.41408109664917,0.07040072232485,-0.35224694013596
112,700739975,-1.42214822769165,-1.28412830829620,23.00027847290039,0.15220841765404,-0.26845121383667,9.80501079559326,-5.36336469650269,0.16678710281849,-0.25153180956841
113,700748308,-1.42303061485291,-1.28467154502869,23.00009155273438,0.17565806210041,-0.30737772583961,9.79902458190918,-5.48203516006470,0.02288632094860,-0.31938394904137
114,700756641,-1.42303919792175,-1.28375780582428,22.99972915649414,0.15494988858700,-0.28237050771713,9.76712512969971,-5.39233446121216,0.20082841813564,-0.33539283275604
115,700764974,-1.42290222644806,-1.28250074386597,22.99992179870605,0.15969733893871,-0.26270362734795,9.79957771301270,-5.35898447036743,0.23899362981319,-0.26246908307076
116,700773307,-1.42340552806854,-1.28122508525848,23.00001716613770,0.15073196589947,-0.28492245078087,9.80291080474854,-5.45076036453247,0.24181117117405,-0.27980989217758
117,700781640,-1.42366099357605,-1.28045904636383,22.99989128112793,0.13460682332516,-0.28810626268387,9.77626419067383,-5.40506458282471,0.18015772104263,-0.30345186591148
118,700789973,-1.42364740371704,-1.27994167804718,23.00033187866211,0.15681248903275,-0.27415931224823,9.78989505767822,-5.38795471191406,0.15098311007023,-0.24095308780670
119,700798306,-1.42400932312012,-1.28028631210327,22.99965858459473,0.14336086809635,-0.28246563673019,9.80477714538574,-5.42191886901855,0.04762966930866,-0.37865522503853
120,700806639,-1.42380058765411,-1.28066444396973,22.99902534484863,0.15906098484993,-0.27138614654541,9.80264759063721,-5.36784791946411,0.04696370288730,-0.37325066328049
121,700814972,-1.42363035678864,-1.28139460086823,22.99879074096680,0.16700190305710,-0.25801393389702,9.81066322326660,-5.35365676879883,0.00206194608472,-0.32445552945137
122,700823305,-1.42390775680542,-1.28105783462524,22.99850654602051,0.20569777488708,-0.29215583205223,9.78298664093018,-5.42570972442627,0.13118331134319,-0.32781097292900
123,700831638,-1.42353582382202,-1.28175485134125,22.99777793884277,0.19337418675423,-0.27982479333878,9.79292297363281,-5.33180761337280,0.00477705476806,-0.38021770119667
124,700839971,-1.42403399944305,-1.28092467784882,22.99730110168457,0.17089532315731,-0.28056541085243,9.79463768005371,-5.45224618911743,0.19165851175785,-0.35071012377739
125,700848304,-1.42450678348541,-1.28116309642792,22.99759483337402,0.19452953338623,-0.29122284054756,9.79905796051025,-5.43050003051758,0.05887432396412,-0.25345286726952
126,700856637,-1.42450249195099,-1.28101849555969,22.99739074707031,0.22747167944908,-0.29353493452072,9.79092502593994,-5.39136075973511,0.10759259015322,-0.31989619135857
127,700864970,-1.42450046539307,-1.28153800964355,22.99752235412598,0.25362843275070,-0.28074020147324,9.80092048645020,-5.37240648269653,0.02378281764686,-0.25906234979630
128,700873303,-1.42325913906097,-1.28041017055511,22.99772644042969,0.26419651508331,-0.28149631619453,9.79987049102783,-5.24202919006348,0.22516191005707,-0.26741260290146
129,700881636,-1.42360711097717,-1.28022491931915,22.99738121032715,0.28299787640572,-0.28372299671173,9.77316951751709,-5.41718006134033,0.11076876521111,-0.33321559429169
130,700889969,-1.42347812652588,-1.27996182441711,22.99771499633789,0.26724499464035,-0.28331482410431,9.78939819335938,-5.37448120117188,0.12029726803303,-0.25591185688972
131,700898302,-1.42337322235107,-1.28006207942963,22.99810028076172,0.26139625906944,-0.29265582561493,9.79802703857422,-5.35967636108398,0.07580532878637,-0.26756632328033
132,700906635,-1.42371690273285,-1.28077483177185,22.99809455871582,0.26193237304688,-0.27433654665947,9.80087375640869,-5.43295860290527,0.00477705476806,-0.29830339550972
133,700914968,-1.42406368255615,-1.27982461452484,22.99826240539551,0.27432981133461,-0.28032675385475,9.80758476257324,-5.41497755050659,0.20141755044460,-0.28603416681290
134,700923301,-1.42400228977203,-1.27957451343536,22.99847030639648,0.26829075813293,-0.26596048474312,9.78816032409668,-5.38477754592896,0.11860671639442,-0.26935926079750
135,700931634,-1.42346155643463,-1.27994596958160,22.99861526489258,0.28206226229668,-0.30032682418823,9.79177761077881,-5.30878067016602,0.04299349337816,-0.28321656584740
136,700939967,-1.42391514778137,-1.27969157695770,22.99881553649902,0.28914895653725,-0.28068509697914,9.81437873840332,-5.44561195373535,0.12034848332405,-0.26917997002602
137,700948300,-1.42390263080597,-1.27915811538696,22.99931716918945,0.25311046838760,-0.29097920656204,9.79347324371338,-5.37289381027222,0.15134172141552,-0.23229551315308
138,700956633,-1.42375218868256,-1.27907979488373,23.00005340576172,0.23540206253529,-0.29494377970695,9.76552295684814,-5.37069082260132,0.09637356549501,-0.20768021047115
139,700964966,-1.42369794845581,-1.27810144424438,23.00031280517578,0.24243795871735,-0.27280700206757,9.78307914733887,-5.36710500717163,0.20385091006756,-0.25452864170074
140,700973299,-1.42373418807983,-1.27782845497131,23.00097656250000,0.22308889031410,-0.28450757265091,9.81063461303711,-5.39438343048096,0.12196219712496,-0.21490344405174
141,700981632,-1.42448222637177,-1.27798604965210,23.00096321105957,0.20637018978596,-0.31041133403778,9.78349494934082,-5.46295261383057,0.06809543818235,-0.29387208819389
142,700989965,-1.42431533336639,-1.27747821807861,23.00064086914062,0.21276292204857,-0.28102838993073,9.81163024902344,-5.37291908264160,0.15152101218700,-0.33239594101906
143,700998298,-1.42414712905884,-1.27741551399231,23.00081634521484,0.16498348116875,-0.28418019413948,9.80345153808594,-5.35327243804932,0.09532338380814,-0.27076810598373
144,701006631,-1.42494750022888,-1.27813720703125,23.00074386596680,0.16630724072456,-0.27589416503906,9.79593944549561,-5.48836231231689,0.00303528690711,-0.30616694688797
145,701014964,-1.42535674571991,-1.27865326404572,23.00020217895508,0.15504720807076,-0.28179264068604,9.80057048797607,-5.42381381988525,0.02806039527059,-0.35567924380302
146,701023297,-1.42599451541901,-1.27872514724731,23.00010299682617,0.14779387414455,-0.29239505529404,9.80002498626709,-5.46925401687622,0.08123555034399,-0.30819049477577
147,701031630,-1.42490386962891,-1.27951800823212,23.00063133239746,0.13723850250244,-0.29504850506783,9.77884578704834,-5.24154376983643,-0.00852954108268,-0.22906811535358
148,701039963,-1.42457318305969,-1.27920615673065,23.00150299072266,0.13774439692497,-0.28463503718376,9.79214286804199,-5.34863567352295,0.12513834238052,-0.19016006588936
149,701048296,-1.42488586902618,-1.27831363677979,23.00201416015625,0.16400884091854,-0.27030324935913,9.79349613189697,-5.41011047363281,0.19281116127968,-0.23116847872734
150,701056629,-1.42474055290222,-1.27799928188324,23.00162696838379,0.17569203674793,-0.29012906551361,9.78293704986572,-5.37583923339844,0.12869873642921,-0.34084865450859
151,701064962,-1.42396879196167,-1.27849912643433,23.00181579589844,0.18266947567463,-0.29234170913696,9.78311824798584,-5.28150177001953,0.02788109518588,-0.27481514215469
152,701073295,-1.42316567897797,-1.27821874618530,23.00169754028320,0.18685834109783,-0.27916243672371,9.79151439666748,-5.29412937164307,0.12273060530424,-0.30893328785896
153,701081628,-1.42281603813171,-1.27740311622620,23.00171470642090,0.17270234227180,-0.29204714298248,9.77767848968506,-5.33234596252441,0.18645881116390,-0.29773986339569
154,701089961,-1.42293453216553,-1.27689170837402,23.00193023681641,0.17494705319405,-0.28846865892410,9.79737186431885,-5.40427017211914,0.14988169074059,-0.26779681444168
155,701098294,-1.42236125469208,-1.27707934379578,23.00215148925781,0.19832918047905,-0.27507546544075,9.77924823760986,-5.30747461318970,0.06491927802563,-0.27537867426872
156,701106627,-1.42241203784943,-1.27689790725708,23.00201606750488,0.20867076516151,-0.28263252973557,9.79494953155518,-5.39738035202026,0.11179332435131,-0.31121292710304
157,701114960,-1.42250716686249,-1.27629959583282,23.00266075134277,0.22896438837051,-0.29853379726410,9.79640865325928,-5.38431692123413,0.15941019356251,-0.22243404388428
158,701123293,-1.42216682434082,-1.27565515041351,23.00259017944336,0.24853025376797,-0.30025321245193,9.79966449737549,-5.35076284408569,0.16627480089664,-0.30155640840530
159,701131626,-1.42202484607697,-1.27523374557495,23.00321578979492,0.25563788414001,-0.27963554859161,9.81633663177490,-5.35511684417725,0.13579386472702,-0.22374030947685
160,701139959,-1.42152917385101,-1.27559840679169,23.00331306457520,0.25800481438637,-0.29051479697227,9.80181789398193,-5.33280706405640,0.04650264605880,-0.28406187891960
161,701148292,-1.42194950580597,-1.27531516551971,23.00267410278320,0.27150201797485,-0.26180812716484,9.78667545318604,-5.42681121826172,0.12370395660400,-0.37286642193794
162,701156625,-1.42192780971527,-1.27492284774780,23.00222206115723,0.27073982357979,-0.30084866285324,9.79033660888672,-5.38918399810791,0.13904687762260,-0.34802064299583
163,701164958,-1.42150282859802,-1.27389872074127,23.00203132629395,0.30538484454155,-0.29590058326721,9.77366638183594,-5.32430315017700,0.21109974384308,-0.31592598557472
164,701173291,-1.42123973369598,-1.27374100685120,23.00185394287109,0.28883966803551,-0.26061233878136,9.81752490997314,-5.35993194580078,0.10982103645802,-0.31600284576416
165,701181624,-1.42110598087311,-1.27306449413300,23.00165939331055,0.28002291917801,-0.27805018424988,9.76342201232910,-5.35888242721558,0.16911798715591,-0.32043409347534
166,701189957,-1.42069745063782,-1.27230370044708,23.00212097167969,0.29190772771835,-0.29557743668556,9.79560375213623,-5.34113168716431,0.18018333613873,-0.23841731250286
167,701198290,-1.42068207263947,-1.27222895622253,23.00183105468750,0.26203984022141,-0.26799234747887,9.76095008850098,-5.37304639816284,0.09829463064671,-0.32322600483894
168,701206623,-1.42149078845978,-1.27117836475372,23.00163459777832,0.24895256757736,-0.25799366831779,9.79094219207764,-5.49023199081421,0.21663241088390,-0.31505510210991
169,701214956,-1.42184388637543,-1.27125358581543,23.00151443481445,0.24829161167145,-0.29841816425323,9.79308986663818,-5.41743612289429,0.08005728572607,-0.31746280193329
170,701223289,-1.42258071899414,-1.27080094814301,23.00090599060059,0.24784916639328,-0.29549196362495,9.78816604614258,-5.48095941543579,0.14619325101376,-0.36592492461205
171,701231622,-1.42241847515106,-1.27067053318024,23.00038146972656,0.23363932967186,-0.29744023084641,9.81367015838623,-5.35678148269653,0.10454449802637,-0.35647326707840
172,701239955,-1.42171204090118,-1.27092874050140,23.00139617919922,0.23160843551159,-0.29707613587379,9.80598449707031,-5.30401611328125,0.05626166239381,-0.17481715977192
173,701248288,-1.42198157310486,-1.27077496051788,23.00169563293457,0.21886740624905,-0.28832799196243,9.78020477294922,-5.40465497970581,0.10495433211327,-0.25101950764656
174,701256621,-1.42201852798462,-1.27072310447693,23.00080490112305,0.17579305171967,-0.28956818580627,9.79310035705566,-5.39853334426880,0.09883253276348,-0.40265578031540
175,701264954,-1.42249989509583,-1.27111136913300,23.00033569335938,0.17002914845943,-0.27425011992455,9.76921558380127,-5.43239545822144,0.04319841042161,-0.35234943032265
176,701273287,-1.42255258560181,-1.27113890647888,22.99986648559570,0.16396862268448,-0.29269364476204,9.79547405242920,-5.39886569976807,0.08810015767813,-0.35012096166611
177,701281620,-1.42231833934784,-1.27031731605530,22.99986267089844,0.15092258155346,-0.28028979897499,9.77123069763184,-5.34750986099243,0.18633075058460,-0.29704830050468
178,701289953,-1.42222571372986,-1.27042531967163,23.00000572204590,0.14977622032166,-0.28940373659134,9.79943752288818,-5.37947607040405,0.07642007619143,-0.27814498543739
179,701298286,-1.42199420928955,-1.26978278160095,22.99980163574219,0.15256030857563,-0.26751217246056,9.78276538848877,-5.34671545028687,0.16594180464745,-0.31157153844833
180,701306619,-1.42195391654968,-1.26967096328735,22.99999427795410,0.15320591628551,-0.25858849287033,9.78999328613281,-5.38575172424316,0.10165008902550,-0.27064004540443
181,701314952,-1.42151665687561,-1.26989722251892,23.00028038024902,0.16498534381390,-0.29766640067101,9.80399608612061,-5.32256174087524,0.06092346087098,-0.24346332252026
182,701323285,-1.42099916934967,-1.26948070526123,22.99957656860352,0.14510479569435,-0.29856884479523,9.78401184082031,-5.33047628402710,0.14086548984051,-0.37852719426155
183,701331618,-1.42036473751068,-1.26940584182739,22.99946975708008,0.15559612214565,-0.27717074751854,9.80787467956543,-5.29822731018066,0.09867884218693,-0.31818005442619
184,701339951,-1.42086946964264,-1.27040457725525,22.99920082092285,0.16118015348911,-0.28947114944458,9.76084804534912,-5.45314264297485,-0.02994303964078,-0.33044922351837
185,701348284,-1.42099714279175,-1.27025020122528,22.99874114990234,0.17537100613117,-0.29446899890900,9.76906490325928,-5.39164304733276,0.10787434875965,-0.34901955723763
186,701356617,-1.42125487327576,-1.27010560035706,22.99886894226074,0.17340280115604,-0.29273810982704,9.80696964263916,-5.42204666137695,0.10797680169344,-0.27916952967644
187,701364950,-1.42124032974243,-1.27042579650879,22.99809455871582,0.20943598449230,-0.27861636877060,9.79503536224365,-5.37202215194702,0.05116442963481,-0.38534054160118
188,701373283,-1.42088723182678,-1.27028656005859,22.99805259704590,0.21983838081360,-0.27683025598526,9.79705333709717,-5.34986591339111,0.10656802356243,-0.29909741878510
189,701381616,-1.42077839374542,-1.27063584327698,22.99738883972168,0.22096762061119,-0.25738722085953,9.78040885925293,-5.36459398269653,0.04819318279624,-0.37412151694298
190,701389949,-1.42119765281677,-1.27160346508026,22.99733352661133,0.23681850731373,-0.25970679521561,9.79146575927734,-5.44138574600220,-0.02697178907692,-0.30445078015327
191,701398282,-1.42109954357147,-1.27245140075684,22.99711990356445,0.25069406628609,-0.29307702183723,9.79528617858887,-5.36354398727417,-0.01273027528077,-0.32261130213737
192,701406615,-1.42132520675659,-1.27172482013702,22.99689292907715,0.26993370056152,-0.27310320734978,9.78451919555664,-5.41887092590332,0.17772437632084,-0.32166358828545
193,701414948,-1.42111730575562,-1.27099299430847,22.99607086181641,0.28461053967476,-0.28242087364197,9.77952957153320,-5.35409212112427,0.17772436141968,-0.39673891663551
194,701423281,-1.42103826999664,-1.27039849758148,22.99635505676270,0.30220210552216,-0.29651331901550,9.75222873687744,-5.37955331802368,0.16122880578041,-0.25870379805565
195,701431614,-1.42174673080444,-1.26886665821075,22.99686813354492,0.29496452212334,-0.28884604573250,9.77226352691650,-5.45941829681396,0.26996126770973,-0.22991339862347
196,701439947,-1.42259621620178,-1.26845753192902,22.99703979492188,0.29545408487320,-0.28376477956772,9.83397102355957,-5.49228048324585,0.13853456079960,-0.27192071080208
197,701448280,-1.42366111278534,-1.26868462562561,22.99753761291504,0.25688892602921,-0.29831990599632,9.79039478302002,-5.49819803237915,0.05877186357975,-0.24341209232807
198,701456613,-1.42322731018066,-1.26872074604034,22.99730491638184,0.27243298292160,-0.28310951590538,9.78581428527832,-5.34064483642578,0.08722927421331,-0.32289302349091
199,701464946,-1.42314052581787,-1.26875305175781,22.99708366394043,0.25496774911880,-0.27059751749039,9.78382301330566,-5.36344146728516,0.08459100872278,-0.32256007194519
200,701473279,-1.42324876785278,-1.26820862293243,22.99692344665527,0.25660789012909,-0.28242903947830,9.78985786437988,-5.40596055984497,0.15595225989819,-0.31205821037292
201,701481612,-1.42341399192810,-1.26805567741394,22.99711418151855,0.24732813239098,-0.28620931506157,9.78311729431152,-5.39335918426514,0.10605573654175,-0.28073203563690
202,701489945,-1.42343187332153,-1.26829385757446,22.99704360961914,0.23609268665314,-0.27433866262436,9.81121063232422,-5.39282131195068,0.06202486902475,-0.30270904302597
203,701498278,-1.42343878746033,-1.26849436759949,22.99752807617188,0.23493258655071,-0.28335976600647,9.79267311096191,-5.37770891189575,0.06228100880980,-0.24300226569176
204,701506611,-1.42395484447479,-1.26844859123230,22.99718666076660,0.22937558591366,-0.28507441282272,9.83297348022461,-5.45334720611572,0.09711636602879,-0.33603313565254
205,701514944,-1.42492854595184,-1.26806223392487,22.99752807617188,0.20344288647175,-0.27160772681236,9.81007575988770,-5.49005222320557,0.13351419568062,-0.25657778978348
206,701523277,-1.42450869083405,-1.26787519454956,22.99663543701172,0.18526601791382,-0.29434615373611,9.77043056488037,-5.34323167800903,0.11430353671312,-0.40132382512093
207,701531610,-1.42436718940735,-1.26849043369293,22.99648284912109,0.18904574215412,-0.28243115544319,9.79001808166504,-5.35632085800171,0.01481783576310,-0.31905090808868
208,701539943,-1.42438054084778,-1.26827752590179,22.99612045288086,0.17650134861469,-0.28101727366447,9.81735324859619,-5.39438343048096,0.11678811162710,-0.33933740854263
209,701548276,-1.42419755458832,-1.26844584941864,22.99547386169434,0.15472541749477,-0.28911560773849,9.80855751037598,-5.35406732559204,0.06904317438602,-0.37007448077202
210,701556609,-1.42408871650696,-1.26885986328125,22.99562072753906,0.12085386365652,-0.31337526440620,9.80064392089844,-5.37824678421021,0.04063698649406,-0.27868288755417
211,701564942,-1.42433393001556,-1.26854360103607,22.99538612365723,0.15936338901520,-0.27273318171501,9.78870105743408,-5.40524339675903,0.12647028267384,-0.30988100171089
212,701573275,-1.42448735237122,-1.26839959621429,22.99574661254883,0.13981287181377,-0.26521593332291,9.79813766479492,-5.40793371200562,0.10626066476107,-0.25063532590866
213,701581608,-1.42500734329224,-1.26888382434845,22.99540710449219,0.15895070135593,-0.28990972042084,9.79461002349854,-5.43654441833496,0.03054497390985,-0.33111515641212
214,701589941,-1.42382383346558,-1.26948976516724,22.99608230590820,0.17015920579433,-0.27505680918694,9.80962467193604,-5.24815177917480,0.01550941914320,-0.21541571617126
215,701598274,-1.42369043827057,-1.26947796344757,22.99531555175781,0.17378672957420,-0.27787017822266,9.80343341827393,-5.36057233810425,0.09109701961279,-0.37847590446472
216,701606607,-1.42394483089447,-1.26903593540192,22.99534606933594,0.18589626252651,-0.27899703383446,9.81068706512451,-5.42173910140991,0.14306829869747,-0.28805768489838
217,701614940,-1.42344033718109,-1.26930105686188,22.99483299255371,0.19805632531643,-0.26869308948517,9.80332088470459,-5.31446743011475,0.05802904814482,-0.34294900298119
218,701623273,-1.42275512218475,-1.26889896392822,22.99493598937988,0.17753517627716,-0.26922309398651,9.80041790008545,-5.30796098709106,0.13630615174770,-0.28129553794861
219,701631606,-1.42216956615448,-1.26857388019562,22.99437141418457,0.21121107041836,-0.27726146578789,9.77922058105469,-5.30588626861572,0.12885239720345,-0.36618110537529
220,701639939,-1.42278361320496,-1.26943969726562,22.99406623840332,0.23595097661018,-0.27249005436897,9.78743457794189,-5.46556568145752,-0.01237167604268,-0.33388155698776
221,701648272,-1.42304134368896,-1.26949226856232,22.99441719055176,0.23493538796902,-0.28254997730255,9.76748180389404,-5.40667772293091,0.08008290827274,-0.24873982369900
222,701656605,-1.42299640178680,-1.26838171482086,22.99413681030273,0.25973603129387,-0.28623199462891,9.78019332885742,-5.38649463653564,0.22521317005157,-0.32576185464859
223,701664938,-1.42256593704224,-1.26823949813843,22.99388504028320,0.26377218961716,-0.28520980477333,9.80171394348145,-5.32427787780762,0.10459573566914,-0.30737084150314
224,701673271,-1.42106294631958,-1.26911342144012,22.99435424804688,0.26447206735611,-0.27382028102875,9.80712127685547,-5.21101093292236,-0.01654679514468,-0.24172149598598
225,701681604,-1.42154610157013,-1.26948535442352,22.99436950683594,0.27782857418060,-0.30049055814743,9.76920604705811,-5.43106317520142,0.04391560703516,-0.29694581031799
226,701689937,-1.42216873168945,-1.26975977420807,22.99394798278809,0.27209043502808,-0.29619130492210,9.80629634857178,-5.46656465530396,0.05874624475837,-0.34650936722755
227,701698270,-1.42181611061096,-1.26977109909058,22.99393463134766,0.27538618445396,-0.26237517595291,9.76449871063232,-5.33114194869995,0.08676821738482,-0.28877487778664
228,701706603,-1.42215585708618,-1.26998043060303,22.99312782287598,0.28413069248199,-0.29505345225334,9.80257701873779,-5.43539142608643,0.06717333197594,-0.39312723278999
229,701714936,-1.42264628410339,-1.26966726779938,22.99316787719727,0.27071350812912,-0.27991655468941,9.78712654113770,-5.43408584594727,0.12436992675066,-0.27940011024475
230,701723269,-1.42332410812378,-1.26974999904633,22.99393272399902,0.27225291728973,-0.28213831782341,9.78487873077393,-5.46897220611572,0.07854604721069,-0.20347948372364
231,701731602,-1.42412900924683,-1.27051615715027,22.99357223510742,0.25000718235970,-0.28575190901756,9.78428363800049,-5.47317314147949,-0.00245896680281,-0.33590507507324
232,701739935,-1.42376744747162,-1.27129197120667,22.99333763122559,0.25652441382408,-0.30141985416412,9.81475257873535,-5.34912347793579,-0.00309932255186,-0.32612046599388
233,701748268,-1.42386472225189,-1.27143871784210,22.99316024780273,0.22673819959164,-0.27952218055725,9.79032039642334,-5.38388109207153,0.07070809602737,-0.30803677439690
234,701756601,-1.42407238483429,-1.27185225486755,22.99285888671875,0.22790357470512,-0.28434413671494,9.80214405059814,-5.41771841049194,0.04153348878026,-0.33306190371513
235,701764934,-1.42467236518860,-1.27156507968903,22.99245834350586,0.21457958221436,-0.28798440098763,9.80706501007080,-5.44865989685059,0.12485659122467,-0.35024905204773
236,701773267,-1.42461872100830,-1.27193415164948,22.99229431152344,0.22500295937061,-0.27007117867470,9.78893756866455,-5.38564920425415,0.04565737396479,-0.31646388769150
237,701781600,-1.42529428005219,-1.27157747745514,22.99238014221191,0.19259327650070,-0.28187343478203,9.77545928955078,-5.45531988143921,0.13146506249905,-0.28016853332520
238,701789933,-1.42552936077118,-1.27212548255920,22.99243927001953,0.19865964353085,-0.29323771595955,9.76206970214844,-5.41984462738037,0.02426948584616,-0.28895416855812
239,701798266,-1.39992213249207,-1.27362704277039,23.02636337280273,0.17841000854969,-0.26976147294044,9.81771564483643,-5.41133975982666,0.15756595134735,-0.24023586511612
240,701806599,-1.40042150020599,-1.27411758899689,23.02632522583008,0.14195357263088,-0.27549329400063,9.80601024627686,-5.45270681381226,0.03218428790569,-0.30019885301590
241,701814932,-1.40107977390289,-1.27369654178619,23.02645111083984,0.15198864042759,-0.29464361071587,9.79455184936523,-5.45252799987793,0.13904687762260,-0.28037339448929
242,701823265,-1.40091609954834,-1.27406239509583,23.02576637268066,0.16972577571869,-0.28755092620850,9.83556652069092,-5.37494230270386,0.04788580909371,-0.38124224543571
243,701831598,-1.40104913711548,-1.27360057830811,23.02536392211914,0.15420760214329,-0.25972789525986,9.81249618530273,-5.39376878738403,0.14501500129700,-0.34607392549515
244,701839931,-1.40133154392242,-1.27319204807281,23.02442550659180,0.16589297354221,-0.27155047655106,9.79532623291016,-5.42891168594360,0.14237672090530,-0.40772739052773
245,701848264,-1.40153920650482,-1.27334141731262,23.02421188354492,0.18377119302750,-0.27331289649010,9.79638290405273,-5.39940357208252,0.07070809602737,-0.31269854307175
246,701856597,-1.40144145488739,-1.27393388748169,23.02421569824219,0.15884321928024,-0.27257180213928,9.76623916625977,-5.38216543197632,0.01860874146223,-0.29748374223709
247,701864930,-1.40213048458099,-1.27384150028229,23.02383041381836,0.18044780194759,-0.28406652808189,9.82499790191650,-5.45864963531494,0.10118904709816,-0.34607395529747
248,701873263,-1.40183937549591,-1.27366983890533,23.02334403991699,0.17660424113274,-0.28780773282051,9.82118320465088,-5.35959959030151,0.11212632060051,-0.35452666878700
249,701881596,-1.40259671211243,-1.27430224418640,23.02391242980957,0.18508350849152,-0.27298060059547,9.81069564819336,-5.46569395065308,0.01138552837074,-0.22740319371223
250,701889929,-1.40224671363831,-1.27405405044556,23.02422332763672,0.20996636152267,-0.29233318567276,9.79573059082031,-5.35007047653198,0.11768461763859,-0.25911357998848
251,701898262,-1.40206599235535,-1.27435779571533,23.02373504638672,0.21396104991436,-0.28170746564865,9.80941867828369,-5.35201740264893,0.05382831022143,-0.35355326533318
252,701906595,-1.40262472629547,-1.27482318878174,23.02383804321289,0.22591926157475,-0.27926215529442,9.81856155395508,-5.46003293991089,0.03415658697486,-0.28580367565155
253,701914928,-1.40295529365540,-1.27546930313110,23.02385139465332,0.24825261533260,-0.29232633113861,9.77028846740723,-5.41464471817017,0.01071955729276,-0.30583396553993
254,701923261,-1.40222370624542,-1.27513086795807,23.02384376525879,0.26072049140930,-0.27320307493210,9.79181861877441,-5.30501604080200,0.12997944653034,-0.29661285877228
255,701931594,-1.40223169326782,-1.27493381500244,23.02459335327148,0.25326016545296,-0.28103137016296,9.79131507873535,-5.37353372573853,0.10992348194122,-0.21047218143940
256,701939927,-1.40222561359406,-1.27395308017731,23.02428436279297,0.26808056235313,-0.29108631610870,9.78481960296631,-5.39302635192871,0.20907621085644,-0.33039805293083
257,701948260,-1.40298545360565,-1.27472734451294,23.02415847778320,0.28783917427063,-0.28946748375893,9.78115558624268,-5.46738433837891,-0.00366283534095,-0.32104882597923
258,701956593,-1.40357935428619,-1.27488327026367,23.02420043945312,0.28256666660309,-0.27119290828705,9.79031276702881,-5.46392679214478,0.07091300934553,-0.29043981432915
259,701964926,-1.40439963340759,-1.27475464344025,23.02413749694824,0.29002735018730,-0.27021190524101,9.77442741394043,-5.47476100921631,0.10351993888617,-0.30580833554268
260,701973259,-1.40416562557220,-1.27489340305328,23.02351188659668,0.28242841362953,-0.29255369305611,9.79441547393799,-5.36536312103271,0.07519058883190,-0.37148326635361
261,701981592,-1.40479731559753,-1.27503705024719,23.02354431152344,0.25494235754013,-0.27428442239761,9.80676937103271,-5.45055532455444,0.07058002799749,-0.28887733817101
262,701989925,-1.40544748306274,-1.27501225471497,23.02387237548828,0.24728108942509,-0.28474825620651,9.81508541107178,-5.47073984146118,0.09255705028772,-0.25655218958855
263,701998258,-1.40572857856750,-1.27542817592621,23.02342605590820,0.25658845901489,-0.28977212309837,9.80639076232910,-5.40949630737305,0.03884398564696,-0.33692961931229
264,702006591,-1.40603935718536,-1.27586734294891,23.02378273010254,0.24049423635006,-0.28626686334610,9.78216552734375,-5.42921876907349,0.03707660362124,-0.25593742728233
265,702014924,-1.40654218196869,-1.27614510059357,23.02384757995605,0.23179985582829,-0.30321606993675,9.77918338775635,-5.43749189376831,0.05487849563360,-0.29666405916214
266,702023257,-1.40691626071930,-1.27595388889313,23.02446937561035,0.22292543947697,-0.28768214583397,9.78805255889893,-5.43595504760742,0.11215192079544,-0.22317682206631
267,702031590,-1.40754115581512,-1.27549135684967,23.02436637878418,0.21842877566814,-0.27520442008972,9.78104877471924,-5.44845438003540,0.14281216263771,-0.29420506954193
268,702039923,-1.40756475925446,-1.27575528621674,23.02447319030762,0.18578888475895,-0.26372420787811,9.79124355316162,-5.39548492431641,0.05828518792987,-0.28577801585197
269,702048256,-1.40799212455750,-1.27630114555359,23.02446937561035,0.17599272727966,-0.30397456884384,9.79702949523926,-5.42640113830566,0.02442317269742,-0.30819046497345
270,702056589,-1.40815758705139,-1.27568817138672,23.02435684204102,0.18302151560783,-0.29111456871033,9.82315826416016,-5.41354322433472,0.16340601444244,-0.30767819285393
271,702064922,-1.40737056732178,-1.27549612522125,23.02423667907715,0.17015624046326,-0.27473747730255,9.79161643981934,-5.28173208236694,0.11217753589153,-0.30606451630592
272,702073255,-1.40674209594727,-1.27542221546173,23.02398490905762,0.18485940992832,-0.28990417718887,9.79616737365723,-5.31836080551147,0.09875569492579,-0.32581308484077
273,702081588,-1.40660977363586,-1.27499222755432,23.02391815185547,0.16262023150921,-0.28219568729401,9.78015708923340,-5.35941982269287,0.14204372465611,-0.30501428246498
274,702089921,-1.40636670589447,-1.27471780776978,23.02364349365234,0.15238365530968,-0.28452134132385,9.79594135284424,-5.36500406265259,0.12344779819250,-0.32701691985130
275,702098254,-1.40591943264008,-1.27453279495239,23.02399826049805,0.15523023903370,-0.28680947422981,9.80568218231201,-5.31892347335815,0.10959051549435,-0.25860133767128
276,702106587,-1.40605449676514,-1.27467894554138,23.02352714538574,0.13769109547138,-0.28650054335594,9.81893730163574,-5.41090488433838,0.07470392435789,-0.35347646474838
277,702114920,-1.40544986724854,-1.27450346946716,23.02390098571777,0.16176934540272,-0.29239302873611,9.76362800598145,-5.30099439620972,0.10718277096748,-0.24873982369900
278,702123253,-1.40496623516083,-1.27379822731018,23.02379226684570,0.18631507456303,-0.29887047410011,9.78531455993652,-5.33616209030151,0.17577768862247,-0.30854907631874
279,702131586,-1.40491104125977,-1.27345407009125,23.02340888977051,0.20783571898937,-0.30464968085289,9.79001903533936,-5.36871862411499,0.13020996749401,-0.33326682448387
280,702139919,-1.40563440322876,-1.27358949184418,23.02323341369629,0.19069468975067,-0.27907851338387,9.80933570861816,-5.47965288162231,0.07350004464388,-0.31851297616959
281,702148252,-1.40637660026550,-1.27453327178955,23.02183151245117,0.20398619771004,-0.29036280512810,9.80126190185547,-5.46684646606445,-0.02064507268369,-0.46387380361557
282,702156585,-1.40673696994781,-1.27539396286011,23.02099227905273,0.17881500720978,-0.29178521037102,9.78270626068115,-5.43792772293091,-0.01088604982942,-0.40027365088463
283,702164918,-1.40713191032410,-1.27514815330505,23.02112770080566,0.21931694447994,-0.26793563365936,9.78693008422852,-5.42401981353760,0.11822250485420,-0.28675138950348
284,702173251,-1.40763151645660,-1.27491319179535,23.02139472961426,0.23537595570087,-0.27885234355927,9.79731178283691,-5.45122241973877,0.11768461763859,-0.26538911461830
285,702181584,-1.40722465515137,-1.27518022060394,23.02090263366699,0.25829169154167,-0.30142867565155,9.78931808471680,-5.32822179794312,0.05800342932343,-0.35071009397507
286,702189917,-1.40673172473907,-1.27522146701813,23.01988410949707,0.25580415129662,-0.27730867266655,9.76726818084717,-5.33554744720459,0.08784402161837,-0.41848534345627
287,702198250,-1.40661752223969,-1.27456200122833,23.01959228515625,0.27583205699921,-0.27681666612625,9.80160522460938,-5.36190462112427,0.16809344291687,-0.33485490083694
288,702206583,-1.40582215785980,-1.27530622482300,23.01968383789062,0.28815862536430,-0.31165516376495,9.84117031097412,-5.29722833633423,0.00024333520560,-0.28785276412964
289,702214916,-1.40631568431854,-1.27542853355408,23.02007293701172,0.25190761685371,-0.28537449240685,9.79210090637207,-5.43313789367676,0.07198880612850,-0.23872469365597
290,702223249,-1.40678119659424,-1.27548074722290,23.02072715759277,0.28071948885918,-0.28845068812370,9.79748058319092,-5.44737911224365,0.08200397342443,-0.21928344666958
291,702231582,-1.40703177452087,-1.27557766437531,23.02052307128906,0.27040240168571,-0.27616065740585,9.79977989196777,-5.40529489517212,0.07713726162910,-0.32773408293724
292,702239915,-1.40655744075775,-1.27527010440826,23.02018356323242,0.25932919979095,-0.28586947917938,9.80019760131836,-5.33646965026855,0.12793028354645,-0.33659663796425
293,702248248,-1.40705299377441,-1.27555406093597,23.02088928222656,0.29138243198395,-0.27615243196487,9.80100345611572,-5.43324041366577,0.05229146033525,-0.21036970615387
294,702256581,-1.40679407119751,-1.27488481998444,23.02016448974609,0.26791253685951,-0.28792250156403,9.79283809661865,-5.36344146728516,0.17219169437885,-0.38267669081688
295,702264914,-1.40682685375214,-1.27452003955841,23.02017021179199,0.25876748561859,-0.26370936632156,9.79566478729248,-5.38203763961792,0.13356542587280,-0.29584440588951
296,702273247,-1.40679013729095,-1.27457141876221,23.01996612548828,0.21477022767067,-0.27989131212234,9.75728321075439,-5.38882541656494,0.08361767232418,-0.32110005617142
297,702281580,-1.40736627578735,-1.27428388595581,23.02013778686523,0.21444995701313,-0.28825622797012,9.76218795776367,-5.44507360458374,0.12406254559755,-0.27015331387520
298,702289913,-1.40722489356995,-1.27418434619904,23.01992034912109,0.20960004627705,-0.29118788242340,9.78083992004395,-5.37673568725586,0.10236729681492,-0.32458356022835
299,702298246,-1.40714108943939,-1.27333879470825,23.01985168457031,0.19815000891685,-0.27380523085594,9.80232715606689,-5.36646413803101,0.19137676060200,-0.31464529037476
300,702306579,-1.40753269195557,-1.27313375473022,23.01943778991699,0.16948701441288,-0.27770277857780,9.82000064849854,-5.44153928756714,0.11494388431311,-0.34658619761467
301,702314912,-1.40731585025787,-1.27271282672882,23.01878547668457,0.19305765628815,-0.30184864997864,9.79717350006104,-5.35163307189941,0.14140336215496,-0.37471064925194
302,702323245,-1.40726959705353,-1.27209091186523,23.01867103576660,0.17253297567368,-0.27675676345825,9.80776977539062,-5.38721227645874,0.16527585685253,-0.30793434381485
303,702331578,-1.40773439407349,-1.27198028564453,23.01844406127930,0.15958113968372,-0.27389055490494,9.79428768157959,-5.43183135986328,0.10200869292021,-0.31654068827629
304,702339911,-1.40847754478455,-1.27218747138977,23.01841354370117,0.14828380942345,-0.27993342280388,9.79655361175537,-5.48149728775024,0.06484244018793,-0.30096727609634
305,702348244,-1.40800869464874,-1.27275633811951,23.01874923706055,0.13361385464668,-0.30114713311195,9.80947303771973,-5.31759214401245,0.02011998370290,-0.27064004540443
306,702356577,-1.40813064575195,-1.27184665203094,23.01872444152832,0.12282723933458,-0.29199814796448,9.78261470794678,-5.40739536285400,0.19939400255680,-0.29648476839066
307,702364910,-1.40852093696594,-1.27185046672821,23.01784706115723,0.16400447487831,-0.29273188114166,9.79412269592285,-5.42076539993286,0.08968823403120,-0.38554543256760
308,702373243,-1.40873301029205,-1.27174246311188,23.01739883422852,0.15526697039604,-0.29066663980484,9.77020454406738,-5.42030525207520,0.10487748682499,-0.35024902224541
309,702381576,-1.40931439399719,-1.27246606349945,23.01692581176758,0.16845360398293,-0.25966286659241,9.80411148071289,-5.44581699371338,0.00316335819662,-0.35078695416451
310,702389909,-1.40937292575836,-1.27220451831818,23.01692199707031,0.17673440277576,-0.29091253876686,9.80571842193604,-5.39986562728882,0.12047655880451,-0.29620301723480
311,702398242,-1.40917718410492,-1.27125644683838,23.01633071899414,0.17386426031590,-0.27705654501915,9.80096721649170,-5.35355424880981,0.20497791469097,-0.35770276188850
312,702406575,-1.40895867347717,-1.27161550521851,23.01660728454590,0.20351514220238,-0.27144542336464,9.81837749481201,-5.36641311645508,0.04481210187078,-0.26469749212265
313,702414908,-1.40843427181244,-1.27144229412079,23.01658058166504,0.22552198171616,-0.30084004998207,9.79707908630371,-5.31075239181519,0.11028208583593,-0.30629500746727
314,702423241,-1.40888655185699,-1.27071225643158,23.01677131652832,0.22975002229214,-0.28276434540749,9.79457950592041,-5.44679021835327,0.17654611170292,-0.27197197079659
315,702431574,-1.40845978260040,-1.27140343189240,23.01671409606934,0.24284118413925,-0.28832495212555,9.82540130615234,-5.32386732101440,0.00600653840229,-0.31205824017525
316,702439907,-1.40801644325256,-1.27200543880463,23.01700019836426,0.26595807075500,-0.28308197855949,9.78609085083008,-5.33859539031982,0.01622661761940,-0.26464626193047
317,702448240,-1.40842497348785,-1.27248501777649,23.01689147949219,0.25725772976875,-0.27178648114204,9.79653358459473,-5.42448043823242,0.03154393285513,-0.30375921726227
318,702456573,-1.40885877609253,-1.27185118198395,23.01777076721191,0.26305344700813,-0.29476484656334,9.80320072174072,-5.44243621826172,0.16345724463463,-0.18841832876205
319,702464906,-1.40894734859467,-1.27200210094452,23.01834678649902,0.27442613244057,-0.29026821255684,9.81987285614014,-5.38447046279907,0.06850527226925,-0.22932425141335
320,702473239,-1.40832316875458,-1.27251601219177,23.01878356933594,0.30346599221230,-0.27492150664330,9.80087852478027,-5.31600379943848,0.02777864038944,-0.24594788253307
321,702481572,-1.40847635269165,-1.27221643924713,23.01948547363281,0.29089805483818,-0.29110699892044,9.80139827728271,-5.39207839965820,0.12170603871346,-0.21134306490421
322,702489905,-1.40844380855560,-1.27153885364532,23.01912117004395,0.27746841311455,-0.28384765982628,9.79403495788574,-5.38864612579346,0.17252469062805,-0.33836409449577
323,702498238,-1.40860736370087,-1.27110731601715,23.01889801025391,0.27063810825348,-0.28756660223007,9.81526184082031,-5.39584350585938,0.13986653089523,-0.31841057538986
324,702506571,-1.40854871273041,-1.27136635780334,23.01882743835449,0.26243054866791,-0.25917923450470,9.79329872131348,-5.38534116744995,0.06007818505168,-0.30606448650360
325,702514904,-1.40877640247345,-1.27045667171478,23.01895713806152,0.25924667716026,-0.28315791487694,9.79545211791992,-5.40068483352661,0.19737049937248,-0.28337031602859
326,702523237,-1.40835738182068,-1.26985371112823,23.01963806152344,0.23906204104424,-0.28946226835251,9.78819370269775,-5.34161758422852,0.15966632962227,-0.21369956433773
327,702531570,-1.40890288352966,-1.26963794231415,23.01872062683105,0.22507914900780,-0.28316563367844,9.79512119293213,-5.44156503677368,0.11668565869331,-0.39771220088005
328,702539903,-1.40899741649628,-1.26971614360809,23.01892852783203,0.23967771232128,-0.28488221764565,9.78726577758789,-5.40357971191406,0.08059519529343,-0.27199760079384
329,702548236,-1.40912961959839,-1.26936018466949,23.01904296875000,0.22634501755238,-0.28295779228210,9.82637882232666,-5.39151525497437,0.13169559836388,-0.28057834506035
330,702556569,-1.40879297256470,-1.26937770843506,23.01906967163086,0.23215568065643,-0.29866153001785,9.78288936614990,-5.35217142105103,0.08664014190435,-0.29438439011574
331,702564902,-1.40893852710724,-1.27010560035706,23.01976776123047,0.17906847596169,-0.29034739732742,9.80328464508057,-5.38982391357422,0.00016649253666,-0.21223953366280
332,702573235,-1.40943670272827,-1.27038025856018,23.01940727233887,0.18315193057060,-0.28265881538391,9.77696704864502,-5.45291233062744,0.05800344049931,-0.34187319874763
333,702581568,-1.40947270393372,-1.27089524269104,23.01921081542969,0.18396478891373,-0.27898716926575,9.78669452667236,-5.38083362579346,0.02849583700299,-0.31587475538254
334,702589901,-1.40967893600464,-1.27097558975220,23.01911163330078,0.16262847185135,-0.27951145172119,9.76197528839111,-5.41738510131836,0.08036466687918,-0.30780625343323
335,702598234,-1.40986931324005,-1.27016520500183,23.01883506774902,0.16051734983921,-0.29269865155220,9.76991176605225,-5.39784240722656,0.18671497702599,-0.31882038712502
336,702606567,-1.40988492965698,-1.26961588859558,23.01844406127930,0.15757709741592,-0.28863897919655,9.77696418762207,-5.39586925506592,0.15638771653175,-0.34207811951637
337,702614900,-1.40981543064117,-1.26975214481354,23.01856803894043,0.16034416854382,-0.27164164185524,9.80895709991455,-5.36508083343506,0.07109230756760,-0.28649520874023
338,702623233,-1.40882408618927,-1.27120578289032,23.01823616027832,0.15662050247192,-0.27350038290024,9.80440425872803,-5.27491807937622,-0.08270835876465,-0.34018263220787
339,702631566,-1.40907812118530,-1.27177536487579,23.01834297180176,0.15572351217270,-0.29280418157578,9.79671859741211,-5.40619230270386,0.02011998370290,-0.27663376927376
340,702639899,-1.40915060043335,-1.27130842208862,23.01784706115723,0.15035951137543,-0.28985115885735,9.77979564666748,-5.40178537368774,0.14724342525005,-0.35637083649635
341,702648232,-1.40920269489288,-1.27093434333801,23.01793479919434,0.18409273028374,-0.28367292881012,9.78599262237549,-5.38275432586670,0.13202857971191,-0.26602944731712
342,702656565,-1.40952742099762,-1.27141296863556,23.01807212829590,0.20528417825699,-0.28424283862114,9.75357627868652,-5.43201065063477,0.03290148451924,-0.28160288929939
343,702664898,-1.40937292575836,-1.27096939086914,23.01721572875977,0.21311238408089,-0.27603420615196,9.80535221099854,-5.35988140106201,0.14432342350483,-0.40767616033554
344,702673231,-1.40950107574463,-1.27125954627991,23.01705360412598,0.20433939993382,-0.28971683979034,9.79973888397217,-5.40742111206055,0.05551885440946,-0.31600284576416
345,702681564,-1.40875232219696,-1.27170896530151,23.01628303527832,0.21784256398678,-0.28098949790001,9.80704307556152,-5.28800773620605,0.03712783381343,-0.38564789295197
346,702689897,-1.40944766998291,-1.27183830738068,23.01604652404785,0.23508460819721,-0.28278243541718,9.82432651519775,-5.47668266296387,0.07465269416571,-0.32524958252907
347,702698230,-1.40971529483795,-1.27226459980011,23.01588058471680,0.22536687552929,-0.30753794312477,9.77045440673828,-5.40603780746460,0.03815240040421,-0.32158669829369
348,702706563,-1.40942513942719,-1.27085399627686,23.01570320129395,0.22356617450714,-0.28729468584061,9.81765937805176,-5.35921478271484,0.25997167825699,-0.31349262595177
349,702714896,-1.40919840335846,-1.27112388610840,23.01607704162598,0.25234714150429,-0.26689440011978,9.79614162445068,-5.34661340713501,0.05500657111406,-0.25114756822586
350,702723229,-1.40940582752228,-1.27069401741028,23.01635360717773,0.27907148003578,-0.30960521101952,9.76642894744873,-5.41723108291626,0.14017389714718,-0.26252028346062
351,702731562,-1.40965139865875,-1.27001738548279,23.01591300964355,0.27533802390099,-0.27843856811523,9.80387210845947,-5.40593576431274,0.17178186774254,-0.34597146511078
352,702739895,-1.40937769412994,-1.26919257640839,23.01609420776367,0.29678839445114,-0.28964549303055,9.81431770324707,-5.35983037948608,0.18881535530090,-0.27340635657310
353,702748228,-1.40961670875549,-1.26904761791229,23.01585960388184,0.26953098177910,-0.28346833586693,9.78940582275391,-5.40432214736938,0.10661926120520,-0.31387683749199
354,702756561,-1.40946280956268,-1.26837766170502,23.01651954650879,0.29461458325386,-0.30335190892220,9.77057266235352,-5.37299585342407,0.16737623512745,-0.21636345982552
355,702764894,-1.40996384620667,-1.26851916313171,23.01635551452637,0.25199428200722,-0.27218860387802,9.77637100219727,-5.43843984603882,0.07329513132572,-0.33024433255196
356,702773227,-1.41009926795959,-1.26813566684723,23.01701545715332,0.25159943103790,-0.29457902908325,9.79703426361084,-5.40616607666016,0.13433386385441,-0.21579992771149
357,702781560,-1.41079604625702,-1.26751530170441,23.01708602905273,0.24458107352257,-0.28338822722435,9.76593875885010,-5.45911073684692,0.16279128193855,-0.28670015931129
358,702789893,-1.41073024272919,-1.26704776287079,23.01691246032715,0.25024843215942,-0.29532307386398,9.80209827423096,-5.38521385192871,0.14557848870754,-0.31564423441887
359,702798226,-1.41083049774170,-1.26658058166504,23.01747894287109,0.21833138167858,-0.28316909074783,9.79275989532471,-5.38526487350464,0.14360621571541,-0.21083079278469
360,702806559,-1.41180133819580,-1.26602172851562,23.01789093017578,0.19866468012333,-0.29819589853287,9.82471656799316,-5.50767564773560,0.15631087124348,-0.24628087878227
361,702814892,-1.41221153736115,-1.26584637165070,23.01781272888184,0.21005256474018,-0.26744312047958,9.81280231475830,-5.42471075057983,0.11002594232559,-0.30370801687241
362,702823225,-1.41216099262238,-1.26546335220337,23.01773071289062,0.19990584254265,-0.28686925768852,9.80196475982666,-5.38754463195801,0.13594755530357,-0.30442515015602
363,702831558,-1.41288542747498,-1.26548111438751,23.01782608032227,0.20085045695305,-0.29343056678772,9.77687835693359,-5.46000671386719,0.08525697886944,-0.28406187891960
364,702839891,-1.41289472579956,-1.26512825489044,23.01784896850586,0.20446392893791,-0.28224995732307,9.79517078399658,-5.39369201660156,0.13336052000523,-0.29300123453140
365,702848224,-1.41320097446442,-1.26598811149597,23.01724243164062,0.20718440413475,-0.28109642863274,9.76510620117188,-5.41464424133301,-0.01395975612104,-0.36671897768974
366,702856557,-1.41335451602936,-1.26622688770294,23.01755332946777,0.16562351584435,-0.29486912488937,9.79651737213135,-5.41044425964355,0.06087223440409,-0.25954905152321
367,702864890,-1.41334438323975,-1.26646745204926,23.01720809936523,0.14962315559387,-0.27895268797874,9.79924106597900,-5.37368631362915,0.06105152517557,-0.33365100622177
368,702873223,-1.41363549232483,-1.26687324047089,23.01698112487793,0.14432953298092,-0.28884357213974,9.79571914672852,-5.42816877365112,0.04194331541657,-0.32591551542282
369,702881556,-1.41405248641968,-1.26724600791931,23.01707267761230,0.15791046619415,-0.27968829870224,9.80079269409180,-5.42432689666748,0.04386437684298,-0.28769910335541
370,702889889,-1.41373980045319,-1.26683557033539,23.01666831970215,0.14995482563972,-0.29247212409973,9.81644535064697,-5.35716629028320,0.13971285521984,-0.34343564510345
371,702898222,-1.41451704502106,-1.26716804504395,23.01652717590332,0.17002496123314,-0.28014853596687,9.79595184326172,-5.46758890151978,0.04885915666819,-0.31356948614120
372,702906555,-1.41442561149597,-1.26623678207397,23.01633453369141,0.18247942626476,-0.28331887722015,9.79583740234375,-5.38257551193237,0.20149438083172,-0.31794950366020
373,702914888,-1.41430556774139,-1.26609265804291,23.01601600646973,0.19141314923763,-0.26063564419746,9.80498504638672,-5.36177635192871,0.10713153332472,-0.33155065774918
374,702923221,-1.41314542293549,-1.26680767536163,23.01581382751465,0.19011819362640,-0.28009000420570,9.80357265472412,-5.25458097457886,0.00526372576132,-0.32222712039948
375,702931554,-1.41392993927002,-1.26656126976013,23.01525497436523,0.18010117113590,-0.30565428733826,9.79914855957031,-5.47194385528564,0.11891409009695,-0.36743623018265
376,702939887,-1.41399979591370,-1.26635515689850,23.01473045349121,0.19735196232796,-0.27935934066772,9.82401275634766,-5.40242624282837,0.11747968196869,-0.36011052131653
377,702948220,-1.41408002376556,-1.26610934734344,23.01519775390625,0.22714155912399,-0.27984789013863,9.80390548706055,-5.38283109664917,0.11601967364550,-0.23575343191624
378,702956553,-1.41439676284790,-1.26638567447662,23.01490402221680,0.24841348826885,-0.28454554080963,9.81437492370605,-5.43249797821045,0.05869502574205,-0.33278015255928
379,702964886,-1.41421306133270,-1.26640915870667,23.01412391662598,0.26108244061470,-0.27166062593460,9.79521083831787,-5.35253000259399,0.08756227046251,-0.38728722929955
380,702973219,-1.41373109817505,-1.26698803901672,23.01361656188965,0.26170665025711,-0.27235484123230,9.81241798400879,-5.33636713027954,0.02239964716136,-0.35913714766502
381,702981552,-1.41334557533264,-1.26669943332672,23.01338577270508,0.25684258341789,-0.27946451306343,9.79623031616211,-5.33006620407104,0.12355026602745,-0.32834887504578
382,702989885,-1.41316342353821,-1.26619601249695,23.01252555847168,0.25502929091454,-0.26954725384712,9.81302261352539,-5.37294435501099,0.15292979776859,-0.39881366491318
383,702998218,-1.41314780712128,-1.26673245429993,23.01168632507324,0.26706981658936,-0.27467420697212,9.78596019744873,-5.37517261505127,0.02583195641637,-0.39538133144379
384,703006551,-1.41367137432098,-1.26671755313873,23.01154518127441,0.28396114706993,-0.25864973664284,9.79154014587402,-5.45603704452515,0.09291563183069,-0.31479898095131
385,703014884,-1.41403663158417,-1.26656997203827,23.01140594482422,0.28824990987778,-0.27525150775909,9.78425216674805,-5.41874265670776,0.10720839351416,-0.31792387366295
386,703023217,-1.41449630260468,-1.26634907722473,23.01197624206543,0.26599210500717,-0.27836537361145,9.78157615661621,-5.44691896438599,0.11353509873152,-0.22881197929382
387,703031550,-1.41590511798859,-1.26658260822296,23.01187133789062,0.26739630103111,-0.26298934221268,9.80377769470215,-5.54445743560791,0.06076976656914,-0.31305718421936
388,703039883,-1.41558682918549,-1.26643419265747,23.01120758056641,0.27022320032120,-0.29995346069336,9.80916213989258,-5.35616779327393,0.10964173823595,-0.37601700425148
389,703048216,-1.41572749614716,-1.26616597175598,23.01118850708008,0.22459951043129,-0.26319473981857,9.79463481903076,-5.39215564727783,0.12211587280035,-0.30227360129356
390,703056549,-1.41524589061737,-1.26698648929596,23.01234436035156,0.23802335560322,-0.28139442205429,9.79123401641846,-5.33185911178589,-0.01316571608186,-0.16083179414272
391,703064882,-1.41511762142181,-1.26699042320251,23.01274299621582,0.21166750788689,-0.26558747887611,9.78069877624512,-5.35673046112061,0.08786962926388,-0.24412927031517
392,703073215,-1.41508090496063,-1.26745843887329,23.01276206970215,0.22581270337105,-0.27321180701256,9.79030132293701,-5.38862037658691,0.03261972963810,-0.29553705453873
393,703081548,-1.41603457927704,-1.26756930351257,23.01196861267090,0.20719471573830,-0.28859516978264,9.80225849151611,-5.49176883697510,0.07869974523783,-0.38933637738228
394,703089881,-1.41572606563568,-1.26681947708130,23.01180839538574,0.21591845154762,-0.27692523598671,9.78820705413818,-5.35673141479492,0.17964544892311,-0.31543931365013
395,703098214,-1.41655826568604,-1.26669085025787,23.01157760620117,0.20564460754395,-0.26412257552147,9.74841403961182,-5.47545337677002,0.10487749427557,-0.31682249903679
396,703106547,-1.41718292236328,-1.26637768745422,23.01104736328125,0.17291224002838,-0.27426990866661,9.77968978881836,-5.46927976608276,0.12885239720345,-0.35977751016617
397,703114880,-1.41787266731262,-1.26574671268463,23.01009559631348,0.15137141942978,-0.29421204328537,9.81577491760254,-5.46003293991089,0.16760674118996,-0.40204104781151
398,703123213,-1.41698598861694,-1.26543557643890,23.01043128967285,0.16223384439945,-0.28378200531006,9.79623985290527,-5.28531789779663,0.12693132460117,-0.25598865747452
399,703131546,-1.41771245002747,-1.26400542259216,23.01076316833496,0.16403938829899,-0.28622603416443,9.78661727905273,-5.46208238601685,0.25887027382851,-0.24861179292202
400,703139879,-1.41800510883331,-1.26366209983826,23.01048278808594,0.15589913725853,-0.28584188222885,9.78933334350586,-5.42791223526001,0.13174681365490,-0.32819518446922
401,703148212,-1.41856110095978,-1.26362776756287,23.01020050048828,0.15284158289433,-0.25036156177521,9.76848125457764,-5.44251203536987,0.09399142861366,-0.32870745658875
402,703156545,-1.41827750205994,-1.26343441009521,23.01057624816895,0.16314809024334,-0.27478334307671,9.79669666290283,-5.35855007171631,0.11115297675133,-0.25265884399414
403,703164878,-1.41821157932281,-1.26345920562744,23.00993156433105,0.17459793388844,-0.29350000619888,9.79564571380615,-5.36756563186646,0.08733174204826,-0.36559200286865
404,703173211,-1.41826725006104,-1.26362860202789,23.00969505310059,0.16784922778606,-0.27597180008888,9.79443645477295,-5.40014696121216,0.07078494876623,-0.32453238964081
405,703181544,-1.41865158081055,-1.26368558406830,23.00929641723633,0.18589577078819,-0.28181958198547,9.79665088653564,-5.42407035827637,0.08272117376328,-0.34077176451683
406,703189877,-1.41827380657196,-1.26376724243164,23.00915527343750,0.19198907911777,-0.28298258781433,9.77559185028076,-5.34699678421021,0.08120992779732,-0.31269857287407
407,703198210,-1.41906845569611,-1.26399350166321,23.00931549072266,0.22209629416466,-0.27548584342003,9.78138351440430,-5.47112417221069,0.06056486070156,-0.28052711486816
408,703206543,-1.41915297508240,-1.26378941535950,23.00891494750977,0.22549176216125,-0.26461052894592,9.80441284179688,-5.40296459197998,0.11594283580780,-0.34476765990257
409,703214876,-1.41868615150452,-1.26370823383331,23.00900459289551,0.22809883952141,-0.30104839801788,9.81340885162354,-5.32079362869263,0.09721882641315,-0.29241210222244
410,703223209,-1.41861402988434,-1.26357972621918,23.00834655761719,0.23575517535210,-0.27867737412453,9.81267547607422,-5.38564920425415,0.10761821269989,-0.37568399310112
411,703231542,-1.41852378845215,-1.26351249217987,23.00794410705566,0.24057461321354,-0.27238494157791,9.77202129364014,-5.36421012878418,0.09824340790510,-0.35076138377190
412,703239875,-1.41874766349792,-1.26347160339355,23.00739860534668,0.25631323456764,-0.27750599384308,9.82098102569580,-5.42143249511719,0.09662970155478,-0.36172422766685
413,703248208,-1.41856634616852,-1.26367080211639,23.00649642944336,0.26654028892517,-0.25568345189095,9.80568790435791,-5.35375928878784,0.06627683341503,-0.39694383740425
414,703256541,-1.41947448253632,-1.26386713981628,23.00659751892090,0.26147571206093,-0.27943038940430,9.81067371368408,-5.50239849090576,0.06750632077456,-0.28503522276878
415,703264874,-1.42005252838135,-1.26293301582336,23.00658988952637,0.28227269649506,-0.29986259341240,9.80681324005127,-5.44310188293457,0.19952209293842,-0.29497355222702
416,703273207,-1.41989457607269,-1.26223897933960,23.00605201721191,0.29081371426582,-0.27780655026436,9.78488922119141,-5.37481403350830,0.17511171102524,-0.36075091362000
417,703281540,-1.41904103755951,-1.26238358020782,23.00538635253906,0.27070522308350,-0.28899332880974,9.78307819366455,-5.27402162551880,0.07265477627516,-0.37599134445190
418,703289873,-1.42006373405457,-1.26236009597778,23.00559043884277,0.26290434598923,-0.27474305033684,9.76923179626465,-5.51589775085449,0.09240335226059,-0.27340635657310
419,703298206,-1.42022204399109,-1.26304268836975,23.00574302673340,0.24493695795536,-0.30389136075974,9.78043365478516,-5.39361476898193,0.00557109573856,-0.28160288929939
420,703306539,-1.42079758644104,-1.26322793960571,23.00650405883789,0.23689015209675,-0.28133583068848,9.80210304260254,-5.45995569229126,0.06627682596445,-0.20668126642704
421,703314872,-1.42121601104736,-1.26327025890350,23.00587463378906,0.24661581218243,-0.27518820762634,9.77499675750732,-5.42814302444458,0.08405310660601,-0.36595058441162
422,703323205,-1.42153346538544,-1.26368439197540,23.00593948364258,0.22056438028812,-0.29040712118149,9.78797912597656,-5.43047380447388,0.04127734154463,-0.29036298394203
423,703331538,-1.42119836807251,-1.26395165920258,23.00575447082520,0.20611135661602,-0.28503978252411,9.80654811859131,-5.33605957031250,0.05705570429564,-0.32197096943855
424,703339871,-1.42056965827942,-1.26423108577728,23.00613021850586,0.19924318790436,-0.26656994223595,9.80732727050781,-5.31674718856812,0.05615921691060,-0.25255635380745
425,703348204,-1.42047965526581,-1.26378560066223,23.00555229187012,0.21015113592148,-0.29433995485306,9.82645988464355,-5.36738634109497,0.14340129494667,-0.35647329688072
426,703356537,-1.42099380493164,-1.26400721073151,23.00566864013672,0.17726750671864,-0.27769166231155,9.79643154144287,-5.45478200912476,0.06320312619209,-0.28416433930397
427,703364870,-1.42121815681458,-1.26443767547607,23.00505828857422,0.16936668753624,-0.26486301422119,9.82390880584717,-5.40204191207886,0.03853661194444,-0.36000806093216
428,703373203,-1.42190062999725,-1.26394820213318,23.00591087341309,0.17623062431812,-0.27966693043709,9.80074596405029,-5.47286605834961,0.14606519043446,-0.19213238358498
429,703381536,-1.42271578311920,-1.26430892944336,23.00631141662598,0.15741592645645,-0.27701774239540,9.79715442657471,-5.47350597381592,0.04470965266228,-0.24612720310688
430,703389869,-1.42248547077179,-1.26420068740845,23.00617599487305,0.17167444527149,-0.29842883348465,9.81670856475830,-5.36502981185913,0.10321256518364,-0.31175085902214
431,703398202,-1.42225635051727,-1.26444470882416,23.00648880004883,0.17984360456467,-0.27608981728554,9.80580139160156,-5.34784269332886,0.05854133889079,-0.25214651226997
432,703406535,-1.42228734493256,-1.26454901695251,23.00757789611816,0.15424562990665,-0.28268629312515,9.80089950561523,-5.39243698120117,0.07488322257996,-0.16785009205341
433,703414868,-1.42278635501862,-1.26449477672577,23.00678443908691,0.13629034161568,-0.27401629090309,9.77479648590088,-5.43728780746460,0.09563075006008,-0.38892659544945
434,703423201,-1.42338645458221,-1.26339125633240,23.00697326660156,0.16632467508316,-0.28770279884338,9.79958438873291,-5.46505308151245,0.22211383283138,-0.27158772945404
435,703431534,-1.42323660850525,-1.26232028007507,23.00694084167480,0.16703058779240,-0.27441105246544,9.79554653167725,-5.35691070556641,0.21745206415653,-0.29587003588676
436,703439867,-1.42324149608612,-1.26192498207092,23.00721168518066,0.19857373833656,-0.27213791012764,9.81116867065430,-5.39279508590698,0.13684403896332,-0.26308378577232
437,703448200,-1.42298543453217,-1.26191473007202,23.00683021545410,0.18370746076107,-0.30592212080956,9.79952335357666,-5.34622907638550,0.09073843061924,-0.33449628949165
438,703456533,-1.42260062694550,-1.26231944561005,23.00652885437012,0.21526271104813,-0.27257785201073,9.78849220275879,-5.34738206863403,0.04296787828207,-0.33367663621902
439,703464866,-1.42196547985077,-1.26217174530029,23.00597381591797,0.22382971644402,-0.27768677473068,9.79597091674805,-5.30119943618774,0.10679855942726,-0.36269760131836
440,703473199,-1.42202234268188,-1.26185584068298,23.00671958923340,0.20579072833061,-0.29276069998741,9.83062362670898,-5.39779043197632,0.12552256882191,-0.20742408931255
441,703481532,-1.42175340652466,-1.26103973388672,23.00665092468262,0.21894599497318,-0.29346677660942,9.77644824981689,-5.34566545486450,0.18674060702324,-0.30042937397957
442,703489865,-1.42154026031494,-1.26013457775116,23.00696182250977,0.23438026010990,-0.27554130554199,9.80508804321289,-5.36651515960693,0.19831819832325,-0.25619357824326
443,703498198,-1.42151832580566,-1.25990688800812,23.00812339782715,0.24572636187077,-0.29944226145744,9.77276802062988,-5.36961412429810,0.11122981458902,-0.15127766132355
444,703506531,-1.42135369777679,-1.25996494293213,23.00778198242188,0.26744291186333,-0.26443886756897,9.80897521972656,-5.37478828430176,0.08402750641108,-0.33749315142632
445,703514864,-1.42093133926392,-1.26056659221649,23.00843620300293,0.28833895921707,-0.28298917412758,9.80393028259277,-5.32391929626465,0.01492029335350,-0.20458090305328
446,703523197,-1.42099523544312,-1.26013350486755,23.00872421264648,0.28056406974792,-0.28270053863525,9.80286121368408,-5.39955806732178,0.14142899215221,-0.26121395826340
447,703531530,-1.42047870159149,-1.26057064533234,23.00844192504883,0.27381965517998,-0.27674531936646,9.77522850036621,-5.31305885314941,0.03710222244263,-0.32076707482338
448,703539863,-1.42032945156097,-1.26095438003540,23.00789451599121,0.25475990772247,-0.26052075624466,9.80225944519043,-5.37624883651733,0.04483772069216,-0.36441373825073
449,703548196,-1.42058992385864,-1.26049840450287,23.00751495361328,0.26706632971764,-0.27849727869034,9.78357791900635,-5.40790843963623,0.14460514485836,-0.32594114542007
450,703556529,-1.42038595676422,-1.25946855545044,23.00738716125488,0.27072879672050,-0.28784230351448,9.78036403656006,-5.36707925796509,0.21448081731796,-0.30972734093666
451,703564862,-1.42104291915894,-1.25932991504669,23.00649452209473,0.26845991611481,-0.25979602336884,9.78719139099121,-5.45588397979736,0.10800242424011,-0.41628259420395
452,703573195,-1.42126250267029,-1.25955462455750,23.00638008117676,0.24623551964760,-0.28204137086868,9.76602268218994,-5.42017745971680,0.06330557912588,-0.31098243594170
453,703581528,-1.42117297649384,-1.26002883911133,23.00639915466309,0.22243727743626,-0.30075216293335,9.81028366088867,-5.36567020416260,0.03220990300179,-0.29627984762192
454,703589861,-1.41992723941803,-1.26054513454437,23.00621414184570,0.19455039501190,-0.26948833465576,9.77949237823486,-5.24315738677979,0.02811162546277,-0.32017797231674
455,703598194,-1.42066061496735,-1.26137495040894,23.00583839416504,0.21389733254910,-0.29231873154640,9.81065273284912,-5.46643638610840,-0.00937481038272,-0.33892756700516
456,703606527,-1.42057442665100,-1.26130270957947,23.00561332702637,0.20282897353172,-0.30398645997047,9.77799510955811,-5.38290834426880,0.09913989901543,-0.32412254810333
457,703614860,-1.42130446434021,-1.26155507564545,23.00555610656738,0.20370848476887,-0.26489707827568,9.82317352294922,-5.46431064605713,0.05728623270988,-0.30014759302139
458,703623193,-1.42176616191864,-1.26144134998322,23.00527763366699,0.17889161407948,-0.26923042535782,9.80014038085938,-5.44848060607910,0.10610696673393,-0.33044925332069
459,703631526,-1.42191016674042,-1.26174867153168,23.00501251220703,0.19126668572426,-0.29429835081100,9.78744029998779,-5.39238548278809,0.05221461504698,-0.33862018585205
460,703639859,-1.42165756225586,-1.26075184345245,23.00444412231445,0.16488315165043,-0.27977162599564,9.81271171569824,-5.36344194412231,0.21191938221455,-0.36269760131836
461,703648192,-1.42112016677856,-1.26065921783447,23.00433349609375,0.15224865078926,-0.27975255250931,9.79670047760010,-5.31287956237793,0.09939603507519,-0.31976810097694
462,703656525,-1.42153120040894,-1.26035606861115,23.00455665588379,0.15081012248993,-0.30981466174126,9.77116298675537,-5.44148826599121,0.12588116526604,-0.26961544156075
463,703664858,-1.42147278785706,-1.25984740257263,23.00437164306641,0.15909627079964,-0.28827852010727,9.79305744171143,-5.36920452117920,0.15018904209137,-0.32883554697037
464,703673191,-1.42172944545746,-1.26029765605927,23.00399971008301,0.16566941142082,-0.28557533025742,9.79604148864746,-5.42450571060181,0.03794749081135,-0.34225738048553
465,703681524,-1.42176353931427,-1.26015460491180,23.00388336181641,0.17017091810703,-0.29078480601311,9.81153964996338,-5.37901544570923,0.10569714009762,-0.31523439288139
466,703689857,-1.42147588729858,-1.25940847396851,23.00294876098633,0.17579203844070,-0.28820422291756,9.79560565948486,-5.35982990264893,0.18172019720078,-0.40744566917419
467,703698190,-1.42220127582550,-1.25967490673065,23.00384140014648,0.19192010164261,-0.28698229789734,9.79178524017334,-5.46269655227661,0.05577499419451,-0.19728080928326
468,703706523,-1.42207372188568,-1.25949227809906,23.00407981872559,0.18932886421680,-0.27163776755333,9.81841468811035,-5.37612104415894,0.10997472703457,-0.26725894212723
469,703714856,-1.42156219482422,-1.25885605812073,23.00370597839355,0.20143437385559,-0.28628483414650,9.83553218841553,-5.31405735015869,0.16642849147320,-0.33616119623184
470,703723189,-1.42197668552399,-1.25897049903870,23.00289154052734,0.22202214598656,-0.28282257914543,9.77855587005615,-5.44448518753052,0.07831552624702,-0.39553502202034
471,703731522,-1.42179453372955,-1.25853693485260,23.00289916992188,0.24349126219749,-0.28461202979088,9.78089237213135,-5.35232448577881,0.13953353464603,-0.28021973371506
472,703739855,-1.42140841484070,-1.25860655307770,23.00348472595215,0.23900274932384,-0.29589560627937,9.79698848724365,-5.34435939788818,0.08154292404652,-0.22683967649937
473,703748188,-1.42074024677277,-1.25928771495819,23.00310707092285,0.24407850205898,-0.27397236227989,9.81238746643066,-5.29704904556274,0.00667250808328,-0.34507495164871
474,703756521,-1.42058515548706,-1.25811171531677,23.00318336486816,0.25233492255211,-0.29343572258949,9.76708698272705,-5.37312412261963,0.23056656122208,-0.28385695815086
475,703764854,-1.42098224163055,-1.25700592994690,23.00264549255371,0.25593477487564,-0.28150665760040,9.77953147888184,-5.42271280288696,0.22244684398174,-0.34082299470901
476,703773187,-1.42151296138763,-1.25660204887390,23.00283813476562,0.23305271565914,-0.27550059556961,9.77847385406494,-5.45580673217773,0.13733074069023,-0.27356004714966
477,703781520,-1.42124462127686,-1.25677835941315,23.00246620178223,0.27180191874504,-0.28616926074028,9.80996704101562,-5.34315490722656,0.06970913708210,-0.34499815106392
478,703789853,-1.42116844654083,-1.25716459751129,23.00202178955078,0.26486057043076,-0.28321465849876,9.79097080230713,-5.38493251800537,0.04427420720458,-0.35306665301323
479,703798186,-1.36653697490692,-1.27144479751587,23.02536773681641,0.27007696032524,-0.28489089012146,9.79003429412842,-5.43242025375366,0.02962285839021,-0.28987628221512
480,703806519,-1.36699748039246,-1.27188014984131,23.02562332153320,0.27444770932198,-0.26546111702919,9.78594303131104,-5.44745635986328,0.03866468742490,-0.26754066348076
481,703814852,-1.36765027046204,-1.27140927314758,23.02546691894531,0.27204599976540,-0.28288894891739,9.76784133911133,-5.45424413681030,0.14506623148918,-0.31500387191772
482,703823185,-1.36784553527832,-1.27155673503876,23.02566719055176,0.26341620087624,-0.28000453114510,9.77998638153076,-5.41889667510986,0.07319267839193,-0.27545550465584
483,703831518,-1.36876535415649,-1.27142167091370,23.02451133728027,0.23827603459358,-0.27851745486259,9.79376602172852,-5.49069356918335,0.10815611481667,-0.41218429803848
484,703839851,-1.36869955062866,-1.27209937572479,23.02412796020508,0.23404814302921,-0.29431545734406,9.80994319915771,-5.38795423507690,0.01033534482121,-0.34730342030525
485,703848184,-1.36887955665588,-1.27244865894318,23.02373313903809,0.22054648399353,-0.27847582101822,9.76489353179932,-5.39953184127808,0.04747598245740,-0.34625318646431
486,703856517,-1.36878228187561,-1.27206540107727,23.02292633056641,0.21951065957546,-0.27833777666092,9.81035804748535,-5.38546991348267,0.13989214599133,-0.39410063624382
487,703864850,-1.36889183521271,-1.27249622344971,23.02297592163086,0.22357806563377,-0.29089161753654,9.80475044250488,-5.38897895812988,0.03746082261205,-0.29686900973320
488,703873183,-1.36880111694336,-1.27239966392517,23.02334785461426,0.20206646621227,-0.26531663537025,9.79765796661377,-5.38400936126709,0.10203430056572,-0.25432372093201
489,703881516,-1.36947858333588,-1.27241241931915,23.02349472045898,0.17578546702862,-0.27709355950356,9.81009483337402,-5.45731782913208,0.08658892661333,-0.28749418258667
490,703889849,-1.36924254894257,-1.27251827716827,23.02297401428223,0.18701285123825,-0.28135541081429,9.80055618286133,-5.36902570724487,0.08010853081942,-0.36318427324295
491,703898182,-1.36985886096954,-1.27237403392792,23.02219581604004,0.16917115449905,-0.28520268201828,9.81981277465820,-5.45160579681396,0.10774627327919,-0.38587841391563
492,703906515,-1.36988568305969,-1.27181482315063,23.02183341979980,0.16311137378216,-0.28910517692566,9.78801631927490,-5.39999341964722,0.15930773317814,-0.34087422490120
493,703914848,-1.37000000476837,-1.27088010311127,23.02109909057617,0.16280286014080,-0.31443297863007,9.80536651611328,-5.39307689666748,0.20346666872501,-0.36595055460930
494,703923181,-1.37030613422394,-1.27018308639526,23.02057647705078,0.15926808118820,-0.29264301061630,9.77075576782227,-5.43375253677368,0.17608506977558,-0.35818943381310
495,703931514,-1.37037515640259,-1.26957452297211,23.02051734924316,0.16603296995163,-0.27033880352974,9.81955242156982,-5.38523912429810,0.16225337982178,-0.31618213653564
496,703939847,-1.37073493003845,-1.27027356624603,23.02055740356445,0.16068917512894,-0.28559425473213,9.82083320617676,-5.43821001052856,0.00767146376893,-0.29540899395943
497,703948180,-1.37061500549316,-1.27032959461212,23.02013778686523,0.14669661223888,-0.27335321903229,9.78835582733154,-5.36459445953369,0.08305417001247,-0.33905562758446
498,703956513,-1.37002384662628,-1.27020514011383,23.02025794982910,0.17054143548012,-0.27993628382683,9.78530597686768,-5.32396984100342,0.10474941879511,-0.28339591622353
499,703964846,-1.36970067024231,-1.27067697048187,23.02091217041016,0.17680816352367,-0.29899263381958,9.81431007385254,-5.33616256713867,0.03131340444088,-0.22642984986305
500,703973179,-1.36936724185944,-1.26978731155396,23.02030944824219,0.23143412172794,-0.25651139020920,9.80890846252441,-5.35770368576050,0.19926592707634,-0.36853757500648
501,703981512,-1.36949193477631,-1.26996254920959,23.01954841613770,0.20940116047859,-0.26843035221100,9.80923843383789,-5.39046525955200,0.07034949958324,-0.38590410351753
502,703989845,-1.36924350261688,-1.26963996887207,23.01908111572266,0.23081733286381,-0.28763985633850,9.79393196105957,-5.36733531951904,0.13095277547836,-0.35460346937180
503,703998178,-1.36949741840363,-1.26913583278656,23.01866912841797,0.22027598321438,-0.26790559291840,9.79117870330811,-5.40780591964722,0.14998415112495,-0.34745711088181
504,704006511,-1.36990571022034,-1.26981294155121,23.01791954040527,0.22487014532089,-0.28370204567909,9.77901172637939,-5.44727706909180,0.01264062523842,-0.38938760757446
505,704014844,-1.37016904354095,-1.27015686035156,23.01811981201172,0.25421410799026,-0.28119063377380,9.76959228515625,-5.40570497512817,0.04663071781397,-0.27225372195244
506,704023177,-1.37016117572784,-1.26953434944153,23.01772689819336,0.23504993319511,-0.30013617873192,9.79223251342773,-5.39681673049927,0.16645410656929,-0.34512621164322
507,704031510,-1.36978268623352,-1.26951169967651,23.01802062988281,0.26139909029007,-0.29097411036491,9.79573822021484,-5.32945156097412,0.09094334393740,-0.25793534517288
508,704039843,-1.36999583244324,-1.26899874210358,23.01789093017578,0.26264002919197,-0.28860059380531,9.79469680786133,-5.42104768753052,0.15367262065411,-0.31305718421936
509,704048176,-1.37061560153961,-1.26823806762695,23.01783943176270,0.28218644857407,-0.28471535444260,9.79216861724854,-5.45365476608276,0.17946612834930,-0.29766300320625
510,704056509,-1.37059462070465,-1.26789391040802,23.01760101318359,0.26343998312950,-0.28603434562683,9.78925514221191,-5.39371776580811,0.13343736529350,-0.32530081272125
511,704064842,-1.37108719348907,-1.26812350749969,23.01677131652832,0.26607099175453,-0.28200247883797,9.79567241668701,-5.43767166137695,0.06504735350609,-0.39858314394951
512,704073175,-1.37157046794891,-1.26827263832092,23.01746559143066,0.26288047432899,-0.27586248517036,9.80669689178467,-5.45255374908447,0.07081055641174,-0.21441678702831
513,704081508,-1.37140917778015,-1.26888239383698,23.01665878295898,0.26099628210068,-0.28155460953712,9.77028465270996,-5.35765314102173,0.01676451787353,-0.39287114143372
514,704089841,-1.37118935585022,-1.26966953277588,23.01684188842773,0.25518575310707,-0.27533215284348,9.79757499694824,-5.36882114410400,-0.00379090709612,-0.27863168716431
515,704098174,-1.37155508995056,-1.26927077770233,23.01713943481445,0.22894711792469,-0.29083853960037,9.77875995635986,-5.42191886901855,0.13574264943600,-0.26474875211716
516,704106507,-1.37214863300323,-1.26889467239380,23.01642608642578,0.21692515909672,-0.29558494687080,9.82544612884521,-5.46856260299683,0.13825282454491,-0.38137036561966
517,704114840,-1.37177026271820,-1.26948535442352,23.01707267761230,0.21894130110741,-0.27562060952187,9.79495620727539,-5.32947778701782,0.01668767444789,-0.23114286363125
518,704123173,-1.37140023708344,-1.26960456371307,23.01642417907715,0.22232754528522,-0.28300860524178,9.79903221130371,-5.35306835174561,0.07844359427691,-0.37658047676086
519,704131506,-1.37106025218964,-1.26944518089294,23.01594352722168,0.19028165936470,-0.29213547706604,9.81349182128906,-5.33488178253174,0.10953928530216,-0.34761080145836
520,704139839,-1.37180376052856,-1.26939415931702,23.01598548889160,0.19190858304501,-0.28072497248650,9.79779815673828,-5.48480224609375,0.09760305285454,-0.29131072759628
521,704148172,-1.37275302410126,-1.26973974704742,23.01448440551758,0.20911049842834,-0.27865934371948,9.80837821960449,-5.49361324310303,0.04998617991805,-0.46753659844398
522,704156505,-1.37355661392212,-1.26943671703339,23.01441192626953,0.21542240679264,-0.29929518699646,9.80272006988525,-5.49238348007202,0.12746922671795,-0.30583393573761
523,704164838,-1.37441480159760,-1.26977884769440,23.01400184631348,0.17342931032181,-0.27553281188011,9.80197525024414,-5.48042154312134,0.05047284811735,-0.34574091434479
524,704173171,-1.37455546855927,-1.26840341091156,23.01355361938477,0.16304540634155,-0.28143331408501,9.81844234466553,-5.41461849212646,0.25641128420830,-0.34666305780411
525,704181504,-1.37487757205963,-1.26840257644653,23.01379013061523,0.16331557929516,-0.28410521149635,9.77069950103760,-5.41433715820312,0.08894543349743,-0.26341679692268
526,704189837,-1.37456977367401,-1.26808524131775,23.01309394836426,0.16416710615158,-0.27948921918869,9.77470684051514,-5.36011171340942,0.13154192268848,-0.38121667504311
527,704198170,-1.37474465370178,-1.26715409755707,23.01278114318848,0.16186633706093,-0.28555476665497,9.77766036987305,-5.39758586883545,0.20123822987080,-0.32491657137871
528,704206503,-1.37408351898193,-1.26704561710358,23.01265144348145,0.17022721469402,-0.29209160804749,9.78775405883789,-5.31748962402344,0.10515924543142,-0.31420984864235
529,704214836,-1.37318432331085,-1.26698279380798,23.01253318786621,0.18659107387066,-0.29641711711884,9.78517723083496,-5.26838684082031,0.09598933905363,-0.31172525882721
530,704223169,-1.37296009063721,-1.26658308506012,23.01273918151855,0.19947387278080,-0.29185020923615,9.80461597442627,-5.36859035491943,0.13820160925388,-0.27122914791107
531,704231502,-1.37231421470642,-1.26704061031342,23.01271629333496,0.18757899105549,-0.28785064816475,9.80797672271729,-5.29955911636353,0.03505307435989,-0.30585956573486
532,704239835,-1.37185263633728,-1.26766812801361,23.01317214965820,0.20204888284206,-0.28396263718605,9.80126953125000,-5.33928680419922,0.01366519369185,-0.24628084897995
533,704248168,-1.37173545360565,-1.26762974262238,23.01289176940918,0.20380356907845,-0.28289100527763,9.76022815704346,-5.36249351501465,0.09588689357042,-0.34225738048553
534,704256501,-1.37142312526703,-1.26741909980774,23.01274681091309,0.20673593878746,-0.29954728484154,9.77894115447998,-5.35883092880249,0.11640390008688,-0.31595158576965
535,704264834,-1.37107503414154,-1.26735734939575,23.01276206970215,0.23684088885784,-0.27644184231758,9.80288982391357,-5.33403730392456,0.09578444063663,-0.30924066901207
536,704273167,-1.37108242511749,-1.26724159717560,23.01253318786621,0.23954665660858,-0.26166057586670,9.79821968078613,-5.39622783660889,0.10536416620016,-0.32545450329781
537,704281500,-1.37165844440460,-1.26767027378082,23.01224708557129,0.24783401191235,-0.29269140958786,9.79976558685303,-5.44643115997314,0.03863907605410,-0.34279531240463
538,704289833,-1.37105596065521,-1.26660525798798,23.01184082031250,0.27644580602646,-0.29050904512405,9.76843261718750,-5.32527637481689,0.22037208080292,-0.34353816509247
539,704298166,-1.37150824069977,-1.26644217967987,23.01206398010254,0.25423020124435,-0.27593845129013,9.81495952606201,-5.43144750595093,0.10733645409346,-0.27837550640106
540,704306499,-1.37141764163971,-1.26684319972992,23.01184654235840,0.24847304821014,-0.28271418809891,9.78327465057373,-5.38516235351562,0.04396683350205,-0.32553133368492
541,704314832,-1.37145221233368,-1.26748645305634,23.01146507263184,0.26119828224182,-0.28694006800652,9.81495952606201,-5.38057756423950,0.01302483864129,-0.34686797857285
542,704323165,-1.37140440940857,-1.26691651344299,23.01088523864746,0.27511665225029,-0.26861402392387,9.77087974548340,-5.39033651351929,0.16076774895191,-0.36656531691551
543,704331498,-1.37157046794891,-1.26643407344818,23.01061820983887,0.28766331076622,-0.26706388592720,9.79778957366943,-5.39899396896362,0.14808869361877,-0.32238078117371
544,704339831,-1.37093079090118,-1.26690888404846,23.01032638549805,0.28524491190910,-0.29612198472023,9.79127883911133,-5.31997394561768,0.03500185161829,-0.33464998006821
545,704348164,-1.37135839462280,-1.26732909679413,23.00995445251465,0.25743213295937,-0.30840331315994,9.79928874969482,-5.42847585678101,0.04048329964280,-0.34425535798073
546,704356497,-1.37126004695892,-1.26704907417297,23.00904273986816,0.24353240430355,-0.28047904372215,9.78512287139893,-5.38595628738403,0.12690572440624,-0.40757372975349
547,704364830,-1.37092518806458,-1.26614153385162,23.00913238525391,0.22717778384686,-0.28534537553787,9.80870342254639,-5.33698177337646,0.19688382744789,-0.29095208644867
548,704373163,-1.37058866024017,-1.26586675643921,23.01028823852539,0.22806507349014,-0.28244668245316,9.77924728393555,-5.35247898101807,0.12193656712770,-0.15814231336117
549,704381496,-1.37084412574768,-1.26578915119171,23.00998497009277,0.19661267101765,-0.27311891317368,9.79906558990479,-5.40867662429810,0.09975463151932,-0.33216539025307
550,704389829,-1.37005102634430,-1.26634418964386,23.01011276245117,0.22180601954460,-0.28649449348450,9.81157398223877,-5.29935455322266,0.02342422120273,-0.28418993949890
551,704398162,-1.36983704566956,-1.26624572277069,23.00923919677734,0.19098244607449,-0.28866532444954,9.79832935333252,-5.35222244262695,0.10167571157217,-0.39258939027786
552,704406495,-1.37019443511963,-1.26608765125275,23.00939178466797,0.19242809712887,-0.28365683555603,9.82477664947510,-5.43767166137695,0.11000032722950,-0.27968180179596
553,704414828,-1.37033271789551,-1.26655793190002,23.01049613952637,0.18506963551044,-0.27336141467094,9.80741882324219,-5.39195013046265,0.03003269247711,-0.17837752401829
554,704423161,-1.37015414237976,-1.26688277721405,23.01064300537109,0.15829727053642,-0.27197051048279,9.78467369079590,-5.37363576889038,0.05244514718652,-0.28260186314583
555,704431494,-1.37001645565033,-1.26664197444916,23.01172065734863,0.15896601974964,-0.27757984399796,9.80178833007812,-5.35916376113892,0.11568669229746,-0.17025780677795
556,704439827,-1.37147831916809,-1.26585876941681,23.01209068298340,0.15157550573349,-0.29697987437248,9.80822181701660,-5.56930303573608,0.18335950374603,-0.25048160552979
557,704448160,-1.37205481529236,-1.26505863666534,23.01314735412598,0.16926039755344,-0.28923001885414,9.77004909515381,-5.44422864913940,0.18179701268673,-0.18186105787754
558,704456493,-1.37116491794586,-1.26463210582733,23.01285362243652,0.16023434698582,-0.27483585476875,9.80941295623779,-5.28903198242188,0.14432340860367,-0.33242154121399
559,704464826,-1.37162327766418,-1.26431703567505,23.01292800903320,0.18092975020409,-0.29599213600159,9.80907821655273,-5.43188333511353,0.12677766382694,-0.29292440414429
560,704473159,-1.37145328521729,-1.26496148109436,23.01268577575684,0.17295244336128,-0.28342288732529,9.80087661743164,-5.37553119659424,0.01417747884989,-0.32929661870003
561,704481492,-1.37117099761963,-1.26514303684235,23.01297187805176,0.18939469754696,-0.28120717406273,9.82567691802979,-5.34287357330322,0.06591823697090,-0.25883188843727
562,704489825,-1.37054550647736,-1.26481926441193,23.01288414001465,0.17666028439999,-0.26742440462112,9.80253601074219,-5.32107543945312,0.13067103922367,-0.30678170919418
563,704498158,-1.37026107311249,-1.26502370834351,23.01243400573730,0.18663607537746,-0.27669107913971,9.82004928588867,-5.34246349334717,0.06491927802563,-0.34538239240646
564,704506491,-1.37044656276703,-1.26474058628082,23.01238250732422,0.21610127389431,-0.27980944514275,9.77975845336914,-5.41743612289429,0.12490782141685,-0.30406659841537
565,704514824,-1.37065088748932,-1.26520311832428,23.01131820678711,0.23281553387642,-0.28954237699509,9.74344539642334,-5.40319442749023,0.03715344518423,-0.43049842119217
566,704523157,-1.37049114704132,-1.26535701751709,23.01041793823242,0.22607922554016,-0.30875438451767,9.80644035339355,-5.37929677963257,0.07590778917074,-0.40731757879257
567,704531490,-1.37113881111145,-1.26563966274261,23.01012992858887,0.24020524322987,-0.28295364975929,9.78607940673828,-5.45311737060547,0.05477604642510,-0.34592026472092
568,704539823,-1.37081801891327,-1.26559698581696,23.00971221923828,0.23624065518379,-0.29110068082809,9.78973770141602,-5.35847234725952,0.09752620756626,-0.34845605492592
569,704548156,-1.37094259262085,-1.26610195636749,23.00942420959473,0.24387763440609,-0.29634132981300,9.78099441528320,-5.39197540283203,0.02875197865069,-0.33475241065025
570,704556489,-1.37038064002991,-1.26566088199615,23.01011848449707,0.25125503540039,-0.28109899163246,9.79113674163818,-5.32599353790283,0.14189004898071,-0.21221394836903
571,704564822,-1.37016332149506,-1.26557457447052,23.01064682006836,0.27191540598869,-0.26975423097610,9.79611873626709,-5.34843111038208,0.09826901555061,-0.23682923614979
572,704573155,-1.37025725841522,-1.26560342311859,23.01056861877441,0.28425043821335,-0.27186784148216,9.79845905303955,-5.40839481353760,0.08679383993149,-0.30757576227188
573,704581488,-1.37006509304047,-1.26537275314331,23.01029586791992,0.27279046177864,-0.28380823135376,9.80729389190674,-5.35270929336548,0.11876040697098,-0.33516228199005
574,704589821,-1.37050199508667,-1.26631629467010,23.00996398925781,0.26193726062775,-0.29431518912315,9.80553722381592,-5.44942855834961,-0.02187455631793,-0.34156584739685
575,704598154,-1.37094283103943,-1.26595652103424,23.00968170166016,0.27463558316231,-0.29553362727165,9.80136871337891,-5.43039703369141,0.13343735039234,-0.33262646198273
576,704606487,-1.37142300605774,-1.26624906063080,23.00894737243652,0.24943047761917,-0.27485516667366,9.79858684539795,-5.45524358749390,0.05851572006941,-0.38749215006828
577,704614820,-1.37131655216217,-1.26687955856323,23.00907897949219,0.23983177542686,-0.28969767689705,9.77862834930420,-5.36431264877319,0.01284553948790,-0.28703314065933
578,704623153,-1.37194824218750,-1.26690292358398,23.00908851623535,0.24694164097309,-0.28592270612717,9.77193737030029,-5.47181558609009,0.08845876157284,-0.29599812626839
579,704631486,-1.37190473079681,-1.26683080196381,23.00939369201660,0.24379250407219,-0.26654380559921,9.80157852172852,-5.36879491806030,0.09645041078329,-0.25637292861938
580,704639819,-1.37165403366089,-1.26661789417267,23.01000213623047,0.21860098838806,-0.28264915943146,9.79712963104248,-5.36367177963257,0.11520001292229,-0.22463683784008
581,704648152,-1.37152481079102,-1.26648724079132,23.00993347167969,0.22071309387684,-0.29392689466476,9.82477092742920,-5.36118698120117,0.10477502644062,-0.31367191672325
582,704656485,-1.37205326557159,-1.26717388629913,23.01040077209473,0.18759027123451,-0.28031718730927,9.77453517913818,-5.45752239227295,0.00728724990040,-0.24543556571007
583,704664818,-1.37204182147980,-1.26629984378815,23.01043891906738,0.19006669521332,-0.28216803073883,9.75585937500000,-5.37399482727051,0.19314414262772,-0.28767347335815
584,704673151,-1.37262678146362,-1.26627540588379,23.01020050048828,0.15439377725124,-0.28693538904190,9.79573535919189,-5.46671867370605,0.09555390477180,-0.32722184062004
585,704681484,-1.37275218963623,-1.26746845245361,23.00996208190918,0.17416553199291,-0.30097508430481,9.77572727203369,-5.39305162429810,-0.05373866856098,-0.33380475640297
586,704689817,-1.37223517894745,-1.26729941368103,23.01010704040527,0.16296908259392,-0.28023868799210,9.78623580932617,-5.33224344253540,0.11161403357983,-0.27988675236702
587,704698150,-1.37298595905304,-1.26750576496124,23.01011466979980,0.15821287035942,-0.27944076061249,9.79605960845947,-5.46748685836792,0.06353610754013,-0.31116172671318
588,704706483,-1.37237870693207,-1.26660192012787,23.01004791259766,0.15750637650490,-0.29901990294456,9.81488418579102,-5.32248497009277,0.20044420659542,-0.30406659841537
589,704714816,-1.37259793281555,-1.26573097705841,23.00998497009277,0.14655055105686,-0.28357881307602,9.75785446166992,-5.40355348587036,0.19306731224060,-0.30409222841263
590,704723149,-1.37241220474243,-1.26523363590240,23.00969505310059,0.15431767702103,-0.28165727853775,9.77010631561279,-5.37378931045532,0.15139293670654,-0.33121761679649
591,704731482,-1.37210917472839,-1.26605772972107,23.00952529907227,0.15979298949242,-0.28819099068642,9.79982948303223,-5.33880090713501,-0.00873445346951,-0.32414814829826
592,704739815,-1.37176012992859,-1.26545405387878,23.00919723510742,0.17850621044636,-0.28914231061935,9.78622722625732,-5.35514259338379,0.16422566771507,-0.33441942930222
593,704748148,-1.37185752391815,-1.26580297946930,23.01004219055176,0.17124722898006,-0.29518589377403,9.78077983856201,-5.38505983352661,0.04565737396479,-0.18903306126595
594,704756481,-1.37231361865997,-1.26476418972015,23.00972747802734,0.20423223078251,-0.27949091792107,9.79114723205566,-5.45221996307373,0.21619690954685,-0.33301064372063
595,704764814,-1.37134838104248,-1.26481866836548,23.00998115539551,0.23338681459427,-0.28237894177437,9.78708553314209,-5.26029348373413,0.08151730895042,-0.26810419559479
596,704773147,-1.37049603462219,-1.26423156261444,23.00965309143066,0.21399012207985,-0.27364999055862,9.78845024108887,-5.29243850708008,0.16197161376476,-0.33549526333809
597,704781480,-1.37016022205353,-1.26301479339600,23.00903511047363,0.22079308331013,-0.27068912982941,9.78433990478516,-5.34074640274048,0.23666271567345,-0.36543828248978
598,704789813,-1.37010478973389,-1.26279127597809,23.00880241394043,0.22156171500683,-0.26785632967949,9.78979015350342,-5.38941526412964,0.11973375082016,-0.32550570368767
599,704798146,-1.36956179141998,-1.26317584514618,23.00851631164551,0.23913165926933,-0.28919911384583,9.81269073486328,-5.31244373321533,0.04289103299379,-0.32619726657867
600,704806479,-1.36889827251434,-1.26218008995056,23.00820350646973,0.25639384984970,-0.29394692182541,9.79470252990723,-5.31579875946045,0.21217550337315,-0.33239591121674
601,704814812,-1.36983823776245,-1.26268815994263,23.00791931152344,0.25226119160652,-0.28808712959290,9.78854656219482,-5.49128198623657,0.02867513522506,-0.34015706181526
602,704823145,-1.36944818496704,-1.26247346401215,23.00801277160645,0.28718343377113,-0.29308426380157,9.78385734558105,-5.34820127487183,0.11558422446251,-0.28670015931129
603,704831478,-1.37011682987213,-1.26286780834198,23.00838661193848,0.26978278160095,-0.29772844910622,9.76314830780029,-5.45665121078491,0.04120049998164,-0.25288933515549
604,704839811,-1.36920082569122,-1.26268851757050,23.00868415832520,0.24818585813046,-0.29219630360603,9.80535793304443,-5.28426790237427,0.11230561137199,-0.26259714365005
605,704848144,-1.36926686763763,-1.26301646232605,23.00915527343750,0.27614983916283,-0.29358798265457,9.82271862030029,-5.38308763504028,0.04857739806175,-0.24722859263420
606,704856477,-1.36896228790283,-1.26356983184814,23.00940895080566,0.28254848718643,-0.31198984384537,9.81553554534912,-5.35926628112793,0.02324491739273,-0.26979473233223
607,704864810,-1.36818802356720,-1.26315104961395,23.00973701477051,0.26029053330421,-0.29144972562790,9.79383563995361,-5.28185939788818,0.13894441723824,-0.24902157485485
608,704873143,-1.36796689033508,-1.26290214061737,23.01110649108887,0.27250894904137,-0.28141137957573,9.78730297088623,-5.36610555648804,0.11696741729975,-0.13270735740662
609,704881476,-1.36841666698456,-1.26331484317780,23.01082229614258,0.26189479231834,-0.29990494251251,9.81861877441406,-5.43088388442993,0.04091874510050,-0.33626371622086
610,704889809,-1.36836159229279,-1.26380336284637,23.01110839843750,0.24697802960873,-0.27737909555435,9.79672431945801,-5.38897895812988,0.03187691792846,-0.26682350039482
611,704898142,-1.36851632595062,-1.26380193233490,23.01100540161133,0.22705537080765,-0.28133136034012,9.78746032714844,-5.39481878280640,0.08784402906895,-0.29474303126335
612,704906475,-1.36807703971863,-1.26360905170441,23.01069831848145,0.18569873273373,-0.28102225065231,9.79459190368652,-5.34364223480225,0.11650635302067,-0.33424016833305
613,704914808,-1.36811387538910,-1.26235103607178,23.01047515869141,0.19380365312099,-0.26476800441742,9.78920650482178,-5.38034725189209,0.24073541164398,-0.31876918673515
614,704923141,-1.36824703216553,-1.26308631896973,23.01049423217773,0.20087802410126,-0.29836797714233,9.81212234497070,-5.41256904602051,0.00201071752235,-0.29748371243477
615,704931474,-1.36817121505737,-1.26307618618011,23.00943946838379,0.18699030578136,-0.28561532497406,9.78061294555664,-5.37143325805664,0.09442687779665,-0.43262445926666
616,704939807,-1.36780595779419,-1.26318180561066,23.01039886474609,0.18091773986816,-0.28809443116188,9.78374385833740,-5.34945631027222,0.07562602311373,-0.18229649960995
617,704948140,-1.36792671680450,-1.26265668869019,23.01072502136230,0.17357844114304,-0.28257280588150,9.80140113830566,-5.39051580429077,0.15180276334286,-0.24835562705994
618,704956473,-1.36744654178619,-1.26234793663025,23.01105499267578,0.16688455641270,-0.27549049258232,9.77483654022217,-5.33616209030151,0.12731556594372,-0.25829395651817
619,704964806,-1.36738657951355,-1.26253271102905,23.01105499267578,0.16144241392612,-0.29009214043617,9.77706336975098,-5.37097215652466,0.06712210178375,-0.30916380882263
620,704973139,-1.36735022068024,-1.26318597793579,23.01101303100586,0.15165252983570,-0.29201999306679,9.78168964385986,-5.39061784744263,0.01210272498429,-0.30509114265442
621,704981472,-1.36786246299744,-1.26342177391052,23.01048469543457,0.16003805398941,-0.29408442974091,9.78978061676025,-5.44205188751221,0.06353610754013,-0.37007448077202
622,704989805,-1.36770868301392,-1.26332581043243,23.00937843322754,0.17842720448971,-0.26896202564240,9.79160594940186,-5.37983465194702,0.10595327615738,-0.43177914619446
623,704998138,-1.36769711971283,-1.26354742050171,23.00929641723633,0.17977134883404,-0.28501331806183,9.80477523803711,-5.37483930587769,0.06225539371371,-0.31679683923721
624,705006471,-1.36745083332062,-1.26373434066772,23.00907325744629,0.20626807212830,-0.28023695945740,9.77989196777344,-5.36656665802002,0.06894070655107,-0.32614606618881
625,705014804,-1.36813986301422,-1.26386821269989,23.00985145568848,0.18168777227402,-0.27427390217781,9.80989551544189,-5.45683050155640,0.07201442122459,-0.21646589040756
626,705023137,-1.36863529682159,-1.26397609710693,23.01011466979980,0.21069754660130,-0.28686818480492,9.75656604766846,-5.45531988143921,0.07744464278221,-0.26828351616859
627,705031470,-1.36794030666351,-1.26389980316162,23.01043891906738,0.19729043543339,-0.29532149434090,9.79505634307861,-5.29156827926636,0.09693707525730,-0.26290452480316
628,705039803,-1.36770653724670,-1.26441395282745,23.01054573059082,0.20925670862198,-0.28655537962914,9.79524707794189,-5.36710357666016,0.02847021631896,-0.28664886951447
629,705048136,-1.36757493019104,-1.26513016223907,23.01019096374512,0.24830128252506,-0.29741585254669,9.78949069976807,-5.36257076263428,0.00357318576425,-0.33723703026772
630,705056469,-1.36617183685303,-1.26510953903198,23.01024436950684,0.23053091764450,-0.29205361008644,9.79847621917725,-5.22763538360596,0.09388898313046,-0.29205352067947
631,705064802,-1.36560988426208,-1.26597809791565,23.00980949401855,0.25605928897858,-0.26988571882248,9.77677536010742,-5.30936956405640,-0.01301203109324,-0.35601228475571
632,705073135,-1.36586725711823,-1.26572382450104,23.00978279113770,0.24495133757591,-0.28333660960197,9.78200340270996,-5.42765665054321,0.12147551774979,-0.30186375975609
633,705081468,-1.36595499515533,-1.26635682582855,23.00975608825684,0.24939538538456,-0.28614589571953,9.79400920867920,-5.38531541824341,0.01305045187473,-0.31175082921982
634,705089801,-1.36491847038269,-1.26691317558289,23.01030921936035,0.25849184393883,-0.27070218324661,9.80709552764893,-5.27046155929565,0.02286070398986,-0.23408849537373
635,705098134,-1.36484456062317,-1.26736533641815,23.01099967956543,0.27088198065758,-0.28937733173370,9.79255485534668,-5.36638689041138,0.03187691420317,-0.22146070003510
636,705106467,-1.36448895931244,-1.26844036579132,23.01215362548828,0.27435791492462,-0.31106618046761,9.77638053894043,-5.35073661804199,-0.04070101678371,-0.16357249021530
637,705114800,-1.36369919776917,-1.26807379722595,23.01216506958008,0.28463643789291,-0.28048405051231,9.78769588470459,-5.28139925003052,0.13374471664429,-0.30386164784431
638,705123133,-1.36395680904388,-1.26708960533142,23.01168632507324,0.27546378970146,-0.29069578647614,9.78590011596680,-5.42809152603149,0.21038252115250,-0.35286170244217
639,705131466,-1.36337232589722,-1.26707983016968,23.01186943054199,0.25404727458954,-0.29693481326103,9.80112171173096,-5.30588579177856,0.08927840739489,-0.28114178776741
640,705139799,-1.36327731609344,-1.26781761646271,23.01154518127441,0.25642657279968,-0.29529443383217,9.78377723693848,-5.38590526580811,0.00388055667281,-0.33874830603600
641,705148132,-1.36332488059998,-1.26701438426971,23.01143264770508,0.21797475218773,-0.26284599304199,9.80836200714111,-5.38249826431274,0.18566478788853,-0.30772939324379
642,705156465,-1.36346912384033,-1.26704895496368,23.01133346557617,0.20214293897152,-0.28109019994736,9.77164649963379,-5.41318464279175,0.08766472339630,-0.31180208921432
643,705164798,-1.36344516277313,-1.26758086681366,23.01123428344727,0.19854462146759,-0.29855936765671,9.77685165405273,-5.37381553649902,0.02529405802488,-0.30240166187286
644,705173131,-1.36367714405060,-1.26755809783936,23.01092720031738,0.20154502987862,-0.27766728401184,9.82494258880615,-5.42419767379761,0.09419634193182,-0.33352291584015
645,705181464,-1.36365056037903,-1.26725101470947,23.01056098937988,0.19232189655304,-0.27864250540733,9.81747436523438,-5.37330293655396,0.12823764979839,-0.33339488506317
646,705189797,-1.36314308643341,-1.26686632633209,23.01086044311523,0.19254995882511,-0.29130205512047,9.78380870819092,-5.33416461944580,0.13643422722816,-0.26159819960594
647,705198130,-1.36309301853180,-1.26640307903290,23.01045799255371,0.16610167920589,-0.27420875430107,9.80357742309570,-5.37284183502197,0.14632132649422,-0.34504935145378
648,705206463,-1.36283850669861,-1.26583242416382,23.01085281372070,0.15699979662895,-0.27742412686348,9.79508018493652,-5.36418437957764,0.15830877423286,-0.24907283484936
649,705214796,-1.36232519149780,-1.26521801948547,23.01047325134277,0.15379197895527,-0.29745343327522,9.79342651367188,-5.31710577011108,0.16435374319553,-0.35001853108406
650,705223129,-1.36138617992401,-1.26465964317322,23.01082229614258,0.16320681571960,-0.28012049198151,9.79631328582764,-5.28280830383301,0.15641331672668,-0.25542515516281
651,705231462,-1.36061584949493,-1.26463830471039,23.01055335998535,0.16238084435463,-0.27992293238640,9.80099868774414,-5.28434514999390,0.09358161687851,-0.33480367064476
652,705239795,-1.36034286022186,-1.26503753662109,23.01047325134277,0.16582168638706,-0.28208822011948,9.79905986785889,-5.36231422424316,0.04355700314045,-0.31075188517570
653,705248128,-1.36092448234558,-1.26529812812805,23.00981521606445,0.17446854710579,-0.28729429841042,9.80452537536621,-5.44876241683960,0.05936099588871,-0.39686697721481
654,705256461,-1.35992717742920,-1.26565563678741,23.00883865356445,0.17489545047283,-0.29262110590935,9.76416397094727,-5.27950382232666,0.05072898790240,-0.41653865575790
655,705264794,-1.35937988758087,-1.26489019393921,23.00837707519531,0.15469413995743,-0.29095730185509,9.78443813323975,-5.31234073638916,0.18312895298004,-0.35332271456718
656,705273127,-1.35901761054993,-1.26497614383698,23.00786209106445,0.18120302259922,-0.28325697779655,9.78652858734131,-5.35306739807129,0.08218327164650,-0.36008492112160
657,705281460,-1.35906064510345,-1.26465260982513,23.00756454467773,0.18756638467312,-0.30297029018402,9.77956962585449,-5.38278007507324,0.12826326489449,-0.33057728409767
658,705289793,-1.35912251472473,-1.26457643508911,23.00695800781250,0.21337918937206,-0.31126812100410,9.77575492858887,-5.40596055984497,0.10208553820848,-0.36912673711777
659,705298126,-1.35899424552917,-1.26421570777893,23.00690460205078,0.23517893254757,-0.29434975981712,9.78771305084229,-5.35857486724854,0.13187488913536,-0.31397932767868
660,705306459,-1.35853350162506,-1.26424229145050,23.00752067565918,0.22360570728779,-0.29167976975441,9.81605911254883,-5.33877515792847,0.08689628541470,-0.22512352466583
661,705314792,-1.35821676254272,-1.26340866088867,23.00740242004395,0.23726165294647,-0.28844022750854,9.79141330718994,-5.33990192413330,0.18996797502041,-0.30135145783424
662,705323125,-1.35809242725372,-1.26211345195770,23.00701713562012,0.25283205509186,-0.27646046876907,9.81656932830811,-5.38285684585571,0.24713893234730,-0.34020829200745
663,705331458,-1.35786437988281,-1.26201701164246,23.00654029846191,0.24635080993176,-0.26065701246262,9.77987861633301,-5.35181283950806,0.10236729681492,-0.36285126209259
664,705339791,-1.35679101943970,-1.26210522651672,23.00598144531250,0.25644940137863,-0.29011783003807,9.80994987487793,-5.26838684082031,0.08226010948420,-0.36587372422218
665,705348124,-1.35687649250031,-1.26237499713898,23.00512695312500,0.28726059198380,-0.26910379528999,9.76273059844971,-5.38897895812988,0.05969397351146,-0.40145185589790
666,705356457,-1.35764920711517,-1.26237630844116,23.00518035888672,0.30181667208672,-0.28676164150238,9.77124500274658,-5.48872089385986,0.09119948744774,-0.29271951317787
667,705364790,-1.35804498195648,-1.26208341121674,23.00486564636230,0.26545032858849,-0.29675772786140,9.79433727264404,-5.42486429214478,0.12439552694559,-0.33879950642586
668,705373123,-1.35794448852539,-1.26192557811737,23.00521087646484,0.25861233472824,-0.29011029005051,9.80202770233154,-5.38167905807495,0.10910384356976,-0.25691080093384
669,705381456,-1.35809373855591,-1.26237964630127,23.00504493713379,0.24501711130142,-0.27992996573448,9.79821014404297,-5.39607381820679,0.03533484041691,-0.32696571946144
670,705389789,-1.35863208770752,-1.26245713233948,23.00506591796875,0.26793923974037,-0.29600065946579,9.78918743133545,-5.46023797988892,0.08218327909708,-0.29505038261414
671,705398122,-1.35873246192932,-1.26149833202362,23.00516700744629,0.24120989441872,-0.28917115926743,9.82062721252441,-5.38767290115356,0.20236527919769,-0.27583968639374
672,705406455,-1.35806429386139,-1.26176333427429,23.00555992126465,0.24798819422722,-0.26457273960114,9.80155563354492,-5.31456947326660,0.05846449360251,-0.25176230072975
673,705414788,-1.35812103748322,-1.26117622852325,23.00624465942383,0.22378596663475,-0.29374083876610,9.79158973693848,-5.38326740264893,0.15879547595978,-0.21633784472942
674,705423121,-1.35810983181000,-1.26092672348022,23.00692558288574,0.23321287333965,-0.30168056488037,9.78442764282227,-5.39154052734375,0.11865794658661,-0.21677328646183
675,705431454,-1.35787296295166,-1.26004660129547,23.00730133056641,0.19629406929016,-0.28361821174622,9.79357624053955,-5.34904670715332,0.19363081455231,-0.25773042440414
676,705439787,-1.35792279243469,-1.25939261913300,23.00703620910645,0.21230004727840,-0.29202207922935,9.82805061340332,-5.40268230438232,0.17101344466209,-0.32873311638832
677,705448120,-1.35783755779266,-1.25988519191742,23.00777244567871,0.17210984230042,-0.27318838238716,9.80161762237549,-5.36764240264893,0.02898250706494,-0.20770585536957
678,705456453,-1.35720360279083,-1.25904107093811,23.00701522827148,0.16406412422657,-0.28160759806633,9.81079292297363,-5.32166481018066,0.19439925253391,-0.38759464025497
679,705464786,-1.35706412792206,-1.25829803943634,23.00626182556152,0.16814623773098,-0.27374094724655,9.78797149658203,-5.36085462570190,0.17961983382702,-0.38060191273689
680,705473119,-1.35758531093597,-1.25901877880096,23.00617218017578,0.17104798555374,-0.28898501396179,9.80430889129639,-5.45803499221802,0.00603215256706,-0.31200700998306
681,705481452,-1.35709583759308,-1.25857114791870,23.00618362426758,0.17022955417633,-0.28295028209686,9.80499649047852,-5.31689977645874,0.14127530157566,-0.30071109533310
682,705489785,-1.35718095302582,-1.25796663761139,23.00578689575195,0.16405068337917,-0.27630817890167,9.80129623413086,-5.40726757049561,0.16630041599274,-0.34469076991081
683,705498118,-1.35713815689087,-1.25824701786041,23.00545120239258,0.16590021550655,-0.30506110191345,9.78524017333984,-5.37332868576050,0.05618482455611,-0.34597146511078
684,705506451,-1.35694038867950,-1.25829815864563,23.00580787658691,0.16528426110744,-0.28236606717110,9.79968357086182,-5.37012720108032,0.08464223146439,-0.25547638535500
685,705514784,-1.35710072517395,-1.25804877281189,23.00644874572754,0.17850872874260,-0.30267927050591,9.80102825164795,-5.39533090591431,0.11753090471029,-0.21841257810593
686,705523117,-1.35748338699341,-1.25829350948334,23.00662422180176,0.17867806553841,-0.28397363424301,9.77615737915039,-5.44156503677368,0.06089784577489,-0.27758148312569
687,705531450,-1.35757541656494,-1.25831449031830,23.00602722167969,0.20988921821117,-0.27231955528259,9.81834316253662,-5.38859462738037,0.08858682960272,-0.37806606292725
688,705539783,-1.35696697235107,-1.25818097591400,23.00536155700684,0.19151963293552,-0.28552678227425,9.82050323486328,-5.32312488555908,0.10895015299320,-0.37683662772179
689,705548116,-1.35641980171204,-1.25802719593048,23.00538253784180,0.20314244925976,-0.28696504235268,9.80356502532959,-5.31264829635620,0.10751575976610,-0.30921500921249
690,705556449,-1.35521268844604,-1.25749683380127,23.00491142272949,0.20037411153316,-0.29773980379105,9.78869628906250,-5.25178909301758,0.15695121884346,-0.35183712840080
691,705564782,-1.35453629493713,-1.25823760032654,23.00522422790527,0.21633708477020,-0.27646854519844,9.80321598052979,-5.29310464859009,-0.00133194017690,-0.27402108907700
