sep=,
DeviceTag:,left leg
FirmwareVersion:,2.2.1
AppVersion:,2023.6.0
StartTime: ,2025-04-02_17:14:38_000 PDT
© Movella Technologies B. V. 2005-2025

PacketCounter,SampleTimeFine,Euler_X,Euler_Y,Euler_Z,Acc_X,Acc_Y,Acc_Z,Gyr_X,Gyr_Y,Gyr_Z
0,2332921889,-0.09597276896238,0.73563212156296,112.51976013183594,0.00000000000000,0.00000000000000,0.00000000000000,0.00000000000000,0.00000000000000,0.00000000000000
1,2332930222,-0.08510869741440,0.75090116262436,112.52661132812500,-0.13062541186810,-0.00516401929781,10.01059532165527,1.29342925548553,1.83107209205627,0.82612311840057
2,2332938555,-0.06573696434498,0.75179773569107,112.53031921386719,-0.11130052059889,-0.01974578388035,10.00330257415771,1.32288563251495,1.79500699043274,0.84092819690704
3,2332946888,-0.05462062358856,0.76515960693359,112.53671264648438,-0.11940617114305,-0.00853253621608,9.98310089111328,1.32449924945831,1.60315656661987,0.77056580781937
4,2332955221,-0.04306431114674,0.76196032762527,112.54188537597656,-0.09243679046631,-0.03978101909161,9.97953796386719,1.28031480312347,1.85730111598969,0.83096426725388
5,2332963554,-0.03197275102139,0.77600771188736,112.54833984375000,-0.12258347868919,-0.01028860546649,9.97756385803223,1.32127177715302,1.68514764308929,0.77709740400314
6,2332971887,-0.03030754439533,0.76751911640167,112.54506683349609,-0.13059398531914,-0.00462156394497,9.99399185180664,1.30982220172882,1.66050672531128,0.75414699316025
7,2332980220,-0.01936787366867,0.78182512521744,112.55247497558594,-0.12746445834637,-0.01927415095270,9.99400901794434,1.30144643783569,1.71639704704285,0.89013302326202
8,2332988553,-0.01530625391752,0.78383404016495,112.54369354248047,-0.12999700009823,-0.01737260818481,9.99947166442871,1.30974555015564,1.76549971103668,0.85076397657394
9,2332996886,-0.00465981429443,0.79945749044418,112.55104064941406,-0.12339466810226,-0.01740382239223,9.99581909179688,1.26556098461151,1.87543594837189,0.88495910167694
10,2333005219,-0.00172375247348,0.80590683221817,112.54883575439453,-0.11885084211826,-0.01919202692807,10.00132751464844,1.28543758392334,1.93101871013641,0.77999186515808
11,2333013552,0.00910079572350,0.82012629508972,112.55638122558594,-0.10702010989189,-0.03004989586771,10.00323486328125,1.28664135932922,1.70661234855652,0.90491247177124
12,2333021885,0.01085423585027,0.82413262128830,112.54756927490234,-0.12217002362013,-0.02278060466051,9.98115634918213,1.35562050342560,1.83442747592926,0.89502537250519
13,2333030218,0.02148065529764,0.83851391077042,112.55445098876953,-0.12322603166103,-0.00779521605000,10.01587581634521,1.26387035846710,1.72454226016998,0.82450938224792
14,2333038551,0.02356060966849,0.84204101562500,112.54919433593750,-0.10740093141794,-0.00778989074752,10.00496292114258,1.28195393085480,1.65722811222076,0.78040170669556
15,2333046884,0.03419352322817,0.85724174976349,112.55641174316406,-0.10966144502163,-0.00979724619538,9.98114204406738,1.26223123073578,1.82464301586151,0.86367362737656
16,2333055217,0.03746856376529,0.86092174053192,112.55417633056641,-0.11612395942211,-0.03169788792729,9.99401855468750,1.24916791915894,1.82625639438629,0.84558993577957
17,2333063550,0.04847653210163,0.87532138824463,112.56094360351562,-0.11686091870070,-0.01882824674249,9.98663616180420,1.30813169479370,1.72774410247803,0.81318783760071
18,2333071883,0.05156499519944,0.87936753034592,112.55596923828125,-0.12478472292423,0.00686000939459,9.99378585815430,1.33922755718231,1.83281385898590,0.89008194208145
19,2333080216,0.06187755987048,0.89331889152527,112.56355285644531,-0.12373221665621,-0.00958255399019,9.96456718444824,1.22419381141663,1.67561912536621,0.91139292716980
20,2333088549,0.06632071733475,0.89789527654648,112.56097412109375,-0.12277720123529,-0.00208756420761,10.01397228240967,1.30987358093262,1.78181576728821,0.81961697340012
21,2333096882,0.07760839164257,0.91376793384552,112.56708526611328,-0.11789119243622,-0.01319365203381,9.98474788665771,1.34317195415497,1.90614724159241,0.73091495037079
22,2333105215,0.08281672000885,0.91976702213287,112.56379699707031,-0.12793509662151,-0.02225590497255,9.97923278808594,1.34107160568237,1.91795539855957,0.85383766889572
23,2333113548,0.09419450163841,0.93498677015305,112.57057952880859,-0.11619514226913,-0.01653197966516,9.99393177032471,1.35259819030762,1.82766520977020,0.81311106681824
24,2333121881,0.09899841994047,0.94158631563187,112.56431579589844,-0.13361836969852,-0.01447923295200,10.01211261749268,1.34130227565765,1.94902539253235,0.81928414106369
25,2333130214,0.11056192219257,0.95741933584213,112.57156372070312,-0.12539897859097,-0.00705435918644,10.00847244262695,1.37216746807098,1.90156245231628,0.87041020393372
26,2333138547,0.11463656276464,0.96255362033844,112.56857299804688,-0.11950805038214,-0.00470764935017,10.05244636535645,1.23775672912598,1.69988858699799,0.77862149477005
27,2333146880,0.12633131444454,0.97692573070526,112.57533264160156,-0.12185285985470,-0.01206948142499,10.04516696929932,1.39009714126587,1.72756481170654,0.80865412950516
28,2333155213,0.13153690099716,0.98233395814896,112.57255554199219,-0.12036709487438,0.00068350986112,10.00663280487061,1.34417104721069,1.74247229099274,0.82484239339828
29,2333163546,0.14287142455578,0.99556654691696,112.57997131347656,-0.11551051586866,-0.01385890878737,9.99395465850830,1.34524679183960,1.59019565582275,0.88598352670670
30,2333171879,0.14859902858734,1.00186455249786,112.57743072509766,-0.10685504227877,-0.01940476894379,9.99591445922852,1.38359141349792,1.85896599292755,0.87212628126144
31,2333180212,0.15898233652115,1.01781189441681,112.58412170410156,-0.09662858396769,-0.01582553982735,9.97218990325928,1.23157083988190,1.91639316082001,0.79748642444611
32,2333188545,0.16392610967159,1.02249109745026,112.58311462402344,-0.12891194224358,-0.00254367617890,10.00475788116455,1.32116925716400,1.73107373714447,0.83462697267532
33,2333196878,0.17489065229893,1.03692400455475,112.58987426757812,-0.11690443754196,-0.02082032896578,10.00502490997314,1.30162596702576,1.73594081401825,0.80829566717148
34,2333205211,0.17975555360317,1.04083621501923,112.58910369873047,-0.11922794580460,-0.00979731231928,9.98845195770264,1.31448411941528,1.61296677589417,0.80388993024826
35,2333213544,0.19046409428120,1.05512630939484,112.59548187255859,-0.12728095054626,-0.02614757418633,9.99766349792480,1.27068376541138,1.71947085857391,0.76062756776810
36,2333221877,0.19495715200901,1.06064128875732,112.59309387207031,-0.10395357757807,-0.01540219876915,9.98685169219971,1.28856253623962,1.78194391727448,0.82115393877029
37,2333230210,0.20653945207596,1.07559669017792,112.60027313232422,-0.11434283107519,-0.01123719941825,10.03799343109131,1.37531805038452,1.79823470115662,0.85598933696747
38,2333238543,0.21027606725693,1.08187794685364,112.60098266601562,-0.11479454487562,0.00322407321073,10.00493049621582,1.19701731204987,1.89700305461884,0.83493447303772
39,2333246876,0.22112622857094,1.09568142890930,112.60800933837891,-0.11401650309563,-0.00579250929877,10.01234245300293,1.28817844390869,1.66235125064850,0.83967310190201
40,2333255209,0.22641578316689,1.10109317302704,112.60366058349609,-0.10752582550049,-0.02769168093801,10.02727413177490,1.35400688648224,1.79336774349213,0.85263383388519
41,2333263542,0.23686191439629,1.11603212356567,112.61151123046875,-0.09886609017849,-0.01504500117153,10.00532054901123,1.23715472221375,1.79897749423981,0.93552154302597
42,2333271875,0.24208076298237,1.12226319313049,112.60838317871094,-0.11657298356295,-0.01646720618010,10.04360103607178,1.37087392807007,1.91947972774506,0.83748304843903
43,2333280208,0.25336998701096,1.13777518272400,112.61597442626953,-0.12485440075397,-0.02362381294370,10.03809356689453,1.33915066719055,1.86741876602173,0.90632140636444
44,2333288541,0.25700679421425,1.14257836341858,112.61373138427734,-0.11798426508904,-0.00919435732067,10.00144100189209,1.19434058666229,1.73193204402924,0.92900264263153
45,2333296874,0.26828369498253,1.15786135196686,112.62096405029297,-0.12235139310360,-0.01656938344240,10.00331497192383,1.33771622180939,1.84098482131958,0.86218804121017
46,2333305207,0.27332124114037,1.16500794887543,112.61964416503906,-0.11966795474291,-0.05139688774943,9.99821186065674,1.36281824111938,1.99664258956909,0.85995954275131
47,2333313540,0.28427481651306,1.18007147312164,112.62725067138672,-0.13407599925995,-0.02315432392061,10.04538726806641,1.29636216163635,1.81510162353516,0.90633410215378
48,2333321873,0.28834167122841,1.18664669990540,112.61993408203125,-0.11439359933138,-0.04746068641543,10.00563621520996,1.28911328315735,1.90813243389130,0.81399482488632
49,2333330206,0.29901912808418,1.20225811004639,112.62703704833984,-0.11339628696442,-0.01808305457234,10.00903892517090,1.26582992076874,1.88052034378052,0.84680664539337
50,2333338539,0.30233967304230,1.20810317993164,112.62391662597656,-0.12711714208126,-0.03456187993288,9.99624061584473,1.22347664833069,1.82292675971985,0.78119570016861
51,2333346872,0.31398195028305,1.22302162647247,112.63038635253906,-0.11848247051239,-0.02925617992878,9.98351097106934,1.38412940502167,1.79774808883667,0.76936203241348
52,2333355205,0.31782487034798,1.22844588756561,112.62584686279297,-0.13029819726944,-0.01797579601407,9.98874282836914,1.30480206012726,1.76065838336945,0.83621513843536
53,2333363538,0.32937535643578,1.24311876296997,112.63339996337891,-0.11289099603891,-0.00315374298953,10.01085567474365,1.36832523345947,1.76898300647736,0.89894449710846
54,2333371871,0.33411625027657,1.24923622608185,112.63178253173828,-0.12801447510719,-0.01047002896667,9.98875904083252,1.39683389663696,1.83747565746307,0.84794646501541
55,2333380204,0.34421947598457,1.26449251174927,112.63923645019531,-0.13106352090836,-0.01196951046586,10.00523662567139,1.19653046131134,1.84003698825836,0.88736671209335
56,2333388537,0.34795126318932,1.26965677738190,112.63434600830078,-0.12818688154221,-0.02490823343396,9.99265003204346,1.26576578617096,1.70638179779053,0.77717423439026
57,2333396870,0.35933777689934,1.28492212295532,112.64158630371094,-0.12520544230938,-0.02493541315198,10.00005531311035,1.35083079338074,1.84095931053162,0.86234170198441
58,2333405203,0.36285334825516,1.28984677791595,112.63670349121094,-0.11348386853933,-0.01364186313003,10.01479625701904,1.24519777297974,1.66760194301605,0.86418586969376
59,2333413536,0.37424975633621,1.30492055416107,112.64347076416016,-0.10816567391157,-0.00850685313344,9.99471187591553,1.35287976264954,1.81931507587433,0.80514502525330
60,2333421869,0.37794408202171,1.31029939651489,112.63795471191406,-0.12728440761566,-0.01379575952888,9.98534679412842,1.25792777538300,1.72915291786194,0.74751299619675
61,2333430202,0.38817876577377,1.32457602024078,112.64470672607422,-0.11298964917660,-0.00867438036948,9.96724891662598,1.21481907367706,1.72474718093872,0.80125164985657
62,2333438535,0.39205479621887,1.33009409904480,112.64162445068359,-0.11213846504688,-0.00852028466761,9.98744392395020,1.26853203773499,1.74454712867737,0.85570752620697
63,2333446868,0.40236744284630,1.34445369243622,112.64884948730469,-0.11676155030727,-0.00649036420509,10.00021076202393,1.22261869907379,1.73659408092499,0.85700100660324
64,2333455201,0.40616089105606,1.34994864463806,112.64482116699219,-0.11426166445017,-0.00069391704164,10.02950096130371,1.24879634380341,1.74637842178345,0.86535131931305
65,2333463534,0.41690078377724,1.36537766456604,112.65095520019531,-0.11320862174034,-0.02284644171596,10.02070522308350,1.27675426006317,1.86337149143219,0.72878897190094
66,2333471867,0.42057141661644,1.37090599536896,112.64917755126953,-0.10479326546192,-0.01008987240493,10.01707935333252,1.22989308834076,1.75575327873230,0.78318083286285
67,2333480200,0.43198823928833,1.38577950000763,112.65645599365234,-0.11839141696692,-0.03019526414573,10.01530647277832,1.35390448570251,1.79838836193085,0.86600452661514
68,2333488533,0.43622314929962,1.39245128631592,112.65210723876953,-0.11109574139118,-0.01419747434556,9.97864627838135,1.30312407016754,1.89942336082458,0.73861199617386
69,2333496866,0.44709840416908,1.40755498409271,112.65873718261719,-0.11594074964523,-0.02127020433545,9.98786640167236,1.29085505008698,1.82603871822357,0.78817564249039
70,2333505199,0.45144841074944,1.41355264186859,112.65832519531250,-0.10055180639029,-0.01196764316410,10.00640106201172,1.31488132476807,1.82137715816498,0.84088981151581
71,2333513532,0.46344888210297,1.42910146713257,112.66525268554688,-0.11219659447670,-0.01924485154450,9.99716663360596,1.42522740364075,1.88141679763794,0.82352334260941
72,2333521865,0.46775424480438,1.43481993675232,112.66349792480469,-0.12037050724030,-0.00243015494198,9.99681949615479,1.30859291553497,1.79651844501495,0.80166155099869
73,2333530198,0.47901162505150,1.44986736774445,112.67052459716797,-0.10478274524212,-0.02273389697075,9.99382781982422,1.33632040023804,1.82288825511932,0.83292376995087
74,2333538531,0.48355433344841,1.45718228816986,112.66736602783203,-0.12588192522526,-0.03903634846210,9.99186515808105,1.33415591716766,1.99149405956268,0.79884392023087
75,2333546864,0.49401834607124,1.47206616401672,112.67507934570312,-0.13606548309326,-0.02594848163426,9.99334335327148,1.24022829532623,1.80433070659637,0.91730970144272
76,2333555197,0.49829459190369,1.47923767566681,112.67119598388672,-0.10780563205481,-0.01321425475180,10.01026821136475,1.31503474712372,1.96653270721436,0.73817658424377
77,2333563530,0.50900721549988,1.49356520175934,112.67871856689453,-0.11383125931025,-0.01337065454572,9.98640727996826,1.26960790157318,1.73845076560974,0.89520466327667
78,2333571863,0.51334464550018,1.49935531616211,112.67530822753906,-0.11546685546637,-0.01268888916820,10.03037548065186,1.31767308712006,1.80698180198669,0.88207739591599
79,2333580196,0.52472233772278,1.51420164108276,112.68212890625000,-0.11356549710035,-0.02615844830871,9.98306083679199,1.35286724567413,1.80129551887512,0.81035763025284
80,2333588529,0.52805733680725,1.51931130886078,112.68120574951172,-0.12500122189522,-0.01888270303607,9.96627712249756,1.19956588745117,1.72867906093597,0.85190379619598
81,2333596862,0.53947842121124,1.53404355049133,112.68798065185547,-0.11919062584639,-0.01098139397800,10.01028919219971,1.35781049728394,1.78976881504059,0.80397957563400
82,2333605195,0.54349052906036,1.53894531726837,112.68497467041016,-0.10913845151663,-0.01455869060010,10.01247978210449,1.28168499469757,1.70344901084900,0.82677626609802
83,2333613528,0.55376803874969,1.55267536640167,112.69219970703125,-0.12753163278103,-0.00187058909796,9.99175357818604,1.22040307521820,1.66965115070343,0.86077922582626
84,2333621861,0.55725151300430,1.55716753005981,112.68858337402344,-0.13792429864407,-0.01060585770756,10.01187324523926,1.21650958061218,1.65579378604889,0.76905459165573
85,2333630194,0.56847202777863,1.57167279720306,112.69554138183594,-0.11419759690762,-0.02050692401826,9.99067115783691,1.33448863029480,1.76383459568024,0.82525217533112
86,2333638527,0.57264763116837,1.57726609706879,112.69065093994141,-0.11499945819378,-0.02780711278319,9.98717212677002,1.30093407630920,1.78476142883301,0.75911629199982
87,2333646860,0.58391869068146,1.59257853031158,112.69775390625000,-0.12345714867115,-0.01448746304959,10.01063251495361,1.33970129489899,1.86235976219177,0.84414279460907
88,2333655193,0.58820599317551,1.59821975231171,112.69390106201172,-0.10933216661215,-0.00558169791475,9.99805259704590,1.31634116172791,1.79532742500305,0.85105866193771
89,2333663526,0.59924697875977,1.61236798763275,112.70116424560547,-0.11231249570847,-0.01995537430048,10.00563621520996,1.31247341632843,1.72499060630798,0.86471092700958
90,2333671859,0.60348379611969,1.61902797222137,112.69779968261719,-0.10936978459358,-0.03110004961491,10.00231647491455,1.30847752094269,1.92352664470673,0.88095033168793
91,2333680192,0.61437779664993,1.63255107402802,112.70462036132812,-0.10474438965321,0.00403248658404,10.01104164123535,1.29791176319122,1.65079903602600,0.81275242567062
92,2333688525,0.61878448724747,1.63724064826965,112.70181274414062,-0.12467496842146,-0.02397674322128,9.96715164184570,1.33089005947113,1.69499635696411,0.82262670993805
93,2333696858,0.63004571199417,1.65224432945251,112.70908355712891,-0.13237199187279,-0.00006492121611,9.96840572357178,1.34095633029938,1.83139228820801,0.86576122045517
94,2333705191,0.63389521837234,1.65751922130585,112.70667266845703,-0.11561042815447,-0.01260250806808,9.98929691314697,1.26276874542236,1.76519203186035,0.92110061645508
95,2333713524,0.64471197128296,1.67122793197632,112.71406555175781,-0.11176100373268,-0.01009915582836,10.02423858642578,1.28737139701843,1.67611873149872,0.88128328323364
96,2333721857,0.64870995283127,1.67619228363037,112.71237182617188,-0.11195382475853,-0.00304257357493,10.00951004028320,1.28500199317932,1.73309743404388,0.83644562959671
97,2333730190,0.65887296199799,1.69056284427643,112.71922302246094,-0.11846806108952,-0.01202146895230,10.01508903503418,1.21169400215149,1.75630402565002,0.81393069028854
98,2333738523,0.66333508491516,1.69664788246155,112.71779632568359,-0.11403109133244,-0.02483713626862,10.02468967437744,1.33824133872986,1.87388634681702,0.84562844038010
99,2333746856,0.67386227846146,1.71143841743469,112.72426605224609,-0.12548530101776,-0.01385841052979,10.00958633422852,1.25852978229523,1.80808317661285,0.77144950628281
100,2333755189,0.67856150865555,1.71730685234070,112.72346496582031,-0.11622428894043,-0.02202302403748,9.97710323333740,1.36755681037903,1.85361242294312,0.97248286008835
101,2333763522,0.68881160020828,1.73199439048767,112.73023986816406,-0.13765786588192,-0.00290124304593,9.99454212188721,1.22520577907562,1.79878544807434,0.80713015794754
102,2333771855,0.69297695159912,1.73852825164795,112.72725677490234,-0.11998384445906,-0.02233668230474,10.04862785339355,1.31069314479828,1.93147981166840,0.85125064849854
103,2333780188,0.70473444461823,1.75345170497894,112.73376464843750,-0.13364192843437,-0.01233206689358,9.98217678070068,1.40624725818634,1.82844674587250,0.77331942319870
104,2333788521,0.70888304710388,1.75810027122498,112.73091888427734,-0.12462121248245,-0.03733821585774,10.00869655609131,1.31270408630371,1.70839273929596,0.83881503343582
105,2333796854,0.71993029117584,1.77233672142029,112.73757934570312,-0.13058659434319,-0.02442277409136,10.00650691986084,1.32348752021790,1.74883723258972,0.79263240098953
106,2333805187,0.72445458173752,1.77683746814728,112.73390197753906,-0.11695042997599,-0.00710828974843,9.96263599395752,1.36824834346771,1.69334423542023,0.84630709886551
107,2333813520,0.73512876033783,1.79279446601868,112.74066925048828,-0.12236095964909,-0.01371375937015,9.99569034576416,1.27715134620667,1.95590305328369,0.80454313755035
108,2333821853,0.73903560638428,1.79822933673859,112.73793029785156,-0.11757175624371,-0.04351985454559,9.97091674804688,1.29702806472778,1.81182301044464,0.83750873804092
109,2333830186,0.74977701902390,1.81393218040466,112.74479675292969,-0.11022095382214,-0.00411093328148,10.02166938781738,1.28670549392700,1.92808604240417,0.81478887796402
110,2333838519,0.75411069393158,1.81940507888794,112.74327087402344,-0.11954367160797,-0.02666509896517,9.98532772064209,1.35378921031952,1.82673025131226,0.88576585054398
111,2333846852,0.76497417688370,1.83346676826477,112.75045776367188,-0.11562743037939,-0.01497454661876,10.01277923583984,1.30108785629272,1.73330235481262,0.85645031929016
112,2333855185,0.76920324563980,1.83905744552612,112.74773406982422,-0.11261045187712,-0.02801006287336,10.00592136383057,1.34802603721619,1.84599244594574,0.84447580575943
113,2333863518,0.78006732463837,1.85359597206116,112.75454711914062,-0.12202163040638,-0.00047900289064,9.99594593048096,1.30384135246277,1.79186940193176,0.81325191259384
114,2333871851,0.78375577926636,1.85883641242981,112.75075531005859,-0.11434765905142,-0.01487591955811,10.01310157775879,1.28552734851837,1.81481969356537,0.94716316461563
115,2333880184,0.79443734884262,1.87252986431122,112.75762176513672,-0.12738414108753,-0.00395033368841,9.99606037139893,1.28332436084747,1.69374120235443,0.82226812839508
116,2333888517,0.79769009351730,1.87862181663513,112.75564575195312,-0.12769484519958,-0.01358760893345,9.98169803619385,1.23791027069092,1.92283487319946,0.89762520790100
117,2333896850,0.80901134014130,1.89319443702698,112.76261138916016,-0.11954612284899,0.00304480432533,9.99081802368164,1.36103808879852,1.79983556270599,0.83215528726578
118,2333905183,0.81173259019852,1.89909374713898,112.76142120361328,-0.11732923984528,0.00341504206881,10.00747585296631,1.17874157428741,1.90575039386749,0.79683321714401
119,2333913516,0.82274460792542,1.91296994686127,112.76779174804688,-0.11201127618551,-0.01012647897005,9.97873783111572,1.32715022563934,1.71894586086273,0.76043546199799
120,2333921849,0.82658886909485,1.91771113872528,112.76527404785156,-0.11382540315390,-0.01853801682591,10.01014137268066,1.31418943405151,1.77619349956512,0.87923419475555
121,2333930182,0.83719605207443,1.93270599842072,112.77293395996094,-0.11418934911489,-0.01513943634927,9.99915409088135,1.27489745616913,1.85890173912048,0.91368538141251
122,2333938515,0.84117400646210,1.93785190582275,112.77029418945312,-0.09541025757790,-0.00207319972105,10.01971912384033,1.33793389797211,1.83477330207825,0.85764139890671
123,2333946848,0.85189664363861,1.95091295242310,112.77759552001953,-0.11994386464357,-0.01087992824614,10.01007461547852,1.29175150394440,1.62709307670593,0.87577635049820
124,2333955181,0.85632771253586,1.95563280582428,112.77632904052734,-0.11102156341076,-0.02794631011784,9.99439907073975,1.39507925510406,1.79824733734131,0.85741090774536
125,2333963514,0.86726784706116,1.96904563903809,112.78292846679688,-0.10217930376530,-0.01898097805679,9.98175334930420,1.32307779788971,1.67012500762939,0.79053211212158
126,2333971847,0.87070935964584,1.97254562377930,112.78176116943359,-0.12636640667915,-0.02111568488181,10.02691268920898,1.28524541854858,1.66346514225006,0.88996654748917
127,2333980180,0.88080239295959,1.98714089393616,112.78919982910156,-0.12001357227564,-0.01737056486309,10.03813552856445,1.21757268905640,1.81817543506622,0.89181089401245
128,2333988513,0.88312703371048,1.99071228504181,112.78654479980469,-0.12646658718586,-0.01672825962305,9.98669052124023,1.16119563579559,1.68052434921265,0.86471092700958
129,2333996846,0.89318317174911,2.00545978546143,112.79371643066406,-0.12330019474030,-0.00782139599323,9.98850631713867,1.21667623519897,1.83746266365051,0.86040776968002
130,2334005179,0.89683544635773,2.00961112976074,112.79190063476562,-0.10698518902063,-0.01836039498448,10.01695156097412,1.32832872867584,1.75723886489868,0.81419962644577
131,2334013512,0.90776002407074,2.02248716354370,112.79895019531250,-0.12870325148106,-0.00931815896183,9.99223613739014,1.32164335250854,1.61510574817657,0.84867650270462
132,2334021845,0.91159248352051,2.02788400650024,112.79758453369141,-0.13211597502232,-0.00434002978727,9.97375774383545,1.35650432109833,1.92014551162720,0.87487977743149
133,2334030178,0.92226272821426,2.04220557212830,112.80425262451172,-0.10926159471273,-0.01814370043576,10.01538562774658,1.29441535472870,1.79017877578735,0.80003499984741
134,2334038511,0.92486763000488,2.04504156112671,112.80201721191406,-0.10858871787786,-0.01228970196098,10.02637100219727,1.21485745906830,1.62276422977448,0.86312288045883
135,2334046844,0.93601799011230,2.06075930595398,112.80859375000000,-0.12605579197407,-0.03356127813458,9.98058319091797,1.35517251491547,1.96005260944366,0.78740721940994
136,2334055177,0.93964356184006,2.06609416007996,112.80618286132812,-0.11627031117678,-0.02609984762967,9.98820304870605,1.34958851337433,1.93254292011261,0.81230431795120
137,2334063510,0.94967889785767,2.08109116554260,112.81343841552734,-0.10863415151834,-0.00914102792740,10.00830841064453,1.22013413906097,1.87870180606842,0.87129390239716
138,2334071843,0.95326280593872,2.08582377433777,112.81141662597656,-0.10563807934523,-0.00382225820795,10.00473403930664,1.35425031185150,1.87324595451355,0.79680770635605
139,2334080176,0.96390140056610,2.10008168220520,112.81858062744141,-0.13080194592476,-0.01965594850481,10.00802803039551,1.29500436782837,1.79263782501221,0.86071509122849
140,2334088509,0.96681797504425,2.10470914840698,112.81593322753906,-0.11929455399513,-0.02694358862936,10.01794528961182,1.28002011775970,1.87260544300079,0.82162779569626
141,2334096842,0.97743827104568,2.11845374107361,112.82400512695312,-0.12053620815277,-0.01920561306179,10.03064727783203,1.29075276851654,1.73687565326691,0.97295683622360
142,2334105175,0.97994083166122,2.12200856208801,112.82292175292969,-0.12004127353430,-0.00714414520189,10.00294780731201,1.23755180835724,1.75816130638123,0.93558567762375
143,2334113508,0.99102628231049,2.13752841949463,112.82994842529297,-0.11814189702272,-0.01898569613695,9.97780799865723,1.35250866413116,1.95101070404053,0.84491121768951
144,2334121841,0.99374228715897,2.13996028900146,112.82839965820312,-0.11772154271603,-0.01849926263094,9.98528385162354,1.27661335468292,1.63303554058075,0.80692523717880
145,2334130174,1.00499343872070,2.15371227264404,112.83576202392578,-0.11437781900167,-0.01928318478167,10.02771568298340,1.37279498577118,1.74320244789124,0.88758450746536
146,2334138507,1.00750052928925,2.15737867355347,112.83309936523438,-0.09886579215527,0.00711983675137,9.99653530120850,1.26439547538757,1.79309880733490,0.75193148851395
147,2334146840,1.01836740970612,2.17042398452759,112.84008789062500,-0.12314323335886,-0.01352004613727,10.02563095092773,1.33019840717316,1.66100621223450,0.84693467617035
148,2334155173,1.02062547206879,2.17260050773621,112.83820343017578,-0.11387111991644,-0.02720815129578,9.99903297424316,1.23878121376038,1.63185715675354,0.81276524066925
149,2334163506,1.03124475479126,2.18690013885498,112.84577941894531,-0.10937356948853,-0.00853169150651,10.02078247070312,1.30074214935303,1.81484556198120,0.91629797220230
150,2334171839,1.03346693515778,2.19142007827759,112.84397125244141,-0.11318217217922,-0.01089506782591,10.00066184997559,1.24523603916168,1.92836737632751,0.79383629560471
151,2334180172,1.04419457912445,2.20534658432007,112.85083007812500,-0.09563392400742,-0.00073604320642,10.04521942138672,1.32008087635040,1.77237689495087,0.83043909072876
152,2334188505,1.04722702503204,2.20895051956177,112.84860229492188,-0.11554086953402,-0.00979548599571,9.97148609161377,1.35094594955444,1.83390259742737,0.79409253597260
153,2334196838,1.05824446678162,2.22235536575317,112.85504150390625,-0.10528610646725,-0.02531293965876,10.00551509857178,1.35658109188080,1.71397662162781,0.78287357091904
154,2334205171,1.06150960922241,2.22511482238770,112.85272216796875,-0.14114633202553,-0.02052929438651,10.01686763763428,1.39000785350800,1.74906814098358,0.84865093231201
155,2334213504,1.07178497314453,2.23934578895569,112.85872650146484,-0.12930759787560,-0.01817068643868,9.97708511352539,1.27178514003754,1.81401288509369,0.72873777151108
156,2334221837,1.07409095764160,2.24311447143555,112.85748291015625,-0.11331038177013,-0.02489791810513,10.01109218597412,1.28455376625061,1.88310730457306,0.85753893852234
157,2334230170,1.08512461185455,2.25774645805359,112.86447143554688,-0.10865863412619,-0.03242659568787,10.00615882873535,1.36172962188721,1.86907088756561,0.84624314308167
158,2334238503,1.08765482902527,2.26023793220520,112.86093902587891,-0.11518363654613,-0.00050600222312,10.02154731750488,1.32707357406616,1.74235701560974,0.79662835597992
159,2334246836,1.09779453277588,2.27337861061096,112.86786651611328,-0.11350826919079,-0.00835032761097,10.00367259979248,1.25835049152374,1.69461214542389,0.84511601924896
160,2334255169,1.09983384609222,2.27565193176270,112.86524200439453,-0.11928916722536,-0.02527881786227,9.98759269714355,1.27528154850006,1.73367381095886,0.83830261230469
161,2334263502,1.11044239997864,2.28974294662476,112.87166595458984,-0.11213554441929,-0.03699699416757,9.97007846832275,1.31828796863556,1.81113135814667,0.78225880861282
162,2334271835,1.11272168159485,2.29291534423828,112.86731719970703,-0.13899640738964,-0.01756722666323,9.98679065704346,1.32305204868317,1.85626375675201,0.73412954807281
163,2334280168,1.12206459045410,2.30626893043518,112.87438201904297,-0.11683247983456,-0.00633986946195,10.00771236419678,1.16644656658173,1.72701430320740,0.86230319738388
164,2334288501,1.12449121475220,2.30965614318848,112.87129211425781,-0.10229580849409,-0.02020641975105,9.99057865142822,1.35051059722900,1.89760506153107,0.77508682012558
165,2334296834,1.13558042049408,2.32320928573608,112.87818145751953,-0.10702643543482,-0.01800555735826,9.99413394927979,1.37873744964600,1.75408828258514,0.84196549654007
166,2334305167,1.13789486885071,2.32584857940674,112.87603759765625,-0.11651396751404,-0.02972662076354,10.01993274688721,1.34410703182220,1.82893347740173,0.88425469398499
167,2334313500,1.14781653881073,2.33938789367676,112.88238525390625,-0.12238869071007,-0.00946782715619,10.01550292968750,1.24405765533447,1.75608623027802,0.77826285362244
168,2334321833,1.14937174320221,2.34102869033813,112.87918853759766,-0.10410020500422,-0.01413233391941,9.99828052520752,1.27059412002563,1.72376108169556,0.82367688417435
169,2334330166,1.16026997566223,2.35523581504822,112.88587951660156,-0.11696503311396,-0.04039505124092,9.97303390502930,1.36215221881866,1.84077978134155,0.81720930337906
170,2334338499,1.16238188743591,2.35800218582153,112.88311004638672,-0.11879632622004,-0.04145047813654,9.99333286285400,1.34855091571808,1.87763869762421,0.85565626621246
171,2334346832,1.17365610599518,2.37200903892517,112.88975524902344,-0.12056354433298,-0.01834930293262,10.02197933197021,1.41124200820923,1.82055747509003,0.81378990411758
172,2334355165,1.17508172988892,2.37527465820312,112.88738250732422,-0.12035702168941,-0.01219028234482,10.04028987884521,1.28040456771851,1.95395636558533,0.86104816198349
173,2334363498,1.18617737293243,2.38800978660583,112.89469146728516,-0.13250207901001,-0.00553668010980,10.00664710998535,1.38975167274475,1.67619562149048,0.89613974094391
174,2334371831,1.18730700016022,2.38884973526001,112.89144897460938,-0.12406072020531,-0.01304956618696,10.00195503234863,1.26144993305206,1.67716896533966,0.77342188358307
175,2334380164,1.19804298877716,2.40219879150391,112.89796447753906,-0.12178824841976,-0.01444754935801,10.01875686645508,1.35174000263214,1.75052797794342,0.80382585525513
176,2334388497,1.19964516162872,2.40360927581787,112.89363861083984,-0.12589333951473,-0.01450382824987,10.01138973236084,1.33329784870148,1.76138865947723,0.75564551353455
177,2334396830,1.20968127250671,2.41707921028137,112.90056610107422,-0.11356222629547,-0.01682495512068,10.00487422943115,1.26877546310425,1.77199268341064,0.85397857427597
178,2334405163,1.21074223518372,2.41897034645081,112.89663696289062,-0.11663623899221,-0.03510866686702,10.00553321838379,1.28025054931641,1.83728337287903,0.74650114774704
179,2334413496,1.22027325630188,2.43198037147522,112.90320587158203,-0.11953774839640,-0.00327032711357,10.02278327941895,1.21342325210571,1.72109746932983,0.81419974565506
180,2334421829,1.22172844409943,2.43329429626465,112.89949035644531,-0.10838562995195,-0.01723416894674,10.00012111663818,1.34213459491730,1.78564512729645,0.74235165119171
181,2334430162,1.23227465152740,2.44725227355957,112.90630340576172,-0.11817457526922,-0.01151442620903,9.99961090087891,1.33708870410919,1.83992195129395,0.84132522344589
182,2334438495,1.23309850692749,2.44728922843933,112.90357208251953,-0.11313577741385,-0.01048467494547,10.02750682830811,1.27781736850739,1.65350139141083,0.83169424533844
183,2334446828,1.24364185333252,2.46098303794861,112.91044616699219,-0.11397083103657,-0.01782014034688,10.02972507476807,1.33985507488251,1.81220710277557,0.85011088848114
184,2334455161,1.24498093128204,2.46247339248657,112.90807342529297,-0.13879978656769,-0.01466124597937,9.99737644195557,1.34925544261932,1.85050058364868,0.88737964630127
185,2334463494,1.25494122505188,2.47677946090698,112.91474914550781,-0.12219576537609,-0.02934642508626,10.00624847412109,1.27407765388489,1.88969027996063,0.82741665840149
186,2334471827,1.25604414939880,2.47827649116516,112.91133117675781,-0.11853399872780,-0.03250507637858,10.02323246002197,1.33698618412018,1.86658596992493,0.86056143045425
187,2334480160,1.26641678810120,2.49312067031860,112.91823577880859,-0.11317907273769,-0.01084353774786,10.01736450195312,1.32517802715302,1.96171748638153,0.85195511579514
188,2334488493,1.26734840869904,2.49346160888672,112.91452789306641,-0.11033630371094,-0.00161536072847,10.01552486419678,1.33833086490631,1.74482882022858,0.74963897466660
189,2334496826,1.27759909629822,2.50622940063477,112.92169189453125,-0.10935463756323,-0.02572345919907,10.00747394561768,1.31311380863190,1.71656370162964,0.89227193593979
190,2334505159,1.27802562713623,2.50594019889832,112.91819000244141,-0.11150747537613,-0.02219491451979,10.00006961822510,1.28732001781464,1.69217872619629,0.79688441753387
191,2334513492,1.28752303123474,2.52068901062012,112.92462158203125,-0.11927050352097,-0.00186213047709,10.00458049774170,1.22976505756378,1.95861804485321,0.79870307445526
192,2334521825,1.28809905052185,2.52157664299011,112.92224884033203,-0.13283935189247,-0.01479384675622,9.99354362487793,1.31880021095276,1.85375332832336,0.86033087968826
193,2334530158,1.29755377769470,2.53391671180725,112.92834472656250,-0.10816699266434,-0.03818883001804,10.01791191101074,1.23045659065247,1.67266070842743,0.76799160242081
194,2334538491,1.29745829105377,2.53239583969116,112.92516326904297,-0.12410915642977,-0.03121930547059,9.99865341186523,1.25343263149261,1.58541870117188,0.85387623310089
195,2334546824,1.30683207511902,2.54603576660156,112.93196868896484,-0.10324967652559,-0.05015500634909,10.00244617462158,1.22046709060669,1.83674550056458,0.85154521465302
196,2334555157,1.30683445930481,2.54550981521606,112.92964935302734,-0.13045592606068,-0.01118264533579,9.99788475036621,1.28406715393066,1.72491371631622,0.87664729356766
197,2334563490,1.31656146049500,2.55767822265625,112.93593597412109,-0.11916312575340,-0.01273725088686,10.01156234741211,1.26908290386200,1.66451549530029,0.79542440176010
198,2334571823,1.31696259975433,2.55812025070190,112.93257904052734,-0.09817726910114,-0.00935061182827,10.02185821533203,1.34846150875092,1.85882508754730,0.79870307445526
199,2334580156,1.32733070850372,2.56991624832153,112.93889617919922,-0.11128155887127,-0.02978083677590,10.00016403198242,1.35051047801971,1.62591469287872,0.79995810985565
200,2334588489,1.32666873931885,2.57036733627319,112.93670654296875,-0.11859814077616,-0.04135676473379,9.98388385772705,1.23242890834808,1.88559198379517,0.91975605487823
201,2334596822,1.33622169494629,2.58438372612000,112.94321441650391,-0.12547607719898,-0.00739542767406,10.00622367858887,1.25499510765076,1.89811754226685,0.81840038299561
202,2334605155,1.33624076843262,2.58369493484497,112.94010162353516,-0.11799781024456,-0.02752315439284,10.01128578186035,1.33512914180756,1.76603746414185,0.82643049955368
203,2334613488,1.34576690196991,2.59580779075623,112.94627380371094,-0.12751984596252,-0.02435763739049,10.03653335571289,1.25635254383087,1.67435121536255,0.78510183095932
204,2334621821,1.34543406963348,2.59511494636536,112.94376373291016,-0.11982158571482,-0.02162084542215,10.02050304412842,1.30963003635406,1.78572189807892,0.80897426605225
205,2334630154,1.35572898387909,2.60927319526672,112.94966888427734,-0.11975182592869,-0.00363876577467,10.01262760162354,1.35558235645294,1.92344975471497,0.75170093774796
206,2334638487,1.35502934455872,2.60865736007690,112.94670867919922,-0.13282521069050,-0.01682042330503,9.99246311187744,1.27871382236481,1.81866192817688,0.87475174665451
207,2334646820,1.36528372764587,2.62157654762268,112.95337677001953,-0.13387531042099,-0.02088774926960,10.02763366699219,1.34958863258362,1.78272533416748,0.84624314308167
208,2334655153,1.36519181728363,2.62063598632812,112.95029449462891,-0.10737137496471,-0.01710123009980,9.99976348876953,1.37115573883057,1.79596769809723,0.78425669670105
209,2334663486,1.37461292743683,2.63361811637878,112.95726013183594,-0.12580519914627,-0.01205975469202,10.02076721191406,1.25199818611145,1.79786312580109,0.88258963823318
210,2334671819,1.37371051311493,2.63276386260986,112.95399475097656,-0.10498621314764,-0.03481889143586,10.01754474639893,1.28721773624420,1.82998335361481,0.86980813741684
211,2334680152,1.38407886028290,2.64658975601196,112.96018218994141,-0.10986649990082,-0.01524114329368,10.00013256072998,1.37410128116608,1.90267646312714,0.79040402173996
212,2334688485,1.38353705406189,2.64630293846130,112.95677185058594,-0.12062928825617,-0.02804005704820,10.03699398040771,1.34925556182861,1.91978716850281,0.80741190910339
213,2334696818,1.39335668087006,2.65907835960388,112.96321868896484,-0.13241662085056,-0.02908470667899,9.99988937377930,1.31088542938232,1.78282773494720,0.82390749454498
214,2334705151,1.39186227321625,2.65827012062073,112.95930480957031,-0.12506291270256,-0.01502474583685,9.99072551727295,1.25712108612061,1.87532067298889,0.73843282461166
215,2334713484,1.40175688266754,2.67024445533752,112.96595001220703,-0.13842616975307,-0.02233317308128,9.98129940032959,1.32205307483673,1.69468891620636,0.85069996118546
216,2334721817,1.40028941631317,2.66785192489624,112.96279907226562,-0.11271589249372,-0.02094152756035,10.03247070312500,1.27154171466827,1.70839238166809,0.84567946195602
217,2334730150,1.41060698032379,2.68036890029907,112.96885681152344,-0.11522135883570,-0.02781371772289,9.99793052673340,1.38234901428223,1.76305341720581,0.78371876478195
218,2334738483,1.40923511981964,2.67829489707947,112.96652221679688,-0.10230483859777,-0.02313312329352,9.98583602905273,1.29577291011810,1.77089142799377,0.94516533613205
219,2334746816,1.41906106472015,2.69119834899902,112.97230529785156,-0.11335938423872,-0.01457572448999,10.00706386566162,1.32827734947205,1.81558811664581,0.75157284736633
220,2334755149,1.41678369045258,2.69076585769653,112.96877288818359,-0.10773645341396,-0.00622923113406,9.99438190460205,1.20771121978760,1.99017500877380,0.86081767082214
221,2334763482,1.42632377147675,2.70368719100952,112.97497558593750,-0.11541604250669,-0.01777483709157,9.97629165649414,1.29577291011810,1.82532179355621,0.80126452445984
222,2334771815,1.42452800273895,2.70098781585693,112.97149658203125,-0.12686875462532,-0.01827416568995,9.99973201751709,1.28158259391785,1.73966753482819,0.85359436273575
223,2334780148,1.43367385864258,2.71402716636658,112.97785186767578,-0.11426743119955,-0.00976576935500,9.99478912353516,1.25112724304199,1.84614598751068,0.82413798570633
224,2334788481,1.43207120895386,2.71058845520020,112.97519683837891,-0.10803220421076,-0.01721664518118,9.99570178985596,1.32095170021057,1.67573440074921,0.87910616397858
225,2334796814,1.44283223152161,2.72312426567078,112.98199462890625,-0.10597489774227,-0.01598611660302,9.98311805725098,1.44728112220764,1.79212570190430,0.87872201204300
226,2334805147,1.44199419021606,2.72150182723999,112.97867584228516,-0.10604798048735,-0.00946890003979,10.00323867797852,1.43362867832184,1.91509974002838,0.79032725095749
227,2334813480,1.45179295539856,2.73375034332275,112.98448181152344,-0.12368773669004,-0.00864633638412,10.00422954559326,1.34207069873810,1.76150369644165,0.76306086778641
228,2334821813,1.44951426982880,2.73163700103760,112.98069763183594,-0.11399164795876,-0.01553846802562,9.97961902618408,1.27369344234467,1.87818956375122,0.80108517408371
229,2334830146,1.45858895778656,2.74299287796021,112.98709106445312,-0.11529100686312,-0.01574273779988,10.01466941833496,1.25806868076324,1.66264569759369,0.83656096458435
230,2334838479,1.45703911781311,2.74045848846436,112.98435211181641,-0.10249355435371,-0.01717860810459,10.03590679168701,1.37504899501801,1.85336923599243,0.85556674003601
231,2334846812,1.46660614013672,2.75330829620361,112.99073028564453,-0.11944894492626,-0.01210343744606,9.97059917449951,1.32159209251404,1.84868180751801,0.83107948303223
232,2334855145,1.46451985836029,2.74870395660400,112.98726654052734,-0.10815078765154,-0.02734313532710,10.00344181060791,1.32996785640717,1.62706744670868,0.82974755764008
233,2334863478,1.47356677055359,2.76058197021484,112.99382781982422,-0.11435858905315,-0.01537274941802,9.98068428039551,1.26173162460327,1.73866856098175,0.85958814620972
234,2334871811,1.47077322006226,2.75747895240784,112.99113464355469,-0.12596037983894,-0.01952977292240,10.00607585906982,1.25855541229248,1.83149456977844,0.90005856752396
235,2334880144,1.47996294498444,2.76872253417969,112.99731445312500,-0.12409313023090,-0.01701877824962,10.02100467681885,1.28673088550568,1.67004799842834,0.81596702337265
236,2334888477,1.48953306674957,2.78115606307983,113.00418853759766,-0.11585287004709,-0.01153453905135,10.02880859375000,1.31237101554871,1.79450774192810,0.89273297786713
237,2334896810,-0.11449012905359,0.63067966699600,112.14370727539062,-0.12582734227180,-0.00002519541886,10.03338241577148,1.37650907039642,1.90925943851471,0.78548610210419
238,2334905143,-0.11396305263042,0.63104081153870,112.14595031738281,-0.13730955123901,-0.03732863068581,10.00893878936768,1.37727761268616,1.84975767135620,0.83776485919952
239,2334913476,-0.11419468373060,0.63142770528793,112.14553833007812,-0.13204543292522,-0.01548536121845,10.00663948059082,1.27540957927704,1.83856403827667,0.78556293249130
240,2334921809,-0.11485037952662,0.63146024942398,112.14855194091797,-0.10287472605705,-0.00387284904718,10.00080680847168,1.23547697067261,1.80764782428741,0.84078723192215
241,2334930142,-0.11470033228397,0.63209193944931,112.14818572998047,-0.11752122640610,-0.02152110077441,10.00829601287842,1.32169461250305,1.86750817298889,0.78963565826416
242,2334938475,-0.11412402987480,0.63170427083969,112.15145111083984,-0.11957278102636,-0.02801522798836,10.02340412139893,1.38265633583069,1.75726473331451,0.88445949554443
243,2334946808,-0.11432377249002,0.63248419761658,112.15139007568359,-0.11773744970560,-0.00807590037584,10.01912307739258,1.27976417541504,1.88546395301819,0.82723742723465
244,2334955141,-0.11443725973368,0.63289147615433,112.15392303466797,-0.13765840232372,-0.01393828727305,9.99815654754639,1.29720735549927,1.85201156139374,0.88112974166870
245,2334963474,-0.11423756927252,0.63273555040359,112.15315246582031,-0.13674761354923,-0.01579686999321,9.99671745300293,1.33004474639893,1.77278673648834,0.74296653270721
246,2334971807,-0.11344929784536,0.63307303190231,112.15554809570312,-0.13382607698441,-0.00463412702084,10.00208282470703,1.40555560588837,1.84256005287170,0.82582855224609
247,2334980140,-0.11231038719416,0.63333648443222,112.15471649169922,-0.12882025539875,-0.02100385352969,10.04387187957764,1.44269621372223,1.82340073585510,0.73397600650787
248,2334988473,-0.11176075786352,0.63371622562408,112.15647888183594,-0.12091925740242,-0.00849164184183,9.99993324279785,1.37622725963593,1.84624838829041,0.82149976491928
249,2334996806,-0.11220514774323,0.63334292173386,112.15557861328125,-0.13880503177643,-0.02061718888581,9.99960803985596,1.25309956073761,1.74573814868927,0.72634285688400
250,2335005139,-0.11295969784260,0.63392537832260,112.15779876708984,-0.10469514131546,-0.01761709153652,9.97435569763184,1.22064614295959,1.87001836299896,0.82231932878494
251,2335013472,-0.11337754130363,0.63351517915726,112.15745544433594,-0.12479630857706,-0.02445840463042,10.01036834716797,1.25414967536926,1.74076890945435,0.79212015867233
252,2335021805,-0.11357118934393,0.63369655609131,112.15965270996094,-0.12213621288538,0.00924874655902,10.02929019927979,1.28726899623871,1.82137715816498,0.82080817222595
253,2335030138,-0.11355315148830,0.63390594720840,112.15961456298828,-0.12683239579201,-0.01353209372610,10.04873466491699,1.30658209323883,1.81638205051422,0.82979875802994
254,2335038471,-0.11401086300611,0.63372719287872,112.16162872314453,-0.12340757250786,-0.00738200033084,9.98827266693115,1.25455975532532,1.77611672878265,0.89465403556824
255,2335046804,-0.11356154084206,0.63369536399841,112.16184234619141,-0.12672348320484,-0.00678976299241,9.99927330017090,1.35604333877563,1.78679788112640,0.85848677158356
256,2335055137,-0.11357686668634,0.63349384069443,112.16361236572266,-0.12193992733955,-0.01260708738118,9.99463176727295,1.30788838863373,1.77350401878357,0.82108986377716
257,2335063470,-0.11339519172907,0.63357037305832,112.16364288330078,-0.11629220843315,-0.01215683203191,10.00808620452881,1.32584404945374,1.79993796348572,0.83745747804642
258,2335071803,-0.11390931904316,0.63286465406418,112.16581726074219,-0.13742806017399,-0.00386307574809,10.01199531555176,1.24715709686279,1.71269583702087,0.84186315536499
259,2335080136,-0.11397763341665,0.63237798213959,112.16535949707031,-0.12427594512701,-0.03002337366343,10.01262378692627,1.29567039012909,1.73328959941864,0.77736634016037
260,2335088469,-0.11388546973467,0.63266098499298,112.16665649414062,-0.13074842095375,-0.01038946676999,9.99855041503906,1.32051622867584,1.82903563976288,0.81519860029221
261,2335096802,-0.11359406262636,0.63297849893570,112.16662597656250,-0.13869324326515,0.00093544845004,9.99949932098389,1.33811342716217,1.82911276817322,0.82897913455963
262,2335105135,-0.11368834972382,0.63412678241730,112.16842651367188,-0.11567495018244,-0.01359118148685,10.01863765716553,1.29771971702576,1.93313205242157,0.76425194740295
263,2335113468,-0.11343400925398,0.63343369960785,112.16797637939453,-0.11163815110922,-0.01275332551450,9.99892425537109,1.33460402488708,1.70813620090485,0.77944105863571
264,2335121801,-0.11266738921404,0.63284891843796,112.17016601562500,-0.12704887986183,-0.01644027605653,10.02402305603027,1.39917755126953,1.72445285320282,0.81735026836395
265,2335130134,-0.11320541054010,0.63319766521454,112.16971588134766,-0.12172159552574,-0.02645007893443,10.01046943664551,1.23985707759857,1.83277523517609,0.77946674823761
266,2335138467,-0.11412343382835,0.63324397802353,112.17140960693359,-0.12371898442507,-0.00958950631320,9.98212718963623,1.19823396205902,1.79811942577362,0.87244653701782
267,2335146800,-0.11369050294161,0.63271450996399,112.17118835449219,-0.11159595847130,-0.03185077011585,10.02300453186035,1.35540282726288,1.72821807861328,0.80597746372223
268,2335155133,-0.11322444677353,0.63287132978439,112.17287445068359,-0.12766113877296,-0.02274759672582,10.01061248779297,1.36283123493195,1.81169486045837,0.86642718315125
269,2335163466,-0.11314921081066,0.63321954011917,112.17239379882812,-0.12914219498634,-0.01603429019451,9.99570274353027,1.31390786170959,1.83313405513763,0.77552223205566
270,2335171799,-0.11315108835697,0.63298845291138,112.17426300048828,-0.12483783066273,-0.01593172363937,9.99994659423828,1.30747854709625,1.76464140415192,0.78692048788071
271,2335180132,-0.11357615888119,0.63165819644928,112.17399597167969,-0.13180667161942,-0.01892203092575,10.00723266601562,1.25220298767090,1.63137054443359,0.80157190561295
272,2335188465,-0.11322662234306,0.63206136226654,112.17580413818359,-0.13141834735870,-0.00608396716416,9.97554588317871,1.34948599338531,1.84086942672729,0.84063357114792
273,2335196798,-0.11314418911934,0.63161772489548,112.17571258544922,-0.11236262321472,-0.03335502743721,9.99151420593262,1.31403577327728,1.73756718635559,0.82073122262955
274,2335205131,-0.11292311549187,0.63117396831512,112.17730712890625,-0.12823702394962,-0.01370284147561,10.00611782073975,1.33401489257812,1.73820745944977,0.85753905773163
275,2335213464,-0.11216487735510,0.63146871328354,112.17647552490234,-0.13592714071274,-0.01611133851111,10.02433681488037,1.39587342739105,1.82744741439819,0.73436009883881
276,2335221797,-0.11198003590107,0.63130909204483,112.17879486083984,-0.10949496179819,-0.02000276185572,10.00099945068359,1.32850790023804,1.77084016799927,0.84501355886459
277,2335230130,-0.11266206204891,0.63046050071716,112.17896270751953,-0.12832057476044,-0.00645005749539,10.00100135803223,1.22177338600159,1.68915629386902,0.85313326120377
278,2335238463,-0.11207186430693,0.63024878501892,112.18081665039062,-0.10580980032682,-0.02993409894407,10.02623748779297,1.37745678424835,1.76479506492615,0.89460271596909
279,2335246796,-0.11140099912882,0.62861180305481,112.18087005615234,-0.11154954135418,-0.01246296055615,10.00123596191406,1.38314294815063,1.59420430660248,0.84030055999756
280,2335255129,-0.11184312403202,0.62826901674271,112.18260955810547,-0.11277710646391,-0.01013134233654,10.01046848297119,1.25432908535004,1.74917042255402,0.84447568655014
281,2335263462,-0.11174725741148,0.62775498628616,112.18205261230469,-0.11371205747128,-0.00945818983018,9.98856067657471,1.31600809097290,1.72962677478790,0.76691579818726
282,2335271795,-0.11182723194361,0.62773156166077,112.18237304687500,-0.12054667621851,-0.01071630511433,9.99573421478271,1.29620850086212,1.78654170036316,0.79578304290771
283,2335280128,-0.11228102445602,0.62788438796997,112.18248748779297,-0.11382324248552,-0.01549964863807,10.01516819000244,1.25035881996155,1.81010663509369,0.84760051965714
284,2335288461,-0.11282190680504,0.62833797931671,112.18390655517578,-0.13449646532536,-0.00761467032135,10.01345539093018,1.24054884910583,1.84353339672089,0.86273872852325
285,2335296794,-0.11192836612463,0.62790507078171,112.18367004394531,-0.13752187788486,-0.00159508315846,10.02051544189453,1.41160070896149,1.74051296710968,0.80636179447174
286,2335305127,-0.11150496453047,0.62763160467148,112.18486022949219,-0.12578251957893,-0.01108537521213,10.02037525177002,1.35583829879761,1.75529229640961,0.76940035820007
287,2335313460,-0.11150062829256,0.62819045782089,112.18477630615234,-0.11545623093843,-0.01401545759290,10.04181289672852,1.30463540554047,1.85790288448334,0.82536751031876
288,2335321793,-0.11159098148346,0.62796998023987,112.18625640869141,-0.12651382386684,-0.02492616884410,10.00143241882324,1.29418492317200,1.76328408718109,0.84073609113693
289,2335330126,-0.11161915212870,0.62714445590973,112.18630981445312,-0.12833161652088,-0.02919919788837,9.98893165588379,1.30115187168121,1.69092369079590,0.83973705768585
290,2335338459,-0.11245786398649,0.62668472528458,112.18692779541016,-0.11870599538088,-0.03161558136344,10.01951694488525,1.20530331134796,1.73277723789215,0.74790996313095
291,2335346792,-0.11291700601578,0.62681382894516,112.18625640869141,-0.11902004480362,-0.01704587228596,10.02075386047363,1.24912929534912,1.80764782428741,0.75241810083389
292,2335355125,-0.11305742710829,0.62794882059097,112.18901062011719,-0.11827687174082,-0.04467440396547,9.98957061767578,1.28811430931091,1.92444872856140,0.90328603982925
293,2335363458,-0.11306962370872,0.62711763381958,112.18826293945312,-0.13638573884964,-0.01849801093340,9.98328495025635,1.30320096015930,1.69156408309937,0.74465698003769
294,2335371791,-0.11382633447647,0.62740713357925,112.18885803222656,-0.10678710043430,-0.02666069008410,9.99183750152588,1.21524178981781,1.82199156284332,0.83113068342209
295,2335380124,-0.11331719905138,0.62866955995560,112.18830108642578,-0.12773320078850,-0.01288626715541,9.99704265594482,1.36590456962585,1.94230175018311,0.76955407857895
296,2335388457,-0.11285012215376,0.62943726778030,112.18907165527344,-0.13105972111225,-0.01612094044685,10.00095558166504,1.36272859573364,1.87862503528595,0.77946686744690
297,2335396790,-0.11266019940376,0.62961423397064,112.18859863281250,-0.11910405009985,-0.01336268242449,10.02410125732422,1.32709920406342,1.81197643280029,0.77836531400681
298,2335405123,-0.11220185458660,0.62943291664124,112.18985748291016,-0.13456651568413,-0.02029585838318,10.01992321014404,1.36167836189270,1.76587116718292,0.79580873250961
299,2335413456,-0.11197003722191,0.62905639410019,112.18998718261719,-0.12583953142166,-0.01708038151264,10.01701927185059,1.33127427101135,1.74504649639130,0.84939366579056
300,2335421789,-0.11293814331293,0.62851369380951,112.19091796875000,-0.13685104250908,-0.01295072585344,9.98493099212646,1.18870556354523,1.72091817855835,0.83294934034348
301,2335430122,-0.11437054723501,0.62839072942734,112.19069671630859,-0.12894280254841,-0.00184848485515,9.99618721008301,1.13327622413635,1.77703869342804,0.80777049064636
302,2335438455,-0.11407937854528,0.63028544187546,112.19202423095703,-0.11783633381128,-0.03194343671203,9.99728870391846,1.33890712261200,2.01299691200256,0.86660635471344
303,2335446788,-0.11392948031425,0.63132220506668,112.19216156005859,-0.10935101658106,-0.01752223633230,9.99741649627686,1.32292413711548,1.91435694694519,0.85077685117722
304,2335455121,-0.11385239660740,0.63013368844986,112.19218444824219,-0.12068174034357,-0.03305648639798,10.00330257415771,1.31511163711548,1.64297389984131,0.71561044454575
305,2335463454,-0.11400358378887,0.62982529401779,112.19220733642578,-0.12930978834629,-0.01671080105007,9.99637603759766,1.28598821163177,1.75385785102844,0.83758538961411
306,2335471787,-0.11423671245575,0.62913912534714,112.19316864013672,-0.12619039416313,-0.02456083148718,9.99003791809082,1.27720272541046,1.70286011695862,0.82887667417526
307,2335480120,-0.11455054581165,0.62926852703094,112.19331359863281,-0.11004248261452,-0.01859902963042,10.01150131225586,1.26672637462616,1.80718672275543,0.85167324542999
308,2335488453,-0.11419345438480,0.62842613458633,112.19496917724609,-0.10979896783829,-0.01371671166271,10.00048637390137,1.34879446029663,1.68367505073547,0.83566445112228
309,2335496786,-0.11403194069862,0.62895470857620,112.19528198242188,-0.14746788144112,0.00863868929446,10.01290988922119,1.32259106636047,1.85441923141479,0.87382960319519
310,2335505119,-0.11471390724182,0.62904644012451,112.19657135009766,-0.12393904477358,-0.01538850925863,9.99452304840088,1.22369432449341,1.79594194889069,0.77634185552597
311,2335513452,-0.11403580009937,0.62919586896896,112.19668579101562,-0.12168808281422,-0.02074074931443,10.00084114074707,1.38516652584076,1.80818569660187,0.84831780195236
312,2335521785,-0.11308000981808,0.62914592027664,112.19862365722656,-0.13165973126888,-0.02025051601231,10.00030517578125,1.41961777210236,1.77878057956696,0.87523835897446
313,2335530118,-0.11292078346014,0.62783545255661,112.19844818115234,-0.11707627773285,-0.01988757401705,10.01284408569336,1.32259106636047,1.63265132904053,0.81161266565323
314,2335538451,-0.11265522241592,0.62721085548401,112.19918060302734,-0.13030312955379,-0.02199888788164,10.03058910369873,1.33775448799133,1.70954525470734,0.75900095701218
315,2335546784,-0.11250826716423,0.62699764966965,112.19859313964844,-0.11082337051630,-0.00098087929655,9.99620532989502,1.32225799560547,1.76584506034851,0.76322734355927
316,2335555117,-0.11302421241999,0.62659686803818,112.20027923583984,-0.10822315514088,-0.01657059602439,10.01425933837891,1.24277722835541,1.73536455631256,0.84457826614380
317,2335563450,-0.11206170171499,0.62705922126770,112.20032501220703,-0.13348767161369,-0.01133676338941,10.02502346038818,1.41920804977417,1.84676086902618,0.83873814344406
318,2335571783,-0.11176138371229,0.62681776285172,112.20155334472656,-0.10313953459263,-0.01571877673268,10.00053596496582,1.34108459949493,1.75406289100647,0.81860530376434
319,2335580116,-0.11211238056421,0.62563455104828,112.20186614990234,-0.10473764687777,-0.03764837235212,10.00026702880859,1.26134753227234,1.64889085292816,0.87101203203201
320,2335588449,-0.11248265206814,0.62561315298080,112.20263671875000,-0.10880248248577,-0.02217775024474,9.98267364501953,1.25996410846710,1.78126502037048,0.84883010387421
321,2335596782,-0.11242831498384,0.62529242038727,112.20274353027344,-0.11168272793293,-0.00744268018752,10.01310157775879,1.31044983863831,1.75390899181366,0.84524410963058
322,2335605115,-0.11216584593058,0.62697780132294,112.20481109619141,-0.11418217420578,-0.01828619465232,9.98625850677490,1.33514201641083,1.98587179183960,0.87523835897446
323,2335613448,-0.11287535727024,0.62820065021515,112.20475769042969,-0.10574829578400,-0.02462325803936,9.97851753234863,1.21964752674103,1.93740963935852,0.82749348878860
324,2335621781,-0.11295332014561,0.62833791971207,112.20631408691406,-0.12485140562057,-0.01654720492661,9.97854518890381,1.29410815238953,1.80088567733765,0.86617106199265
325,2335630114,-0.11280231177807,0.62808012962341,112.20625305175781,-0.11846942454576,-0.00789474137127,10.00462341308594,1.32297515869141,1.75962102413177,0.82436847686768
326,2335638447,-0.11314516514540,0.62859517335892,112.20877075195312,-0.11212047189474,-0.00565975066274,9.98692798614502,1.26237189769745,1.84576201438904,0.86173969507217
327,2335646780,-0.11268821358681,0.62890410423279,112.20800018310547,-0.11262413114309,-0.03102638199925,9.99253177642822,1.36075615882874,1.82860028743744,0.74340188503265
328,2335655113,-0.11204364895821,0.62989950180054,112.20910644531250,-0.12348014116287,-0.02433206327260,10.00438880920410,1.38127326965332,1.90377795696259,0.79772979021072
329,2335663446,-0.11170164495707,0.62878650426865,112.20909881591797,-0.10597265511751,-0.03312462940812,10.01971340179443,1.34520840644836,1.65772759914398,0.83356404304504
330,2335671779,-0.11141743510962,0.62824022769928,112.21128845214844,-0.12099943310022,0.01123968046159,10.01397705078125,1.33834362030029,1.71858704090118,0.83133554458618
331,2335680112,-0.11128903925419,0.62747067213058,112.21091461181641,-0.12560558319092,-0.01801104284823,9.98267173767090,1.32008087635040,1.69791650772095,0.78848308324814
332,2335688445,-0.11064133793116,0.62706899642944,112.21189880371094,-0.11533068865538,-0.01201569009572,10.02768611907959,1.38229775428772,1.73677313327789,0.81130522489548
333,2335696778,-0.11070603132248,0.62675559520721,112.21138000488281,-0.12546768784523,0.00045844668057,10.01340579986572,1.29741227626801,1.75365316867828,0.77091169357300
334,2335705111,-0.11071192473173,0.62637782096863,112.21163177490234,-0.12193107604980,-0.01831156387925,10.03922939300537,1.30302166938782,1.73807942867279,0.74870413541794
335,2335713444,-0.11091522127390,0.62681013345718,112.21128845214844,-0.13893061876297,-0.01617761142552,9.97528743743896,1.28027641773224,1.84337949752808,0.79191535711288
336,2335721777,-0.11079364269972,0.62694656848907,112.21233367919922,-0.10731451958418,-0.01647644303739,10.02261638641357,1.31841588020325,1.80024540424347,0.80159759521484
337,2335730110,-0.10979874432087,0.62751913070679,112.21241760253906,-0.12253092974424,-0.01978554949164,10.01814556121826,1.42443335056305,1.85859465599060,0.84383541345596
338,2335738443,-0.10869345813990,0.62824231386185,112.21352386474609,-0.09284474700689,-0.01299270242453,10.02802562713623,1.43626701831818,1.87027442455292,0.80620807409286
339,2335746776,-0.10819646716118,0.62894368171692,112.21347808837891,-0.13023006916046,-0.01712327264249,10.02166938781738,1.36308717727661,1.87583267688751,0.82905596494675
340,2335755109,-0.10777492076159,0.62929618358612,112.21500396728516,-0.12488647550344,-0.00219943071716,9.99937438964844,1.35366106033325,1.82606434822083,0.90743559598923
341,2335763442,-0.10764364898205,0.62782692909241,112.21434020996094,-0.11958374083042,-0.00147340830881,10.01121139526367,1.32005512714386,1.61479818820953,0.75359636545181
342,2335771775,-0.10800203680992,0.62821239233017,112.21512603759766,-0.14335103332996,-0.02997323498130,10.01132488250732,1.26060450077057,1.82977843284607,0.86040776968002
343,2335780108,-0.10820467025042,0.62824267148972,112.21511840820312,-0.10730205476284,-0.01992828957736,9.99393272399902,1.27917480468750,1.79402089118958,0.83289802074432
344,2335788441,-0.10810644179583,0.62685078382492,112.21714019775391,-0.11267375946045,-0.00958641432226,10.00782966613770,1.31534230709076,1.61630964279175,0.89462834596634
345,2335796774,-0.10753470659256,0.62708920240402,112.21713256835938,-0.13160957396030,-0.01336797326803,9.96614837646484,1.37171912193298,1.82004523277283,0.83294928073883
346,2335805107,-0.10738329589367,0.62851333618164,112.21823120117188,-0.11528904736042,-0.03087011538446,9.99128627777100,1.32233500480652,1.95267581939697,0.79014796018600
347,2335813440,-0.10739401727915,0.62938475608826,112.21831512451172,-0.12399159371853,-0.02519555203617,10.01627159118652,1.30233013629913,1.89573526382446,0.84204232692719
348,2335821773,-0.10778974741697,0.62849313020706,112.21962738037109,-0.10767943412066,-0.01891386695206,10.01031303405762,1.25607085227966,1.67706632614136,0.85382485389709
349,2335830106,-0.10737072676420,0.62835764884949,112.21914672851562,-0.11580609530210,-0.01856878586113,10.01170635223389,1.35527479648590,1.77424705028534,0.77795559167862
350,2335838439,-0.10778968036175,0.62763172388077,112.21945190429688,-0.12154881656170,-0.01494935434312,10.00577449798584,1.25466203689575,1.69545733928680,0.71522623300552
351,2335846772,-0.10734264552593,0.62714785337448,112.21936798095703,-0.11808271706104,-0.00737843569368,9.98559188842773,1.35714459419250,1.73316144943237,0.82544440031052
352,2335855105,-0.10725706070662,0.62862956523895,112.22031402587891,-0.12625597417355,-0.02275565452874,9.99915218353271,1.31477880477905,1.96046233177185,0.81742709875107
353,2335863438,-0.10769984126091,0.62783342599869,112.21950531005859,-0.09982593357563,-0.00879924185574,10.00468349456787,1.25217747688293,1.69625151157379,0.73482120037079
354,2335871771,-0.10721932351589,0.62737482786179,112.22085571289062,-0.11185570806265,-0.00807461142540,10.00936794281006,1.35957789421082,1.72832047939301,0.87672400474548
355,2335880104,-0.10638008266687,0.62875145673752,112.22085571289062,-0.13124619424343,-0.01648044586182,10.00850868225098,1.40430033206940,1.95590281486511,0.83492159843445
356,2335888437,-0.10539329797029,0.62995606660843,112.22117614746094,-0.13208541274071,-0.01215103454888,9.98821449279785,1.42427957057953,1.92780423164368,0.74647569656372
357,2335896770,-0.10504139214754,0.62881249189377,112.22142028808594,-0.13627795875072,-0.02024256624281,9.99801254272461,1.34554135799408,1.65426957607269,0.86225193738937
358,2335905103,-0.10473182797432,0.62939369678497,112.22235870361328,-0.10603442788124,-0.02472659572959,9.98120880126953,1.34070026874542,1.85147392749786,0.81250917911530
359,2335913436,-0.10411390662193,0.63005286455154,112.22299194335938,-0.11296121031046,-0.02649589255452,10.00500774383545,1.37755930423737,1.87047958374023,0.91050928831100
360,2335921769,-0.10326824337244,0.63023823499680,112.22416687011719,-0.11520406603813,-0.02857736498117,9.99796104431152,1.40399312973022,1.80390822887421,0.80733507871628
361,2335930102,-0.10201196372509,0.63176846504211,112.22437286376953,-0.12055096030235,-0.02333864942193,9.99006271362305,1.45465791225433,1.97539532184601,0.85797446966171
362,2335938435,-0.10214488208294,0.63239687681198,112.22502136230469,-0.09745143353939,-0.02456924133003,9.98536682128906,1.28906202316284,1.85705780982971,0.79673087596893
363,2335946768,-0.10236056149006,0.63256329298019,112.22549438476562,-0.11615654826164,-0.01152720861137,10.00329494476318,1.27712571620941,1.81125950813293,0.88812243938446
364,2335955101,-0.10268486291170,0.63256299495697,112.22673797607422,-0.09569145739079,-0.00960993487388,9.99256038665771,1.26477956771851,1.78303241729736,0.82441967725754
365,2335963434,-0.10313265770674,0.63060784339905,112.22675323486328,-0.12474980950356,-0.00773005373776,9.99923610687256,1.24938559532166,1.55542445182800,0.83499848842621
366,2335971767,-0.10364563018084,0.63068908452988,112.22824096679688,-0.12908452749252,-0.03793773800135,9.98843097686768,1.24167549610138,1.79330372810364,0.86732357740402
367,2335980100,-0.10383830219507,0.63116639852524,112.22853088378906,-0.11172321438789,-0.02744463831186,9.99522209167480,1.28058373928070,1.84837424755096,0.86888605356216
368,2335988433,-0.10418292880058,0.63030868768692,112.22962951660156,-0.12443381547928,-0.02119839936495,10.02342891693115,1.26247441768646,1.67975604534149,0.82636648416519
369,2335996766,-0.10481119900942,0.63012802600861,112.22959899902344,-0.10974397510290,0.01131390035152,9.97483158111572,1.22820234298706,1.76935422420502,0.82974743843079
370,2336005099,-0.10473364591599,0.63102793693542,112.23009490966797,-0.12072644382715,-0.01902932487428,10.00955390930176,1.31293463706970,1.89079141616821,0.83284693956375
371,2336013432,-0.10441120713949,0.63037627935410,112.23006439208984,-0.12478189170361,-0.02110081538558,10.00232219696045,1.34356904029846,1.71254205703735,0.82923519611359
372,2336021765,-0.10424832999706,0.62991982698441,112.23047637939453,-0.13636824488640,-0.01063647586852,9.98603248596191,1.32405102252960,1.72837173938751,0.79977881908417
373,2336030098,-0.10360830277205,0.62964671850204,112.23090362548828,-0.12552356719971,-0.02786706946790,10.01085662841797,1.37968516349792,1.75813543796539,0.88525360822678
374,2336038431,-0.10331620275974,0.62949174642563,112.23239135742188,-0.12253137677908,-0.02371144481003,9.99275112152100,1.33857440948486,1.76456451416016,0.85505437850952
375,2336046764,-0.10361993312836,0.62916868925095,112.23227691650391,-0.11650390923023,-0.02368476800621,9.99740791320801,1.26775074005127,1.75183427333832,0.82083374261856
376,2336055097,-0.10390166938305,0.62962502241135,112.23223114013672,-0.12688714265823,-0.01355150528252,10.00521469116211,1.27161860466003,1.83669400215149,0.71609717607498
377,2336063430,-0.10401843488216,0.63021045923233,112.23243713378906,-0.12411724776030,-0.00243848026730,10.01055335998535,1.28808879852295,1.86125862598419,0.85897344350815
378,2336071763,-0.10364890098572,0.62981140613556,112.23403167724609,-0.12440654635429,-0.00344623182900,10.02204608917236,1.34797477722168,1.73428857326508,0.88461327552795
379,2336080096,-0.10334328562021,0.63065224885941,112.23335266113281,-0.11620540171862,-0.01398490276188,9.98343849182129,1.34175050258636,1.89235413074493,0.75372457504272
380,2336088429,-0.10290338099003,0.62971585988998,112.23398590087891,-0.10986850410700,-0.02743469551206,9.97809696197510,1.35729837417603,1.67068850994110,0.76755613088608
381,2336096762,-0.10287974029779,0.63050377368927,112.23387908935547,-0.09715884178877,-0.03539313748479,10.00615215301514,1.30694079399109,1.88584792613983,0.82285732030869
382,2336105095,-0.10243818163872,0.63080143928528,112.23499298095703,-0.11326384544373,-0.02044302225113,9.99828147888184,1.35713195800781,1.81839323043823,0.80650258064270
383,2336113428,-0.10261506587267,0.62975341081619,112.23526763916016,-0.14097417891026,-0.00817895121872,9.99497318267822,1.28165936470032,1.66461777687073,0.86424988508224
384,2336121761,-0.10256102681160,0.62967813014984,112.23697662353516,-0.11598850786686,-0.02086163684726,9.99141502380371,1.31004011631012,1.77270984649658,0.87318921089172
385,2336130094,-0.10242319107056,0.62857830524445,112.23674774169922,-0.12377778440714,-0.01692442409694,9.98886775970459,1.32069551944733,1.65990495681763,0.80561888217926
386,2336138427,-0.10284816473722,0.62962204217911,112.23730468750000,-0.12010181695223,-0.02025759220123,9.99908161163330,1.25330448150635,1.90703094005585,0.82421487569809
387,2336146760,-0.10347989201546,0.62909245491028,112.23727416992188,-0.12766072154045,-0.01353872288018,10.01112461090088,1.22748541831970,1.72703969478607,0.82800573110580
388,2336155093,-0.10314066708088,0.62915802001953,112.23783874511719,-0.12937769293785,-0.01988147944212,10.00073337554932,1.34444010257721,1.79138302803040,0.82009100914001
389,2336163426,-0.10325543582439,0.62943857908249,112.23804473876953,-0.12261773645878,-0.01667241565883,9.99969577789307,1.29065012931824,1.82370817661285,0.85884541273117
390,2336171759,-0.10280966013670,0.62972694635391,112.23934936523438,-0.14113456010818,-0.01249730680138,9.99418640136719,1.35709345340729,1.81615161895752,0.87403458356857
391,2336180092,-0.10326321423054,0.62999683618546,112.23907470703125,-0.12183199077845,-0.02228267863393,10.02500247955322,1.24933433532715,1.82419478893280,0.80082911252975
392,2336188425,-0.10326676815748,0.63007497787476,112.24031066894531,-0.11070811748505,-0.03124651871622,10.01245975494385,1.30320096015930,1.79051196575165,0.85584849119186
393,2336196758,-0.10323236882687,0.62962764501572,112.24021148681641,-0.10432148724794,-0.02393519692123,10.01662254333496,1.30865681171417,1.73815631866455,0.82196068763733
394,2336205091,-0.10310590267181,0.62915140390396,112.24091339111328,-0.11092009395361,-0.02546569705009,9.96660995483398,1.31831324100494,1.72470855712891,0.81970661878586
395,2336213424,-0.10331553220749,0.62871319055557,112.24077606201172,-0.10215090215206,-0.00842204410583,10.00532722473145,1.27937960624695,1.73871982097626,0.81714522838593
396,2336221757,-0.10344531387091,0.62835043668747,112.24134826660156,-0.12497273832560,-0.01871475763619,10.00048446655273,1.28872895240784,1.73892474174500,0.82751905918121
397,2336230090,-0.10373617708683,0.62857282161713,112.24138641357422,-0.13927577435970,0.00192158133723,9.99773216247559,1.26872444152832,1.81704831123352,0.83827710151672
398,2336238423,-0.10345570743084,0.62883067131042,112.24211883544922,-0.11519692838192,-0.00395694421604,9.98629856109619,1.33821570873260,1.81333434581757,0.82728862762451
399,2336246756,-0.10371027886868,0.62815940380096,112.24234771728516,-0.14628672599792,-0.02322293259203,10.00164031982422,1.27305305004120,1.70946836471558,0.86232876777649
400,2336255089,-0.10383538156748,0.62704181671143,112.24343109130859,-0.09401125460863,-0.01631203107536,10.00875663757324,1.28837037086487,1.64807093143463,0.85566908121109
401,2336263422,-0.10431154072285,0.62623137235641,112.24389648437500,-0.15742208063602,-0.02943158522248,9.98696041107178,1.24497985839844,1.69317770004272,0.88942867517471
402,2336271755,-0.10452876240015,0.62658047676086,112.24401092529297,-0.12179071456194,-0.01221366226673,9.99890136718750,1.27996897697449,1.82352864742279,0.75480031967163
403,2336280088,-0.10494377464056,0.62576860189438,112.24361419677734,-0.06293627619743,-0.02172774262726,9.98777389526367,1.25376558303833,1.69392049312592,0.78638255596161
404,2336288421,-0.10476797819138,0.62507164478302,112.24417114257812,-0.15157714486122,-0.01863813959062,9.96751880645752,1.32656121253967,1.69799315929413,0.80981969833374
405,2336296754,-0.10443399846554,0.62462496757507,112.24435424804688,-0.10138761997223,-0.03350060060620,10.00208854675293,1.34310805797577,1.73723435401917,0.85687297582626
406,2336305087,-0.10400412976742,0.62558281421661,112.24530792236328,-0.12848395109177,-0.01405656617135,9.99804973602295,1.35519802570343,1.89691340923309,0.82826197147369
407,2336313420,-0.10383753478527,0.62548100948334,112.24504852294922,-0.08678769320250,-0.02413411810994,9.99077510833740,1.32417905330658,1.77998435497284,0.80159747600555
408,2336321753,-0.10345299541950,0.62653428316116,112.24566650390625,-0.12669852375984,-0.03124203905463,9.99122905731201,1.35156047344208,1.90831172466278,0.77992779016495
409,2336330086,-0.10423094779253,0.62651270627975,112.24562072753906,-0.11318703740835,-0.01160330884159,10.01736354827881,1.20958089828491,1.78882122039795,0.82798016071320
410,2336338419,-0.10361178964376,0.62580758333206,112.24674224853516,-0.11077109724283,-0.00517538702115,10.00824451446533,1.37873733043671,1.69622588157654,0.87856823205948
411,2336346752,-0.10360954701900,0.62652552127838,112.24645233154297,-0.08748593926430,-0.00529076205567,10.02407741546631,1.30376458168030,1.87747240066528,0.79998385906219
412,2336355085,-0.10329918563366,0.62598901987076,112.24710083007812,-0.10244897753000,-0.00497103855014,10.01733112335205,1.34208345413208,1.71858704090118,0.83794403076172
413,2336363418,-0.10300781577826,0.62727868556976,112.24810791015625,-0.12127826362848,-0.02898903749883,10.00474739074707,1.33649957180023,1.94529867172241,0.95520615577698
414,2336371751,-0.10345491766930,0.62642645835876,112.25019073486328,-0.09745831042528,-0.01882292889059,10.03280353546143,1.25071752071381,1.67898738384247,0.89870101213455
415,2336380084,-0.10343454033136,0.62755125761032,112.24977874755859,-0.18823872506618,-0.01789735257626,10.03070831298828,1.30594182014465,1.92619037628174,0.78499943017960
416,2336388417,-0.10314675420523,0.62814539670944,112.25096130371094,-0.03463287279010,-0.00893032550812,9.97122478485107,1.33806204795837,1.85426580905914,0.85541307926178
417,2336396750,-0.10305622220039,0.62810552120209,112.25039672851562,-0.20319871604443,-0.03720641136169,10.05556488037109,1.31662297248840,1.78544044494629,0.76499480009079
418,2336405083,-0.10312094539404,0.62988144159317,112.25121307373047,-0.05891254171729,0.00713254231960,9.99768543243408,1.29502999782562,1.99557936191559,0.86711865663528
419,2336413416,-0.10346818715334,0.62992537021637,112.25080871582031,-0.17309972643852,0.01796316541731,10.05504035949707,1.26326847076416,1.79586529731750,0.78461533784866
420,2336421749,-0.10410887002945,0.63202160596848,112.25180053710938,-0.13882455229759,-0.03770688176155,9.98252105712891,1.22658884525299,2.03433394432068,0.84532105922699
421,2336430082,-0.10525982081890,0.63037884235382,112.25144958496094,-0.04403668642044,-0.05028073489666,9.95930957794189,1.16567814350128,1.59317958354950,0.79078823328018
422,2336438415,-0.10602755844593,0.62897336483002,112.25212860107422,-0.18728613853455,-0.00171958724968,10.03416156768799,1.21227049827576,1.61456787586212,0.82044959068298
423,2336446748,-0.10646830499172,0.63007682561874,112.25310516357422,-0.07030680030584,-0.02322912029922,9.96598339080811,1.25076878070831,1.92301440238953,0.95144075155258
424,2336455081,-0.10646463185549,0.62897336483002,112.25339508056641,-0.15789459645748,-0.04649464040995,10.05120849609375,1.30338025093079,1.65070939064026,0.79616725444794
425,2336463414,-0.10657276213169,0.62979644536972,112.25400543212891,-0.12940981984138,-0.02113987132907,9.95274543762207,1.29016351699829,1.88905000686646,0.90733313560486
426,2336471747,-0.10731249302626,0.62987083196640,112.25466918945312,-0.12440966069698,-0.01531303953379,10.03090286254883,1.21652245521545,1.79025566577911,0.85630947351456
427,2336480080,-0.10786963254213,0.63021779060364,112.25426483154297,-0.13588544726372,-0.05335088074207,9.96302986145020,1.23637330532074,1.83292889595032,0.78663873672485
428,2336488413,-0.10795400291681,0.62929910421371,112.25508880615234,-0.08242001384497,-0.00520395115018,9.95974540710449,1.29451775550842,1.67161047458649,0.81793928146362
429,2336496746,-0.10894245654345,0.63034814596176,112.25465393066406,-0.16626678407192,-0.01510037574917,9.94054222106934,1.18629765510559,1.91796839237213,0.78195142745972
430,2336505079,-0.10695912688971,0.62850451469421,112.25538635253906,-0.09066389501095,-0.01834594644606,10.09208106994629,1.54315507411957,1.55947148799896,0.84657603502274
431,2336513412,-0.10823357850313,0.62845391035080,112.25527954101562,-0.15629231929779,-0.00893426965922,9.95489788055420,1.15107810497284,1.78574752807617,0.82155096530914
432,2336521745,-0.10916616022587,0.62803113460541,112.25577545166016,-0.06409919261932,-0.03204060345888,10.03423118591309,1.19118988513947,1.73013901710510,0.81299585103989
433,2336530078,-0.10891568660736,0.62689071893692,112.25473785400391,-0.14646142721176,0.00277385581285,10.02053451538086,1.33649957180023,1.65457689762115,0.70933502912521
434,2336538411,-0.10981599241495,0.62760746479034,112.25537872314453,-0.14337135851383,-0.00399332540110,10.03295803070068,1.19536507129669,1.86781561374664,0.80418455600739
435,2336546744,-0.10919817537069,0.62686949968338,112.25566101074219,-0.15890045464039,-0.01405002735555,10.01216697692871,1.37796890735626,1.70293688774109,0.86921900510788
436,2336555077,-0.10968514531851,0.62626242637634,112.25597381591797,-0.05507297813892,-0.04167532175779,9.92687034606934,1.24528729915619,1.70834136009216,0.83507525920868
437,2336563410,-0.11084704101086,0.62719017267227,112.25578308105469,-0.07202096283436,-0.00234358455054,10.01811122894287,1.16470479965210,1.90183138847351,0.81084424257278
438,2336571743,-0.10973367094994,0.62687933444977,112.25726318359375,-0.18510966002941,-0.02519907057285,9.97439765930176,1.43762469291687,1.74420142173767,0.90884429216385
439,2336580076,-0.11105008423328,0.62606137990952,112.25732421875000,-0.03111599013209,0.03049474954605,10.04485988616943,1.14600646495819,1.69320344924927,0.83989071846008
440,2336588409,-0.11200128495693,0.62579125165939,112.25812530517578,-0.19690582156181,-0.01253828126937,10.03382492065430,1.18891024589539,1.74986207485199,0.80710458755493
441,2336596742,-0.11119167506695,0.62706357240677,112.25817871093750,-0.02908412553370,-0.04560924321413,10.00082874298096,1.40099632740021,1.94455599784851,0.84078735113144
442,2336605075,-0.11103989183903,0.62653082609177,112.25895690917969,-0.18771004676819,-0.00112048652954,10.02361297607422,1.32282137870789,1.71794652938843,0.83597171306610
443,2336613408,-0.11164692044258,0.62686288356781,112.25865936279297,-0.09612157195807,-0.04559803009033,10.02000045776367,1.23102021217346,1.83070075511932,0.79954832792282
444,2336621741,-0.11131139099598,0.62547844648361,112.25962829589844,-0.08717231452465,-0.00230567622930,9.97138118743896,1.34444010257721,1.61566901206970,0.84165811538696
445,2336630074,-0.11102578043938,0.62657785415649,112.26002502441406,-0.20873847603798,0.00944763701409,9.98445510864258,1.33737027645111,1.92342400550842,0.88071984052658
446,2336638407,-0.11016030609608,0.62451183795929,112.26088714599609,-0.08161677420139,-0.02916323021054,9.96236515045166,1.40706670284271,1.53370368480682,0.88507419824600
447,2336646740,-0.11165360361338,0.62319225072861,112.26094055175781,-0.15426594018936,-0.01296770758927,10.10653877258301,1.12474656105042,1.63316369056702,0.83950650691986
448,2336655073,-0.11124935001135,0.62364691495895,112.26164245605469,-0.11134316027164,-0.02761750295758,10.03177165985107,1.35143268108368,1.83643829822540,0.85405540466309
449,2336663406,-0.11071519553661,0.62519639730453,112.26216888427734,-0.13249018788338,0.00642215926200,9.98414516448975,1.36746728420258,1.97606146335602,0.89829134941101
450,2336671739,-0.11011441797018,0.62504905462265,112.26345062255859,-0.19415590167046,0.00934481807053,9.95124626159668,1.37576615810394,1.76300227642059,0.88171887397766
451,2336680072,-0.11155129224062,0.62551373243332,112.26316833496094,-0.06183449923992,-0.03244961798191,10.09867000579834,1.13140642642975,1.84676086902618,0.79947149753571
452,2336688405,-0.11158017069101,0.62393176555634,112.26313781738281,-0.11368507146835,-0.03271842375398,9.97090148925781,1.30112624168396,1.59202718734741,0.75810450315475
453,2336696738,-0.11187426745892,0.62343120574951,112.26255798339844,-0.03962632268667,-0.02151478268206,9.98456382751465,1.26841688156128,1.73136854171753,0.76491785049438
454,2336705071,-0.11191641539335,0.62254744768143,112.26315307617188,-0.06411143392324,-0.02217722311616,9.98220157623291,1.29853928089142,1.67675900459290,0.81350803375244
455,2336713404,-0.11124140769243,0.62190711498260,112.26287078857422,-0.19896756112576,-0.00100598356221,9.94073009490967,1.38596045970917,1.71320807933807,0.79908728599548
456,2336721737,-0.11146949231625,0.62013339996338,112.26400756835938,-0.08597932010889,-0.04027835652232,10.03587532043457,1.27648556232452,1.56920504570007,0.85805130004883
457,2336730070,-0.11286958307028,0.62047767639160,112.26322174072266,-0.20726941525936,0.00753717264161,10.06014251708984,1.13640117645264,1.83269834518433,0.73940610885620
458,2336738403,-0.11178591847420,0.61917775869370,112.26433563232422,-0.13687530159950,-0.00294142682105,9.98840713500977,1.43447399139404,1.62435233592987,0.82736539840698
459,2336746736,-0.11141832172871,0.62031304836273,112.26426696777344,-0.04936986044049,-0.02610018290579,9.95322036743164,1.34769296646118,1.92765033245087,0.82521378993988
460,2336755069,-0.11469081789255,0.61990135908127,112.26426696777344,-0.04298769682646,-0.02176273986697,9.96708869934082,0.91066282987595,1.73249554634094,0.78274548053741
461,2336763402,-0.11364276707172,0.62065392732620,112.26390838623047,-0.19228480756283,-0.04874880611897,10.02435398101807,1.43070888519287,1.88108384609222,0.79127496480942
462,2336771735,-0.11478350311518,0.62135058641434,112.26472473144531,-0.04109784960747,-0.01711613498628,9.98630332946777,1.16649782657623,1.86512601375580,0.85648876428604
463,2336780068,-0.11638585478067,0.62304383516312,112.26472473144531,-0.16358909010887,-0.02012864872813,9.99642753601074,1.11068451404572,1.99565660953522,0.83417886495590
464,2336788401,-0.11428833007812,0.62157052755356,112.26564025878906,-0.06986377388239,-0.02706846967340,10.00510597229004,1.55619299411774,1.60534667968750,0.84588456153870
465,2336796734,-0.11547812819481,0.62148809432983,112.26583862304688,-0.14391788840294,0.00400647986680,10.01229381561279,1.16070902347565,1.77995848655701,0.85830736160278
466,2336805067,-0.11678121238947,0.62282603979111,112.26733398437500,-0.14642347395420,-0.05612008273602,10.00135326385498,1.14521253108978,1.94217395782471,0.94549828767776
467,2336813400,-0.11450809240341,0.62464278936386,112.26691436767578,-0.10359477996826,-0.02871434949338,10.03221702575684,1.57655620574951,2.00982093811035,0.78312957286835
468,2336821733,-0.11537994444370,0.62507939338684,112.26734924316406,-0.09807711094618,-0.00819178856909,10.01485443115234,1.19959151744843,1.83449172973633,0.81384110450745
469,2336830066,-0.11594074219465,0.62514865398407,112.26767730712891,-0.16843035817146,-0.06667938828468,10.01412677764893,1.23598921298981,1.79837536811829,0.87365031242371
470,2336838399,-0.11439248919487,0.62605738639832,112.26908874511719,-0.12743677198887,-0.02264302782714,9.98020648956299,1.48946785926819,1.89163696765900,0.91473567485809
471,2336846732,-0.11569548398256,0.62581908702850,112.26969909667969,-0.12437668442726,0.01265533454716,10.04819011688232,1.14746654033661,1.76128613948822,0.90602672100067
472,2336855065,-0.11636702716351,0.62691503763199,112.27021789550781,-0.16062963008881,-0.03793700039387,10.01562976837158,1.22256743907928,1.91392147541046,0.80018872022629
473,2336863398,-0.11455900222063,0.62814420461655,112.27097320556641,-0.09144650399685,0.01648663356900,9.95269012451172,1.51997435092926,1.93892085552216,0.92285537719727
474,2336871731,-0.11603988707066,0.62825942039490,112.27233886718750,-0.12476430833340,-0.00618248432875,9.96242046356201,1.12597620487213,1.79450774192810,0.89662635326385
475,2336880064,-0.11711113154888,0.62835907936096,112.27261352539062,-0.17986446619034,-0.03980552777648,10.02599716186523,1.17418193817139,1.80329334735870,0.86635023355484
476,2336888397,-0.11581853032112,0.62881189584732,112.27275848388672,-0.03186380118132,0.02591339126229,10.00320911407471,1.45921742916107,1.84537756443024,0.85269796848297
477,2336896730,-0.11755503714085,0.63311529159546,112.27919769287109,-0.20550470054150,-0.01373001001775,9.99162197113037,1.15054011344910,1.85923469066620,0.85077679157257
478,2336905063,-0.11743571609259,0.63304013013840,112.28028106689453,-0.02382511273026,-0.01996173337102,9.99294281005859,1.31672537326813,1.77181339263916,0.91460746526718
479,2336913396,-0.11714446544647,0.63210165500641,112.27964019775391,-0.16212441027164,-0.02174627222121,9.99684333801270,1.34059774875641,1.67655420303345,0.75269985198975
480,2336921729,-0.11836039274931,0.63055354356766,112.28060150146484,-0.08001256734133,0.01305152010173,10.01342964172363,1.15740489959717,1.59615111351013,0.85505437850952
481,2336930062,-0.11730893701315,0.62963140010834,112.28063201904297,-0.11725804954767,-0.05936115607619,9.98283481597900,1.42922306060791,1.67939722537994,0.83553630113602
482,2336938395,-0.11620672047138,0.63076329231262,112.28134918212891,-0.14133338630199,-0.01297374162823,10.01103878021240,1.43639492988586,1.91599595546722,0.83325660228729
483,2336946728,-0.11690085381269,0.63065516948700,112.28113555908203,-0.05429786443710,-0.01524688303471,9.98561382293701,1.22202944755554,1.77783274650574,0.80303186178207
484,2336955061,-0.11732453852892,0.63161861896515,112.28207397460938,-0.17039874196053,-0.01679361052811,9.99021911621094,1.25212645530701,1.89599132537842,0.85052073001862
485,2336963394,-0.11643452942371,0.63338989019394,112.28204345703125,-0.13624410331249,-0.00636971835047,10.05143737792969,1.41152358055115,2.00367331504822,0.82603347301483
486,2336971727,-0.11734724044800,0.63278341293335,112.28347015380859,-0.11461506783962,0.00433423044160,9.97950363159180,1.19321334362030,1.70823884010315,0.91307055950165
487,2336980060,-0.11826214939356,0.62951576709747,112.28291320800781,0.14562918245792,-0.08317442238331,9.87119770050049,1.19346952438354,1.39697468280792,0.76473850011826
488,2336988393,-0.11753430962563,0.62688148021698,112.28524780273438,2.71226549148560,-0.01733947731555,10.31014633178711,1.38957226276398,1.46605622768402,1.09987521171570
489,2336996726,-0.12364823371172,0.63369292020798,112.28530883789062,0.99192625284195,-0.20913007855415,10.00459384918213,0.57001912593842,2.60704255104065,0.84068489074707
490,2337005059,-0.12053079158068,0.63157320022583,112.28542327880859,-0.72088164091110,0.04827000200748,9.99829387664795,1.68026828765869,1.55609035491943,0.71481651067734
491,2337013392,-0.11306370794773,0.63318800926208,112.28544616699219,0.69854778051376,-0.04271337389946,9.97510528564453,2.20041632652283,1.98372006416321,0.83361518383026
492,2337021725,-0.11818844825029,0.63027840852737,112.28681945800781,0.40878614783287,-0.01025836262852,9.91722106933594,0.69237834215164,1.46011376380920,0.63069927692413
493,2337030058,-0.11939609795809,0.63043260574341,112.28787231445312,0.93370622396469,-0.02994994446635,10.09598636627197,1.15722548961639,1.80872356891632,0.95702469348907
494,2337038391,-0.11975271999836,0.63163435459137,112.28992462158203,-1.15986263751984,0.09847538918257,9.90137863159180,1.26137304306030,1.96320319175720,0.84460383653641
495,2337046724,-0.12277937680483,0.63161784410477,112.28935241699219,0.19637516140938,-0.04410831630230,10.21960926055908,0.94232213497162,1.78792500495911,0.76140880584717
496,2337055057,-0.11593891680241,0.63700723648071,112.29193115234375,-1.96491873264313,0.06968121975660,9.76222419738770,2.12418866157532,2.46221971511841,0.81476324796677
497,2337063390,-0.11326901614666,0.63514274358749,112.29094696044922,-2.16550517082214,0.21415618062019,9.99657630920410,1.62660634517670,1.56582379341125,0.71138411760330
498,2337071723,-0.11427722871304,0.63364946842194,112.29157257080078,-0.77080464363098,0.07307487726212,10.15549945831299,1.18286550045013,1.61213457584381,0.67514008283615
499,2337080056,-0.12035709619522,0.63931804895401,112.29136657714844,-0.69686073064804,-0.18060423433781,9.92541217803955,0.57475787401199,2.46975040435791,0.81138211488724
500,2337088389,-0.12506373226643,0.63758629560471,112.29320526123047,-0.50839233398438,-0.02595500834286,10.02935314178467,0.73699843883514,1.57307279109955,0.88146269321442
501,2337096722,-0.12156333774328,0.63348770141602,112.29448699951172,-0.25049722194672,-0.13033983111382,9.92888927459717,1.72224986553192,1.29777073860168,0.98440617322922
502,2337105055,-0.11706205457449,0.63173890113831,112.29742431640625,-0.05013765767217,-0.09904434531927,9.99122619628906,1.84271371364594,1.56876945495605,0.98094844818115
503,2337113388,-0.11480239778757,0.63131165504456,112.29708099365234,-0.08424996584654,-0.01538950949907,10.10698127746582,1.57435321807861,1.73892450332642,0.78881591558456
504,2337121721,-0.12094467133284,0.63197320699692,112.29779052734375,0.02277749963105,-0.06645207107067,9.91512107849121,0.56814932823181,1.85762107372284,0.73115831613541
505,2337130054,-0.12650637328625,0.63351720571518,112.29763793945312,-0.18610994517803,-0.04582746699452,9.99747943878174,0.63710284233093,1.97631740570068,0.81391787528992
506,2337138387,-0.12088990956545,0.63238096237183,112.30064392089844,-0.09343878179789,0.01238329522312,9.96328544616699,1.97741901874542,1.64294838905334,0.96873044967651
507,2337146720,-0.11671844869852,0.63045501708984,112.30186462402344,0.00425090454519,0.10576709359884,9.99873352050781,1.80321669578552,1.55824220180511,0.97605615854263
508,2337155053,-0.11593348532915,0.63029980659485,112.30319213867188,0.09672804921865,0.06404887139797,9.98973083496094,1.39623188972473,1.76138842105865,0.83200156688690
509,2337163386,-0.11786466836929,0.63178890943527,112.30249023437500,0.10915506631136,0.06574152410030,9.96020126342773,1.07436358928680,1.96799314022064,0.74609142541885
510,2337171719,-0.12286806106567,0.63328629732132,112.30200195312500,-0.06790826469660,0.06488074362278,9.98574829101562,0.70431458950043,1.96340811252594,0.61781531572342
511,2337180052,-0.12491594254971,0.63432550430298,112.29998016357422,-0.19298444688320,-0.02762594632804,10.01628398895264,1.06027555465698,1.91463863849640,0.58817970752716
512,2337188385,-0.12084360420704,0.63313776254654,112.30027008056641,-0.31299158930779,-0.09261887520552,9.98337936401367,1.79194641113281,1.64184689521790,0.69201982021332
513,2337196718,-0.11655137687922,0.63331961631775,112.29997253417969,-0.31131687760353,-0.07904084771872,10.02542972564697,1.82001960277557,1.81059336662292,0.79424619674683
514,2337205051,-0.11682674288750,0.63438725471497,112.30246734619141,-0.28191459178925,-0.09470994025469,10.05196952819824,1.26795578002930,1.90836298465729,0.92329078912735
515,2337213384,-0.12134113907814,0.63642829656601,112.30290222167969,-0.16205598413944,-0.09740176051855,10.01859760284424,0.76107579469681,2.03592181205750,0.88425469398499
516,2337221717,-0.12444212287664,0.63584911823273,112.30522918701172,-0.11875803023577,-0.12750034034252,9.99272918701172,0.93056517839432,1.71018552780151,0.92836230993271
517,2337230050,-0.12374624609947,0.63439816236496,112.30502319335938,-0.08705298602581,-0.12056747078896,9.93729877471924,1.38852202892303,1.61566913127899,0.80620807409286
518,2337238383,-0.11766384541988,0.63142955303192,112.30712127685547,-0.17182342708111,-0.00721771037206,10.01860904693604,2.03315544128418,1.42315256595612,0.91898757219315
519,2337246716,-0.11463357508183,0.63087141513824,112.30776977539062,-0.14956267178059,0.11228446662426,10.02266502380371,1.66807591915131,1.72230124473572,0.90881866216660
520,2337255049,-0.12053582072258,0.63073438405991,112.31007385253906,-0.09891752153635,0.11092308163643,10.00789928436279,0.59391725063324,1.76297652721405,0.94193786382675
521,2337263382,-0.12473022192717,0.63218384981155,112.31083679199219,0.00338402064517,0.06252484023571,9.95471572875977,0.79908734560013,1.96297252178192,0.92300891876221
522,2337271715,-0.12531115114689,0.63161569833755,112.31225585937500,0.10133814066648,0.05177297443151,9.95844650268555,1.23245441913605,1.71169674396515,0.84847152233124
523,2337280048,-0.12253339588642,0.63099980354309,112.31148529052734,0.08934111148119,0.01127276569605,9.97089385986328,1.63856816291809,1.71625614166260,0.73792046308517
524,2337288381,-0.11783122271299,0.63178431987762,112.31186676025391,0.00629651546478,0.02153741195798,9.99443054199219,1.86735451221466,1.87752342224121,0.71763408184052
525,2337296714,-0.11988983303308,0.63251012563705,112.31033325195312,-0.16501782834530,0.02219959720969,10.04238033294678,1.05917429924011,1.87675523757935,0.64537632465363
526,2337305047,-0.12610417604446,0.63591086864471,112.31141662597656,-0.22317643463612,-0.04695179313421,9.99950408935547,0.55780124664307,2.19155406951904,0.75777149200439
527,2337313380,-0.12903475761414,0.63740032911301,112.31126403808594,-0.27936771512032,-0.12407440692186,10.02836799621582,0.95182496309280,1.96932494640350,0.81279098987579
528,2337321713,-0.12695550918579,0.63648867607117,112.31379699707031,-0.19655424356461,-0.13456420600414,9.98367309570312,1.55037844181061,1.67196917533875,0.94519096612930
529,2337330046,-0.12246266752481,0.63383024930954,112.31484985351562,-0.16755391657352,-0.07613175362349,9.99498367309570,1.84279060363770,1.47053897380829,0.95600014925003
530,2337338379,-0.12056670337915,0.63386011123657,112.31710052490234,-0.14483065903187,-0.02367594838142,10.03395080566406,1.53073227405548,1.78410840034485,0.90187728404999
531,2337346712,-0.12362718582153,0.63535112142563,112.31675720214844,-0.19939087331295,0.01207414269447,10.05853366851807,0.93699425458908,1.96899175643921,0.79173594713211
532,2337355045,-0.12692943215370,0.63627642393112,112.31836700439453,-0.21878267824650,0.01384181808680,9.99296092987061,0.90723055601120,1.89112448692322,0.82818502187729
533,2337363378,-0.12771654129028,0.63605481386185,112.31824493408203,-0.19686979055405,-0.00533274840564,9.96876144409180,1.20840275287628,1.76395010948181,0.81796503067017
534,2337371711,-0.12317761033773,0.63454657793045,112.32116699218750,-0.08559352159500,-0.01405266951770,10.00042629241943,1.84665846824646,1.59804654121399,1.00630652904510
535,2337380044,-0.12034485489130,0.63224405050278,112.32239532470703,0.06050004065037,0.06678750365973,9.96606254577637,1.64174449443817,1.51280248165131,0.97813081741333
536,2337388377,-0.12340603023767,0.63390076160431,112.32384490966797,0.09607645869255,0.03761806711555,9.99703216552734,0.93481707572937,1.97900724411011,0.85333818197250
537,2337396710,-0.12771946191788,0.63676983118057,112.32366180419922,0.08824426680803,-0.01632070913911,9.95771598815918,0.78669005632401,2.13471603393555,0.80853903293610
538,2337405043,-0.12933832406998,0.63728392124176,112.32364654541016,-0.03478077799082,-0.02081272378564,9.97701168060303,1.11071002483368,1.84501898288727,0.63236427307129
539,2337413376,-0.12698411941528,0.63718748092651,112.32291412353516,-0.17184156179428,-0.01497342810035,9.97449970245361,1.58649444580078,1.77906227111816,0.74196755886078
540,2337421709,-0.12261465191841,0.63765513896942,112.32452392578125,-0.20006740093231,-0.01138278376311,10.02464008331299,1.82685852050781,1.83876907825470,0.83994191884995
541,2337430042,-0.12179914861917,0.63761484622955,112.32406616210938,-0.20362864434719,0.00391588453203,10.02127265930176,1.40168774127960,1.78528654575348,0.77460008859634
542,2337438375,-0.12654311954975,0.63980495929718,112.32516479492188,-0.19044284522533,-0.03938520699739,10.04511737823486,0.73438560962677,2.04504036903381,0.78597277402878
543,2337446708,-0.12944716215134,0.64211297035217,112.32550048828125,-0.16988058388233,-0.08247537910938,10.00670814514160,0.95461702346802,2.06694054603577,0.87142193317413
544,2337455041,-0.12907548248768,0.64225548505783,112.32747650146484,-0.21159620583057,-0.08229041844606,10.01810264587402,1.34671974182129,1.79809379577637,0.85915273427963
545,2337463374,-0.12506753206253,0.64083701372147,112.32686614990234,-0.22749350965023,-0.08260472118855,9.98295116424561,1.78618299961090,1.62007462978363,0.75674694776535
546,2337471707,-0.12177361547947,0.64045512676239,112.32802581787109,-0.21767568588257,-0.04391092434525,10.04019832611084,1.69737863540649,1.73518526554108,0.85469579696655
547,2337480040,-0.12413177639246,0.63997912406921,112.32901763916016,-0.16169378161430,-0.00423810724169,10.03319168090820,1.02024054527283,1.73154783248901,0.94936597347260
548,2337488373,-0.12948188185692,0.63966155052185,112.33197021484375,-0.03819639980793,-0.02186722867191,9.97501373291016,0.65959221124649,1.74138391017914,1.00026154518127
549,2337496706,-0.13070702552795,0.63793802261353,112.33310699462891,0.04449478536844,-0.02050968445837,9.96475410461426,1.15563738346100,1.58301091194153,0.96703976392746
550,2337505039,-0.12726539373398,0.63701975345612,112.33471679687500,0.05626780912280,0.01158073265105,9.90940284729004,1.71479618549347,1.67063713073730,0.85963928699493
551,2337513372,-0.12233809381723,0.63690763711929,112.33461761474609,0.02754056081176,0.06133690848947,9.99342632293701,1.89593994617462,1.77596282958984,0.81786257028580
552,2337521705,-0.12113445997238,0.63749867677689,112.33617401123047,-0.07774829864502,0.07749810069799,10.01448631286621,1.44689702987671,1.85482919216156,0.87001317739487
553,2337530038,-0.12617710232735,0.63915759325027,112.33538055419922,-0.15971747040749,0.06555408239365,10.00282764434814,0.69880759716034,1.98825383186340,0.73436009883881
554,2337538371,-0.12981411814690,0.64098155498505,112.33656311035156,-0.20003370940685,-0.01465304009616,10.01021003723145,0.86629897356033,2.00262331962585,0.77055299282074
555,2337546704,-0.12956413626671,0.64334517717361,112.33669281005859,-0.18033924698830,-0.07721041142941,9.99633312225342,1.33401489257812,2.07329273223877,0.84877884387970
556,2337555037,-0.12585279345512,0.64349853992462,112.33885955810547,-0.15858444571495,-0.07475396990776,9.98119735717773,1.74571228027344,1.80109035968781,0.94775217771530
557,2337563370,-0.12446608394384,0.64348119497299,112.33857727050781,-0.15176232159138,-0.06477339565754,10.04315185546875,1.47148656845093,1.78761744499207,0.79662835597992
558,2337571703,-0.12694299221039,0.64520704746246,112.33927917480469,-0.19543489813805,-0.08206024765968,10.05985736846924,1.00517940521240,1.98973929882050,0.73674219846725
559,2337580036,-0.13109701871872,0.64540183544159,112.33956146240234,-0.24824458360672,-0.09935614466667,10.03796005249023,0.80523467063904,1.81238639354706,0.86491584777832
560,2337588369,-0.13171738386154,0.64376956224442,112.34164428710938,-0.24120655655861,-0.10320559144020,10.01012420654297,1.22802317142487,1.58618688583374,0.87856823205948
561,2337596702,-0.12827581167221,0.64177650213242,112.34300231933594,-0.16256916522980,-0.04419031739235,10.01532840728760,1.71579492092133,1.54925143718719,0.99237227439880
562,2337605035,-0.12468536943197,0.63883030414581,112.34624481201172,-0.05142573267221,0.01268397830427,9.99954700469971,1.73116362094879,1.42684102058411,1.08414816856384
563,2337613368,-0.12484901398420,0.63830620050430,112.34654235839844,0.03769656270742,0.07652369141579,9.98352813720703,1.28496384620667,1.72529816627502,0.86532574892044
564,2337621701,-0.12789675593376,0.63820940256119,112.34826660156250,0.02719663083553,0.08742215484381,9.97761344909668,0.93540626764297,1.77009725570679,0.89134973287582
565,2337630034,-0.13008488714695,0.63942670822144,112.34729766845703,-0.04134111478925,0.04029078036547,9.97721195220947,1.04326772689819,1.93635928630829,0.71412479877472
566,2337638367,-0.12940669059753,0.63974899053574,112.34799957275391,-0.07558936625719,0.02663983032107,9.98363208770752,1.38450062274933,1.82089018821716,0.74580967426300
567,2337646700,-0.12538383901119,0.64039361476898,112.34815216064453,-0.10202328860760,0.00296001718380,9.98489379882812,1.78692591190338,1.86694490909576,0.84916317462921
568,2337655033,-0.12409999966621,0.64047241210938,112.34921264648438,-0.09541469812393,-0.00108964648098,10.01682281494141,1.45555460453033,1.79327833652496,0.79708945751190
569,2337663366,-0.12822712957859,0.64148193597794,112.34947204589844,-0.08431123942137,-0.04354190081358,9.99228858947754,0.80897438526154,1.90995121002197,0.86255943775177
570,2337671699,-0.13201726973057,0.64229297637939,112.35031890869141,-0.13083189725876,-0.09386594593525,10.01411724090576,0.84783113002777,1.88100683689117,0.74847352504730
571,2337680032,-0.13141372799873,0.64298760890961,112.35013580322266,-0.18276782333851,-0.12284794449806,9.98608016967773,1.37673962116241,1.87416803836823,0.81002461910248
572,2337688365,-0.12766797840595,0.64234167337418,112.35223388671875,-0.23848120868206,-0.09560611844063,9.99204254150391,1.75152695178986,1.70434558391571,0.89534550905228
573,2337696698,-0.12423024326563,0.64076644182205,112.35217285156250,-0.27621197700500,-0.02268602326512,10.01963996887207,1.71717822551727,1.60106897354126,0.82262670993805
574,2337705031,-0.12622456252575,0.63918721675873,112.35494232177734,-0.24362616240978,0.01146228238940,10.03229904174805,1.06176126003265,1.59207832813263,0.98942667245865
575,2337713364,-0.12880049645901,0.63861876726151,112.35604095458984,-0.17639152705669,-0.00369987916201,9.99607276916504,0.99255156517029,1.71991896629333,0.96235245466232
576,2337721697,-0.12945167720318,0.63851934671402,112.35801696777344,-0.05861208587885,-0.00524224247783,9.98633384704590,1.22451412677765,1.76989233493805,0.88164192438126
577,2337730030,-0.12758931517601,0.63685810565948,112.35839080810547,-0.02174835652113,0.00551063008606,9.97625350952148,1.52676224708557,1.58923518657684,0.87505918741226
578,2337738363,-0.12428643554449,0.63571172952652,112.36013031005859,-0.00270161009394,0.01692871749401,9.97460937500000,1.69827508926392,1.64422905445099,0.87682658433914
579,2337746696,-0.12271850556135,0.63614469766617,112.35982513427734,-0.00256235268898,0.04678528755903,9.99228763580322,1.49407827854156,1.84135603904724,0.79434853792191
580,2337755029,-0.12566687166691,0.63665658235550,112.36061859130859,-0.04328049346805,0.01055263262242,10.00415992736816,0.94790595769882,1.84471154212952,0.74260789155960
581,2337763362,-0.12902727723122,0.63688844442368,112.36036682128906,-0.07194148749113,-0.00846048071980,9.98400592803955,0.90133929252625,1.81663823127747,0.79990690946579
582,2337771695,-0.12918001413345,0.63768750429153,112.36197662353516,-0.08501471579075,-0.04180796816945,9.97901725769043,1.28378546237946,1.87990546226501,0.84875333309174
583,2337780028,-0.12674243748188,0.63740545511246,112.36155700683594,-0.09751149266958,-0.07062558829784,9.99419879913330,1.59779059886932,1.75613772869110,0.77928751707077
584,2337788361,-0.12419934570789,0.63718169927597,112.36277770996094,-0.12786909937859,-0.02164459601045,10.01243019104004,1.60737013816833,1.75559985637665,0.80479931831360
585,2337796694,-0.12530860304832,0.63829183578491,112.36164855957031,-0.20298437774181,-0.02251930907369,10.03353118896484,1.17190241813660,1.92327034473419,0.69596439599991
586,2337805027,-0.12902718782425,0.63839572668076,112.36250305175781,-0.26684126257896,-0.02510876581073,10.01728725433350,0.85636079311371,1.79530179500580,0.79747366905212
587,2337813360,-0.12989753484726,0.63885319232941,112.36270904541016,-0.27665340900421,-0.07387619465590,10.00902175903320,1.19966816902161,1.84563362598419,0.85577154159546
588,2337821693,-0.12852546572685,0.63797545433044,112.36505889892578,-0.24326540529728,-0.05802200734615,10.01088237762451,1.46539044380188,1.67483806610107,1.00625526905060
589,2337830026,-0.12551331520081,0.63569945096970,112.36627197265625,-0.13007874786854,-0.04513171687722,9.98986053466797,1.66484856605530,1.51756668090820,0.97454482316971
590,2337838359,-0.12610903382301,0.63440448045731,112.36764526367188,-0.04901921376586,-0.01699611544609,10.03495502471924,1.23066151142120,1.62481343746185,0.84416830539703
591,2337846692,-0.12959967553616,0.63573366403580,112.36769104003906,-0.01924041472375,-0.02200038731098,10.01639842987061,0.88538163900375,1.95001161098480,0.83686822652817
592,2337855025,-0.13169722259045,0.63634371757507,112.36827850341797,-0.01594607718289,-0.00865003746003,9.95993232727051,1.05205345153809,1.85493171215057,0.74811494350433
593,2337863358,-0.13136556744576,0.63615518808365,112.36862945556641,-0.04754736274481,-0.00108693540096,9.95849132537842,1.34239101409912,1.76743352413177,0.87298440933228
594,2337871691,-0.12816049158573,0.63628721237183,112.36975097656250,-0.02233007550240,-0.00572459306568,9.96910858154297,1.68836247920990,1.79837560653687,0.82575172185898
595,2337880024,-0.12656690180302,0.63655883073807,112.37005615234375,-0.04755158722401,0.07019226998091,9.99969768524170,1.49469292163849,1.82106935977936,0.86868113279343
596,2337888357,-0.12783120572567,0.63720744848251,112.37039184570312,-0.06717408448458,0.03060623258352,9.99465465545654,1.15182089805603,1.86266708374023,0.74217236042023
597,2337896690,-0.13042590022087,0.63784271478653,112.36988830566406,-0.08134838938713,0.00439191143960,9.98504924774170,0.99311506748199,1.86520278453827,0.77078354358673
598,2337905023,-0.13102357089520,0.64003175497055,112.37106323242188,-0.14747972786427,-0.05409215390682,9.96378898620605,1.23104584217072,2.04639816284180,0.80551654100418
599,2337913356,-0.12918080389500,0.63987272977829,112.37050628662109,-0.21203480660915,-0.05482469499111,10.01052856445312,1.52607059478760,1.77109646797180,0.76217716932297
600,2337921689,-0.12619611620903,0.63865840435028,112.37222290039062,-0.23720674216747,-0.05798064544797,10.04495429992676,1.65911090373993,1.63741552829742,0.87267708778381
601,2337930022,-0.12700046598911,0.63658601045609,112.37238311767578,-0.24998691678047,-0.04253533110023,10.05482864379883,1.20735251903534,1.54072165489197,0.85072559118271
602,2337938355,-0.13033519685268,0.63757377862930,112.37406158447266,-0.18702696263790,-0.10104145109653,10.02933216094971,0.90218466520309,1.90042269229889,0.83387148380280
603,2337946688,-0.13177980482578,0.63792634010315,112.37431335449219,-0.14024475216866,-0.08531416952610,9.99418449401855,1.13161122798920,1.83257031440735,0.86094564199448
604,2337955021,-0.13058961927891,0.63686454296112,112.37613677978516,-0.06477069854736,-0.05022090673447,9.98546123504639,1.44446349143982,1.65439772605896,0.88625246286392
605,2337963354,-0.12687858939171,0.63590216636658,112.37694549560547,-0.04606246948242,-0.00387420319021,10.00009346008301,1.74840199947357,1.67368531227112,0.92913073301315
606,2337971687,-0.12482433766127,0.63447409868240,112.37796020507812,-0.05020985752344,0.04118100181222,10.01514816284180,1.55025053024292,1.61052060127258,0.82139730453491
607,2337980020,-0.12736053764820,0.63489079475403,112.37789916992188,-0.07549508661032,0.05818649753928,10.00040340423584,0.99972361326218,1.84053647518158,0.82506006956100
608,2337988353,-0.12991192936897,0.63652485609055,112.37997436523438,-0.05383231490850,0.04641328379512,9.98339080810547,0.99470329284668,1.97767508029938,0.91068857908249
609,2337996686,-0.13119867444038,0.63725978136063,112.37983703613281,-0.04446961358190,0.03524427860975,9.96073436737061,1.15030968189240,1.87893211841583,0.81514745950699
610,2338005019,-0.12917338311672,0.63691633939743,112.38079833984375,-0.05004188790917,0.00407696655020,9.97740173339844,1.54510188102722,1.74158871173859,0.80377471446991
611,2338013352,-0.12714967131615,0.63599038124084,112.38036346435547,-0.06369191408157,-0.02165978029370,9.99964809417725,1.54815006256104,1.67898738384247,0.77800679206848
612,2338021685,-0.12708677351475,0.63631063699722,112.38114929199219,-0.12742651998997,-0.01365282293409,10.02285480499268,1.30983507633209,1.82173550128937,0.75380128622055
613,2338030018,-0.13059684634209,0.63765585422516,112.38096618652344,-0.20598956942558,-0.05726151913404,10.02393054962158,0.88325566053391,1.95142054557800,0.80907678604126
614,2338038351,-0.13193115592003,0.63903039693832,112.38225555419922,-0.22935560345650,-0.11124070733786,9.99201965332031,1.14262533187866,1.94906389713287,0.82193517684937
615,2338046684,-0.13058990240097,0.63837134838104,112.38245391845703,-0.23177203536034,-0.11340547353029,9.98879337310791,1.46418654918671,1.71136403083801,0.85369682312012
616,2338055017,-0.12703655660152,0.63633251190186,112.38459777832031,-0.17629797756672,-0.04539853706956,10.02523326873779,1.72803878784180,1.53644430637360,0.93489402532578
617,2338063350,-0.12573637068272,0.63541018962860,112.38486480712891,-0.13117207586765,-0.00922385137528,10.03228473663330,1.46060061454773,1.67919254302979,0.86353278160095
618,2338071683,-0.12831580638885,0.63485252857208,112.38641357421875,-0.12110207229853,0.01815572567284,9.98813152313232,0.99298697710037,1.71607685089111,0.85300523042679
619,2338080016,-0.12984184920788,0.63520878553391,112.38700103759766,-0.10724881291389,0.00753161683679,9.97538948059082,1.12034106254578,1.83292913436890,0.90267121791840
620,2338088349,-0.12918509542942,0.63424587249756,112.38829040527344,-0.11262374371290,-0.00647276407108,9.96382522583008,1.38094019889832,1.66630828380585,0.84475743770599
621,2338096682,-0.12694835662842,0.63312131166458,112.38838958740234,-0.07464270293713,0.03952164202929,9.97404861450195,1.57176637649536,1.65411603450775,0.84460377693176
622,2338105015,-0.12597666680813,0.63262194395065,112.39010620117188,-0.01930814050138,0.06031465157866,9.96973800659180,1.41813218593597,1.72222423553467,0.92034518718719
623,2338113348,-0.12689790129662,0.63232779502869,112.39023590087891,-0.01398613583297,0.02578603290021,9.99620246887207,1.19290614128113,1.75449812412262,0.84719079732895
624,2338121681,-0.12957309186459,0.63315707445145,112.39166259765625,-0.00297596212476,-0.03107974864542,10.01328659057617,0.98194730281830,1.88285112380981,0.84532094001770
625,2338130014,-0.13080866634846,0.63391709327698,112.39122772216797,-0.05365744978189,-0.05905493721366,9.97750473022461,1.15548372268677,1.88228762149811,0.78049135208130
626,2338138347,-0.12885533273220,0.63390904664993,112.39154052734375,-0.11987366527319,-0.08275838941336,10.01346683502197,1.53854477405548,1.78374981880188,0.72892993688583
627,2338146680,-0.12632054090500,0.63395875692368,112.39120483398438,-0.19312542676926,-0.04767969623208,10.03707408905029,1.60816419124603,1.79466152191162,0.79009670019150
628,2338155013,-0.12628778815269,0.63416081666946,112.39281463623047,-0.20730076730251,-0.01258429046720,10.04034137725830,1.30688953399658,1.80823707580566,0.85013639926910
629,2338163346,-0.12808120250702,0.63465601205826,112.39302825927734,-0.21994511783123,-0.03463263064623,10.03425979614258,1.08840000629425,1.84857916831970,0.85935753583908
630,2338171679,-0.13059715926647,0.63492602109909,112.39479827880859,-0.20295247435570,-0.05435026437044,10.00836181640625,1.00074815750122,1.81617724895477,0.86724674701691
631,2338180012,-0.13032375276089,0.63491135835648,112.39489746093750,-0.17637275159359,-0.04127736017108,10.01720333099365,1.33667886257172,1.78843724727631,0.84073597192764
632,2338188345,-0.12795269489288,0.63238805532455,112.39637756347656,-0.14688670635223,-0.04608763009310,9.98024940490723,1.58654558658600,1.47901701927185,0.84560275077820
633,2338196678,-0.12676131725311,0.63053268194199,112.39604949951172,-0.12514914572239,0.00447998568416,10.00037384033203,1.44779324531555,1.56682264804840,0.79081392288208
634,2338205011,-0.12883934378624,0.63001400232315,112.39772033691406,-0.09864038228989,-0.00283836829476,10.02310180664062,1.05236101150513,1.72012400627136,0.91681033372879
635,2338213344,-0.13200983405113,0.62887120246887,112.39881134033203,-0.05732832476497,-0.01774821616709,9.97814369201660,0.92221492528915,1.65214371681213,0.96283906698227
636,2338221677,-0.13274604082108,0.62895357608795,112.40027618408203,-0.02012314274907,-0.02083318494260,9.98519706726074,1.21383297443390,1.79376482963562,0.87470048666000
637,2338230010,-0.12951569259167,0.62833768129349,112.40027618408203,0.00165065517649,-0.00168734579347,9.99254417419434,1.69102632999420,1.71489870548248,0.83207845687866
638,2338238343,-0.12671494483948,0.62750440835953,112.40163421630859,-0.01141448412091,-0.00901443790644,9.99580574035645,1.63897800445557,1.68282961845398,0.86763095855713
639,2338246676,-0.12655241787434,0.62890934944153,112.40124511718750,-0.05170435085893,0.02147597260773,9.98779201507568,1.32361555099487,1.95900225639343,0.78466641902924
640,2338255009,-0.12926591932774,0.63028365373611,112.40095520019531,-0.14488789439201,0.02762458473444,10.00413513183594,0.97764414548874,1.94906389713287,0.69683527946472
641,2338263342,-0.13123556971550,0.63039004802704,112.40065765380859,-0.21882487833500,-0.00338391866535,10.00405788421631,1.06929194927216,1.80303740501404,0.79432302713394
642,2338271675,-0.12998741865158,0.63024598360062,112.40160369873047,-0.20850214362144,-0.05496945977211,9.98499870300293,1.45155870914459,1.76707470417023,0.80244272947311
643,2338280008,-0.12806406617165,0.62987709045410,112.40137481689453,-0.21035271883011,-0.06948027759790,10.01720333099365,1.53500986099243,1.74561023712158,0.80093157291412
644,2338288341,-0.12678185105324,0.62939035892487,112.40305328369141,-0.16517730057240,-0.05957470461726,10.02409553527832,1.45714259147644,1.72509300708771,0.87313801050186
645,2338296674,-0.12880171835423,0.63000488281250,112.40299224853516,-0.16228030622005,-0.06466871500015,10.03153610229492,1.06096720695496,1.86315393447876,0.82441985607147
646,2338305007,-0.13031926751137,0.62983173131943,112.40336608886719,-0.14349067211151,-0.07219968736172,10.00074577331543,1.12233889102936,1.76164460182190,0.71550804376602
647,2338313340,-0.12977744638920,0.62927579879761,112.40390777587891,-0.14551988244057,-0.06815969944000,9.98924160003662,1.36767196655273,1.72360765933990,0.89708727598190
648,2338321673,-0.12707403302193,0.62876659631729,112.40531158447266,-0.09306072443724,-0.03301550447941,9.99775123596191,1.62768232822418,1.72125113010406,0.86504399776459
649,2338330006,-0.12408605217934,0.62749624252319,112.40668487548828,-0.04648517072201,0.02905181050301,10.00739955902100,1.66126239299774,1.63718509674072,0.99352484941483
650,2338338339,-0.12423150986433,0.62793314456940,112.40784454345703,-0.02681274153292,0.06609669327736,9.98966503143311,1.28409290313721,1.83572113513947,0.86647826433182
651,2338346672,-0.12674321234226,0.62919449806213,112.40791320800781,-0.02470803447068,0.04064211249352,9.98283863067627,1.00359129905701,1.94091868400574,0.83925038576126
652,2338355005,-0.12793004512787,0.63010185956955,112.40846252441406,-0.02655849978328,0.04019618034363,9.96639251708984,1.16022241115570,1.89181602001190,0.76005119085312
653,2338363338,-0.12576785683632,0.63006556034088,112.40835571289062,-0.11091541498899,0.00117384199984,10.01235103607178,1.56336486339569,1.78538894653320,0.81950181722641
654,2338371671,-0.12390642613173,0.62919753789902,112.40891265869141,-0.13401502370834,-0.01005208212882,10.00692844390869,1.52701830863953,1.68070363998413,0.80971717834473
655,2338380004,-0.12444927543402,0.62884050607681,112.40908050537109,-0.15677186846733,-0.02374445833266,10.02996158599854,1.23755180835724,1.74765944480896,0.84993159770966
656,2338388337,-0.12709882855415,0.63024538755417,112.40902709960938,-0.17035804688931,-0.05299091339111,10.02659702301025,0.98604547977448,1.95162534713745,0.70490372180939
657,2338396670,-0.12900142371655,0.63132059574127,112.40915679931641,-0.15781725943089,-0.07975868135691,10.00296974182129,1.07643818855286,1.91896724700928,0.84675538539886
658,2338405003,-0.12904392182827,0.63085514307022,112.41012573242188,-0.17108358442783,-0.10006195306778,10.01160717010498,1.29695117473602,1.72832047939301,0.84155565500259
659,2338413336,-0.12697282433510,0.62913948297501,112.41020202636719,-0.16449551284313,-0.06495656818151,10.01615715026855,1.55204331874847,1.58431732654572,0.83978825807571
660,2338421669,-0.12552320957184,0.62794953584671,112.41121673583984,-0.17148610949516,-0.01827530749142,10.02808761596680,1.47768533229828,1.63992571830750,0.81002455949783
661,2338430002,-0.12665458023548,0.62699276208878,112.41156768798828,-0.16999498009682,0.00127212307416,10.02263259887695,1.16844463348389,1.67450499534607,0.87172931432724
662,2338438335,-0.12945878505707,0.62676638364792,112.41310882568359,-0.13626818358898,0.03244464844465,10.01914978027344,0.96447831392288,1.75616312026978,0.88346052169800
663,2338446668,-0.13003882765770,0.62710118293762,112.41352844238281,-0.05680834129453,-0.00230745947920,9.96493530273438,1.23516976833344,1.82911276817322,0.87933677434921
664,2338455001,-0.12867026031017,0.62683051824570,112.41461181640625,-0.03755668550730,0.00763499131426,9.97130870819092,1.46608209609985,1.75032329559326,0.82531630992889
665,2338463334,-0.12660816311836,0.62568944692612,112.41418457031250,-0.02036582492292,0.03960976749659,9.98749351501465,1.55196642875671,1.65319383144379,0.77959483861923
666,2338471667,-0.12630602717400,0.62588250637054,112.41481018066406,-0.03308967500925,0.04007335752249,10.01219844818115,1.33962452411652,1.80769896507263,0.78914898633957
667,2338480000,-0.12799456715584,0.62645357847214,112.41450500488281,-0.06212315708399,-0.01630308851600,10.00059700012207,1.10189890861511,1.85739076137543,0.79488658905029
668,2338488333,-0.12935827672482,0.62575691938400,112.41526794433594,-0.10398543626070,-0.03410482779145,9.99276161193848,1.13852715492249,1.70119488239288,0.77506119012833
669,2338496666,-0.12880626320839,0.62653726339340,112.41438293457031,-0.13749228417873,-0.08291485905647,10.01113128662109,1.37156546115875,1.88320994377136,0.72449868917465
670,2338504999,-0.12674689292908,0.62640124559402,112.41533660888672,-0.15339389443398,-0.06965726613998,10.01668071746826,1.54991745948792,1.76820194721222,0.82021909952164
671,2338513332,-0.12540931999683,0.62740111351013,112.41575622558594,-0.15898117423058,-0.04635569080710,10.02073955535889,1.46451961994171,1.90936195850372,0.88120645284653
672,2338521665,-0.12700606882572,0.62634187936783,112.41659545898438,-0.17527210712433,-0.04917446523905,10.06035137176514,1.11101722717285,1.65660059452057,0.80518335103989
673,2338529998,-0.12917539477348,0.62655085325241,112.41651153564453,-0.20860145986080,-0.05040406808257,10.01407051086426,1.04360079765320,1.81551122665405,0.82037270069122
674,2338538331,-0.12912648916245,0.62675702571869,112.41790008544922,-0.22083008289337,-0.02483097277582,10.00527667999268,1.30827271938324,1.80803203582764,0.84760057926178
675,2338546664,-0.12729366123676,0.62579381465912,112.41835021972656,-0.15377224981785,-0.03322137147188,10.01877975463867,1.52420079708099,1.67427456378937,0.88205188512802
676,2338554997,-0.12472828477621,0.62546855211258,112.41996765136719,-0.12409462779760,-0.00914066191763,9.99503421783447,1.60895836353302,1.74304878711700,0.92641568183899
677,2338563330,-0.12417406588793,0.62504953145981,112.42071533203125,-0.01970149949193,-0.01788478530943,9.98709297180176,1.37020802497864,1.73925793170929,0.91860336065292
678,2338571663,-0.12585398554802,0.62575691938400,112.42171478271484,-0.04174152016640,0.00970591232181,10.00076961517334,1.10182201862335,1.86922430992126,0.84173506498337
679,2338579996,-0.12751111388206,0.62452483177185,112.42182159423828,-0.00597660709172,-0.02887052483857,9.98870372772217,1.10397362709045,1.64138579368591,0.84188872575760
680,2338588329,-0.12606616318226,0.62466436624527,112.42203521728516,-0.04930655285716,-0.01787727139890,9.97269630432129,1.47781348228455,1.80085980892181,0.74112230539322
681,2338596662,-0.12329515814781,0.62385725975037,112.42205810546875,-0.08286343514919,0.00771220773458,10.01839065551758,1.63674974441528,1.69302403926849,0.83338475227356
682,2338604995,-0.12238937616348,0.62486803531647,112.42293548583984,-0.09887892752886,0.04007478058338,10.01180362701416,1.41162621974945,1.90567362308502,0.81086993217468
683,2338613328,-0.12393614649773,0.62559968233109,112.42296600341797,-0.13481329381466,-0.02318120189011,9.98318290710449,1.11780524253845,1.87662720680237,0.83430683612823
684,2338621661,-0.12577813863754,0.62624990940094,112.42289733886719,-0.16820909082890,-0.00109169085044,9.97488689422607,1.08309793472290,1.86225724220276,0.71822315454483
685,2338629994,-0.12626762688160,0.62629175186157,112.42250061035156,-0.16687905788422,-0.05185136571527,10.00354290008545,1.24626052379608,1.79522478580475,0.78192573785782
686,2338638327,-0.12534378468990,0.62514775991440,112.42288970947266,-0.18019242584705,-0.04453616961837,9.99333286285400,1.41380333900452,1.64640617370605,0.75892418622971
687,2338646660,-0.12293358892202,0.62388050556183,112.42317199707031,-0.18981158733368,-0.05216253176332,9.99900817871094,1.59364104270935,1.63769745826721,0.86655521392822
688,2338654993,-0.12344525009394,0.62373358011246,112.42459869384766,-0.21518300473690,-0.03510049730539,10.02662277221680,1.24039494991302,1.76635754108429,0.88891637325287
689,2338663326,-0.12498041987419,0.62395912408829,112.42411041259766,-0.16957761347294,-0.04709194600582,10.01268005371094,1.12116074562073,1.81643354892731,0.77080923318863
690,2338671659,-0.12652231752872,0.62426304817200,112.42575836181641,-0.12133137136698,-0.06582875549793,9.99264526367188,1.11585831642151,1.81932783126831,0.88571459054947
691,2338679992,-0.12603400647640,0.62347859144211,112.42607116699219,-0.06548025459051,-0.02546346560121,10.00506877899170,1.36331760883331,1.69538068771362,0.86686265468597
