sep=,
DeviceTag:,left leg
FirmwareVersion:,2.2.1
AppVersion:,2023.6.0
StartTime: ,2025-04-02_17:13:55_000 PDT
© Movella Technologies B. V. 2005-2025

PacketCounter,SampleTimeFine,Euler_X,Euler_Y,Euler_Z,Acc_X,Acc_Y,Acc_Z,Gyr_X,Gyr_Y,Gyr_Z
0,2289541568,-0.13322354853153,0.64917641878128,117.11530303955078,0.00000000000000,0.00000000000000,0.00000000000000,0.00000000000000,0.00000000000000,0.00000000000000
1,2289549901,-0.12162557989359,0.66551381349564,117.12299346923828,-0.10483874380589,-0.03604050725698,9.98503780364990,1.38026142120361,1.95896375179291,0.92937403917313
2,2289558234,-0.11274169385433,0.69906175136566,117.12871551513672,-0.11136458069086,-0.03020289354026,9.97768306732178,1.43602359294891,1.74249792098999,0.81152296066284
3,2289566567,-0.10220272094011,0.71460503339767,117.13590240478516,-0.10115633904934,-0.02641718834639,9.97949886322021,1.25408577919006,1.86229586601257,0.86533856391907
4,2289574900,-0.10011270642281,0.72544938325882,117.16278839111328,-0.12772512435913,-0.02268412336707,10.00139236450195,1.27711296081543,1.89825809001923,0.79648751020432
5,2289583233,-0.08896284550428,0.73991477489471,117.16963195800781,-0.10666051506996,-0.00240655662492,10.00871658325195,1.32616412639618,1.73435258865356,0.82458615303040
6,2289591566,-0.07871285080910,0.74786859750748,117.17730712890625,-0.10910334438086,-0.01336823124439,9.98308086395264,1.37216746807098,1.82118499279022,0.80652827024460
7,2289599899,-0.06742832064629,0.76322340965271,117.18476104736328,-0.11361647397280,-0.02418916858733,9.99772453308105,1.34253168106079,1.84095907211304,0.89661347866058
8,2289608232,-0.05854920297861,0.76637095212936,117.20561218261719,-0.13290485739708,-0.02570583671331,10.01596164703369,1.34916567802429,1.71788263320923,0.77545809745789
9,2289616565,-0.04784782975912,0.78097492456436,117.21202850341797,-0.12266010046005,-0.03660619631410,10.01784324645996,1.27380871772766,1.75235939025879,0.77200025320053
10,2289624898,-0.04351126030087,0.78811609745026,117.21391296386719,-0.13248805701733,-0.01268930546939,10.03421497344971,1.37375533580780,1.77361929416656,0.80821871757507
11,2289633231,-0.03284900635481,0.80283880233765,117.22035217285156,-0.11859628558159,-0.01995220966637,10.00863838195801,1.26889073848724,1.76547372341156,0.77361387014389
12,2289641564,-0.02788873203099,0.81097227334976,117.22173309326172,-0.11376725137234,-0.03098540566862,10.00502014160156,1.31128251552582,1.80335760116577,0.89822727441788
13,2289649897,-0.01635715737939,0.82494449615479,117.22885894775391,-0.13831081986427,-0.01976998522878,9.99937438964844,1.37027180194855,1.67697668075562,0.85432434082031
14,2289658230,-0.01217841543257,0.83213275671005,117.23188018798828,-0.12057457119226,-0.03071590512991,9.97934913635254,1.32268071174622,1.67377519607544,0.86567157506943
15,2289666563,-0.00030362966936,0.84816956520081,117.23873901367188,-0.12867696583271,-0.03603413328528,10.02326679229736,1.41325271129608,1.92438471317291,0.82120525836945
16,2289674896,0.00215641828254,0.85519748926163,117.23765563964844,-0.12966556847095,-0.02656526118517,10.01041221618652,1.30313682556152,1.68028104305267,0.81971949338913
17,2289683229,0.01305683702230,0.86869883537292,117.24451446533203,-0.12465416640043,-0.01741029508412,9.98840904235840,1.29650294780731,1.62129139900208,0.82310068607330
18,2289691562,0.01640638150275,0.87677323818207,117.25374603271484,-0.11426450312138,-0.03574445471168,10.00137233734131,1.34914016723633,1.81303977966309,0.84582054615021
19,2289699895,0.02739605493844,0.89211618900299,117.26091766357422,-0.13329829275608,-0.02649978920817,9.98656368255615,1.30651795864105,1.84103584289551,0.86036932468414
20,2289708228,0.03042327426374,0.90002959966660,117.25891113281250,-0.11777102947235,-0.03369281813502,10.00134944915771,1.36399662494659,1.82774221897125,0.83270603418350
21,2289716561,0.04205507412553,0.91464334726334,117.26535797119141,-0.12591928243637,-0.01326098479331,10.00850677490234,1.38371932506561,1.75381934642792,0.77228200435638
22,2289724894,0.04495183005929,0.92198771238327,117.26910400390625,-0.12120438367128,-0.03700723499060,9.99950313568115,1.30500686168671,1.81309103965759,0.81610798835754
23,2289733227,0.05571300163865,0.93587124347687,117.27572631835938,-0.12749575078487,-0.03501148149371,9.99396705627441,1.27859854698181,1.66711533069611,0.79512983560562
24,2289741560,0.05713992938399,0.94130873680115,117.28285980224609,-0.13186417520046,-0.03676898777485,9.99578285217285,1.19330322742462,1.59839248657227,0.77533018589020
25,2289749893,0.06872170418501,0.95609521865845,117.28964996337891,-0.10273590683937,-0.01882087439299,9.97942733764648,1.37705969810486,1.77520728111267,0.81323909759521
26,2289758226,0.07128804177046,0.96293812990189,117.28926849365234,-0.11836036294699,-0.01849864050746,10.00677108764648,1.30313706398010,1.82310616970062,0.88326853513718
27,2289766559,0.08281595259905,0.97813004255295,117.29660034179688,-0.11193834990263,-0.02752831764519,10.01603603363037,1.36873507499695,1.82459175586700,0.87860661745071
28,2289774892,0.08609602600336,0.98335450887680,117.30235290527344,-0.10344105958939,-0.01644470170140,9.99407672882080,1.34411990642548,1.67851364612579,0.80358260869980
29,2289783225,0.09739225357771,0.99781477451324,117.30900573730469,-0.12251210212708,-0.01434749457985,10.01039695739746,1.34268534183502,1.73750317096710,0.79684603214264
30,2289791558,0.10094544291496,1.00193524360657,117.31327056884766,-0.13778759539127,-0.02700006216764,9.99568176269531,1.31097483634949,1.59027254581451,0.85288995504379
31,2289799891,0.11192389577627,1.01673388481140,117.32041168212891,-0.11272553354502,-0.02340759336948,10.00690937042236,1.30316257476807,1.77879333496094,0.85552823543549
32,2289808224,0.11666467785835,1.02227783203125,117.32257080078125,-0.11015084385872,-0.02667241543531,10.04358196258545,1.44114661216736,1.74050021171570,0.77760976552963
33,2289816557,0.12800817191601,1.03658747673035,117.32956695556641,-0.10686615109444,-0.00650751963258,10.01418972015381,1.34737277030945,1.71962440013885,0.83626633882523
34,2289824890,0.13197323679924,1.04170310497284,117.33290100097656,-0.13317333161831,-0.00997628271580,10.01396656036377,1.30910503864288,1.73330235481262,0.96385079622269
35,2289833223,0.14272333681583,1.05584764480591,117.33960723876953,-0.11342489719391,-0.01941881701350,9.97029113769531,1.27537119388580,1.69997823238373,0.80319833755493
36,2289841556,0.14764130115509,1.06069171428680,117.33892059326172,-0.11788785457611,-0.03019152954221,9.98683834075928,1.38853478431702,1.67833423614502,0.78747111558914
37,2289849889,0.15890279412270,1.07641780376434,117.34555816650391,-0.11860731989145,-0.03191719204187,9.99418163299561,1.33822846412659,1.88998460769653,0.79290139675140
38,2289858222,0.16318257153034,1.08234965801239,117.34524536132812,-0.13230127096176,-0.01702566631138,9.99759197235107,1.32944285869598,1.80996596813202,0.86203432083130
39,2289866555,0.17404018342495,1.09730434417725,117.35192871093750,-0.12030684202909,-0.02067498676479,9.99227809906006,1.28879308700562,1.79828572273254,0.79464322328568
40,2289874888,0.17848555743694,1.10331797599792,117.35256958007812,-0.12863451242447,-0.01856993511319,10.01048851013184,1.33848452568054,1.79779911041260,0.70970636606216
41,2289883221,0.18918327987194,1.11771988868713,117.35976409912109,-0.09669567644596,-0.01663711108267,10.03101634979248,1.26694416999817,1.73307204246521,0.85875564813614
42,2289891554,0.19341547787189,1.12314999103546,117.35832977294922,-0.12278197705746,-0.02768086828291,10.00335884094238,1.29528605937958,1.74420130252838,0.78674119710922
43,2289899887,0.20390859246254,1.13794457912445,117.36502838134766,-0.10686646401882,-0.01871971040964,9.99251651763916,1.24449312686920,1.78044533729553,0.79939460754395
44,2289908220,0.20838123559952,1.14278960227966,117.36248779296875,-0.12219500541687,-0.03147280961275,9.98330211639404,1.31942772865295,1.68033242225647,0.82653295993805
45,2289916553,0.21957954764366,1.15694165229797,117.37002563476562,-0.10121259093285,-0.01652874238789,10.02190971374512,1.32721436023712,1.70361542701721,0.89861148595810
46,2289924886,0.22385576367378,1.16099154949188,117.36941528320312,-0.12727019190788,0.00015658163466,10.00861358642578,1.29588818550110,1.59542095661163,0.88088631629944
47,2289933219,0.23488922417164,1.17644393444061,117.37674713134766,-0.11848346889019,-0.02584283426404,9.98886871337891,1.30823433399200,1.86093819141388,0.87473893165588
48,2289941552,0.23951110243797,1.18146777153015,117.38160705566406,-0.11186410486698,-0.00561349419877,9.98328208923340,1.31772434711456,1.69845438003540,0.84614068269730
49,2289949885,0.25121778249741,1.19643557071686,117.38901519775391,-0.10920087248087,-0.00899360515177,10.01084899902344,1.38834273815155,1.80334460735321,0.88048928976059
50,2289958218,0.25569617748260,1.20286667346954,117.38916778564453,-0.10996576398611,-0.01815154589713,9.99815368652344,1.27752292156219,1.87876582145691,0.81869494915009
51,2289966551,0.26727262139320,1.21614146232605,117.39523315429688,-0.11485914885998,-0.01762624643743,10.02009868621826,1.37565076351166,1.59926295280457,0.72251349687576
52,2289974884,0.27210494875908,1.22193884849548,117.39510345458984,-0.10969833284616,-0.01779708266258,10.00737285614014,1.31696867942810,1.80627727508545,0.77179527282715
53,2289983217,0.28335237503052,1.23705160617828,117.40266418457031,-0.10655447840691,-0.01979029923677,9.99099540710449,1.33415591716766,1.82167148590088,0.89804792404175
54,2289991550,0.28808858990669,1.24185502529144,117.40263366699219,-0.13153029978275,-0.02104445919394,10.00899410247803,1.30300891399384,1.69523966312408,0.83788001537323
55,2289999883,0.29895132780075,1.25701415538788,117.40921783447266,-0.13016417622566,-0.01938021555543,9.99619579315186,1.28915154933929,1.82774198055267,0.78291189670563
56,2290008216,0.30318757891655,1.26265752315521,117.40499877929688,-0.12954981625080,-0.00802468042821,10.02541542053223,1.24258494377136,1.77582204341888,0.84351515769958
57,2290016549,0.31537038087845,1.27734959125519,117.41160583496094,-0.10225971043110,-0.03801548853517,9.98043918609619,1.44795989990234,1.77144229412079,0.78613924980164
58,2290024882,0.31965357065201,1.28294420242310,117.41290283203125,-0.11809372156858,-0.03928830847144,10.00040817260742,1.25395762920380,1.76931607723236,0.85345351696014
59,2290033215,0.33077943325043,1.29805409908295,117.42025756835938,-0.11639724671841,-0.01581243984401,9.97637176513672,1.31955575942993,1.82331109046936,0.87496942281723
60,2290041548,0.33458781242371,1.30394411087036,117.42082977294922,-0.10322141647339,-0.01727608777583,10.00961208343506,1.20480382442474,1.80235850811005,0.86595320701599
61,2290049881,0.34557262063026,1.31847107410431,117.42761993408203,-0.10928358882666,-0.02659828029573,9.99319076538086,1.30348265171051,1.75408828258514,0.80641293525696
62,2290058214,0.35011386871338,1.32468760013580,117.42734527587891,-0.11517408490181,-0.01576268300414,9.97834587097168,1.29747617244720,1.85233175754547,0.78608810901642
63,2290066547,0.36073568463326,1.33977341651917,117.43413543701172,-0.11412098258734,-0.01395082473755,9.97288131713867,1.25949025154114,1.82144093513489,0.80396682024002
64,2290074880,0.36528187990189,1.34669625759125,117.43090057373047,-0.12127173691988,-0.03543514758348,10.01154994964600,1.29111111164093,1.93612897396088,0.80682277679443
65,2290083213,0.37672352790833,1.36091995239258,117.43752288818359,-0.10204999148846,-0.03730545192957,10.00646686553955,1.35921931266785,1.71930420398712,0.78756088018417
66,2290091546,0.38144525885582,1.36622726917267,117.43842315673828,-0.10570152103901,-0.01927007548511,9.97690963745117,1.32762408256531,1.74769759178162,0.84935522079468
67,2290099879,0.39258572459221,1.38036906719208,117.44597625732422,-0.11209861189127,-0.00607945956290,9.99314594268799,1.32049059867859,1.71039044857025,0.89875227212906
68,2290108212,0.39774042367935,1.38557815551758,117.44676971435547,-0.12247109413147,-0.01837450452149,10.01697921752930,1.37198805809021,1.74088418483734,0.83998036384583
69,2290116545,0.40830618143082,1.39965903759003,117.45361328125000,-0.14126302301884,-0.02752328291535,9.99481582641602,1.25403463840485,1.70353889465332,0.81290620565414
70,2290124878,0.41248551011086,1.40579485893250,117.45291900634766,-0.11278643459082,-0.02406888268888,10.00635147094727,1.25762045383453,1.83814144134521,0.84310531616211
71,2290133211,0.42370969057083,1.42119014263153,117.46029663085938,-0.13512054085732,-0.02236033789814,9.98396015167236,1.33288800716400,1.86266708374023,0.87482857704163
72,2290141544,0.42795577645302,1.42767763137817,117.46179962158203,-0.12509605288506,-0.02234369888902,9.98604869842529,1.26763570308685,1.87587130069733,0.84456533193588
73,2290149877,0.43934127688408,1.44243419170380,117.46865844726562,-0.10247331857681,-0.02042636834085,10.00118064880371,1.35275173187256,1.78506898880005,0.81495535373688
74,2290158210,0.44416046142578,1.44798016548157,117.46764373779297,-0.11273888498545,-0.01072718761861,10.02102661132812,1.33967566490173,1.76538419723511,0.80513226985931
75,2290166543,0.45464211702347,1.46206080913544,117.47440338134766,-0.11523216962814,-0.00886316318065,10.01367378234863,1.24432671070099,1.70679175853729,0.80132848024368
76,2290174876,0.45901107788086,1.46778869628906,117.47256469726562,-0.12493176013231,-0.03473486378789,9.99745082855225,1.28057098388672,1.79042220115662,0.82238340377808
77,2290183209,0.46970075368881,1.48253989219666,117.47994995117188,-0.10542611032724,0.01476690173149,10.01361465454102,1.26686728000641,1.78760480880737,0.87635260820389
78,2290191542,0.47407576441765,1.48783278465271,117.47901153564453,-0.10935271531343,-0.01137565542012,9.97553443908691,1.27571690082550,1.74102509021759,0.79813951253891
79,2290199875,0.48480844497681,1.50190961360931,117.48606872558594,-0.09422984719276,-0.02394675835967,9.99994277954102,1.27512800693512,1.70859766006470,0.83773922920227
80,2290208208,0.48885425925255,1.50740468502045,117.48656463623047,-0.11308136582375,-0.02575110644102,9.99230194091797,1.23592543601990,1.77615523338318,0.85150688886642
81,2290216541,0.50047755241394,1.52259802818298,117.49295806884766,-0.12471399456263,-0.02754854410887,9.98847484588623,1.38327109813690,1.84179151058197,0.75587612390518
82,2290224874,0.50488179922104,1.52808439731598,117.49240875244141,-0.11291454732418,-0.02557410486042,9.99426078796387,1.28550171852112,1.77396523952484,0.81765764951706
83,2290233207,0.51587533950806,1.54265809059143,117.49969482421875,-0.10275009274483,-0.02560048364103,9.99822616577148,1.30630040168762,1.77096831798553,0.86056154966354
84,2290241540,0.52064031362534,1.54683911800385,117.49858093261719,-0.11993159353733,-0.01792440190911,9.99775886535645,1.33594882488251,1.62421154975891,0.78178489208221
85,2290249873,0.53126144409180,1.56073522567749,117.50534820556641,-0.11311610043049,-0.02171567827463,9.99255847930908,1.26392161846161,1.69034731388092,0.80007344484329
86,2290258206,0.54357725381851,1.57498347759247,117.51269531250000,-0.11198242008686,-0.01605670712888,10.00353431701660,1.46177887916565,1.73088204860687,0.86921912431717
87,2290266539,0.54859465360641,1.57955360412598,117.51116943359375,-0.11817231029272,-0.02128090336919,9.99622821807861,1.37079703807831,1.67473554611206,0.76865750551224
88,2290274872,0.55397224426270,1.58506226539612,117.51122283935547,-0.12236119806767,-0.02487976662815,9.99259471893311,1.41370093822479,1.78789937496185,0.79934346675873
89,2290283205,0.56449192762375,1.59918320178986,117.51824188232422,-0.12098888307810,-0.02133535966277,9.97615623474121,1.25064051151276,1.72025203704834,0.83077210187912
90,2290291538,0.56908851861954,1.60467731952667,117.51620483398438,-0.11687368154526,-0.01716972887516,10.00921726226807,1.32279586791992,1.78569626808167,0.86056143045425
91,2290299871,0.57985556125641,1.61928141117096,117.52361297607422,-0.11759332567453,-0.02825647592545,10.00031852722168,1.27994346618652,1.77957475185394,0.87813287973404
92,2290308204,0.58386826515198,1.62599313259125,117.52422332763672,-0.11528726667166,-0.01082587148994,9.95799446105957,1.25658321380615,1.93520689010620,0.85018777847290
93,2290316537,0.59476929903030,1.64017343521118,117.53052520751953,-0.12346314638853,-0.01675444282591,10.02025318145752,1.30099809169769,1.72898638248444,0.74445205926895
94,2290324870,0.59976762533188,1.64525818824768,117.52862548828125,-0.11607586592436,-0.00069704023190,10.00005340576172,1.37736701965332,1.74057686328888,0.80429977178574
95,2290333203,0.61077159643173,1.65965652465820,117.53562927246094,-0.11555129289627,-0.01126041635871,10.01683616638184,1.31153833866119,1.75924956798553,0.82950425148010
96,2290341536,0.61505597829819,1.66423177719116,117.53507232666016,-0.12326834350824,-0.02243513055146,9.99677658081055,1.28843426704407,1.68376445770264,0.80862849950790
97,2290349869,0.62628763914108,1.67797935009003,117.54153442382812,-0.12357135862112,-0.01890836469829,9.98579120635986,1.34144306182861,1.67973017692566,0.76348340511322
98,2290358202,0.63050436973572,1.68417775630951,117.54179382324219,-0.13400030136108,-0.01650573126972,10.01118183135986,1.28642380237579,1.88052034378052,0.80505543947220
99,2290366535,0.64167010784149,1.69883775711060,117.54776000976562,-0.11421554535627,-0.01153648644686,9.99153327941895,1.33640992641449,1.79231762886047,0.70327723026276
100,2290374868,0.64656895399094,1.70356607437134,117.54748535156250,-0.12984207272530,-0.01843790337443,9.99683475494385,1.36851739883423,1.70488345623016,0.83412760496140
101,2290383201,0.65778017044067,1.71728038787842,117.55449676513672,-0.11762548238039,-0.01850183494389,9.99358272552490,1.33724236488342,1.68047308921814,0.83230888843536
102,2290391534,0.66174888610840,1.72301733493805,117.55162811279297,-0.09958856552839,-0.01905538141727,9.97951316833496,1.26114249229431,1.82854902744293,0.83305174112320
103,2290399867,0.67302483320236,1.73757910728455,117.55866241455078,-0.11614806205034,-0.01428576931357,10.02118396759033,1.34776997566223,1.78536355495453,0.83305174112320
104,2290408200,0.67700076103210,1.74325776100159,117.55844116210938,-0.10725381225348,-0.01848199777305,9.99961185455322,1.26334536075592,1.83103370666504,0.91340368986130
105,2290416533,0.68887883424759,1.75752043724060,117.56584930419922,-0.11614092439413,-0.00980981253088,9.96629333496094,1.41907989978790,1.75093805789948,0.87708258628845
106,2290424866,0.69319832324982,1.76327300071716,117.56436157226562,-0.13062496483326,-0.02733656205237,9.98833751678467,1.31029617786407,1.84811818599701,0.84826660156250
107,2290433199,0.70384490489960,1.77799403667450,117.57183074951172,-0.12412181496620,-0.02928118221462,9.98499107360840,1.27010762691498,1.80775046348572,0.88586837053299
108,2290441532,0.70803093910217,1.78252828121185,117.57150268554688,-0.10446832329035,0.00173352332786,9.98680686950684,1.30542933940887,1.70306456089020,0.77598321437836
109,2290449865,0.71961724758148,1.79754698276520,117.57872772216797,-0.11768765747547,-0.02465330436826,10.03105545043945,1.38560187816620,1.84604346752167,0.85592520236969
110,2290458198,0.72394448518753,1.80375564098358,117.57991790771484,-0.12164518237114,-0.02308683097363,10.01083946228027,1.32202744483948,1.91215372085571,0.86250805854797
111,2290466531,0.73499441146851,1.81860911846161,117.58667755126953,-0.12559391558170,-0.02530585974455,9.98521232604980,1.32399976253510,1.82783162593842,0.79949706792831
112,2290474864,0.73912817239761,1.82403624057770,117.58625793457031,-0.13049949705601,-0.02117500454187,9.99973773956299,1.30901539325714,1.82319569587708,0.81409722566605
113,2290483197,0.74970245361328,1.83828628063202,117.59300231933594,-0.10862573236227,-0.01644565910101,9.97655105590820,1.26775097846985,1.75608623027802,0.80113637447357
114,2290491530,0.75372213125229,1.84296023845673,117.59020233154297,-0.11695316433907,-0.02165137231350,9.98385334014893,1.29980707168579,1.73996210098267,0.84279799461365
115,2290499863,0.76503098011017,1.85767364501953,117.59721374511719,-0.12158200144768,-0.02877273410559,9.98946762084961,1.35632514953613,1.81479430198669,0.82803136110306
116,2290508196,0.76947981119156,1.86212575435638,117.59764862060547,-0.10982260107994,-0.03602849319577,9.99376296997070,1.35637605190277,1.72038006782532,0.88648301362991
117,2290516529,0.78044521808624,1.87667798995972,117.60471343994141,-0.13789902627468,-0.01711475476623,9.99804019927979,1.31675100326538,1.79878544807434,0.83581811189651
118,2290524862,0.78406649827957,1.88058102130890,117.60411071777344,-0.13349118828773,-0.00947760138661,10.00909996032715,1.26752042770386,1.66026341915131,0.87600678205490
119,2290533195,0.79539233446121,1.89535725116730,117.61084747314453,-0.11729694157839,-0.02110242843628,9.99530601501465,1.36183214187622,1.82591080665588,0.79849821329117
120,2290541528,0.79932302236557,1.89887332916260,117.61125183105469,-0.12492083758116,-0.02118914574385,9.97685623168945,1.31014251708984,1.62038218975067,0.85915261507034
121,2290549861,0.81039780378342,1.91446399688721,117.61771392822266,-0.10915499180555,-0.02745980769396,10.03625679016113,1.33529543876648,1.92736864089966,0.76566076278687
122,2290558194,0.81492942571640,1.92031919956207,117.61715698242188,-0.10893969237804,-0.03566261753440,9.99625873565674,1.39003324508667,1.90956676006317,0.81924569606781
123,2290566527,0.82617378234863,1.93448376655579,117.62364196777344,-0.12274806946516,-0.02224574796855,10.00108623504639,1.35693955421448,1.75667536258698,0.76645469665527
124,2290574860,0.82996302843094,1.93979728221893,117.62332916259766,-0.12723304331303,-0.00171286286786,10.01336288452148,1.30938696861267,1.85558509826660,0.91203337907791
125,2290583193,0.84138089418411,1.95398569107056,117.62998199462891,-0.10359779000282,-0.01917045190930,9.98354911804199,1.37799453735352,1.76333510875702,0.78645944595337
126,2290591526,0.84524220228195,1.95908164978027,117.62811279296875,-0.11112061142921,-0.00272843800485,9.97381687164307,1.32565188407898,1.83788549900055,0.81413573026657
127,2290599859,0.85663050413132,1.97281587123871,117.63500976562500,-0.10909266769886,-0.02053438872099,9.98911952972412,1.37371706962585,1.71133840084076,0.81983482837677
128,2290608192,0.86068576574326,1.97669458389282,117.63307189941406,-0.10292328894138,-0.00535051804036,10.00920963287354,1.35586380958557,1.70475542545319,0.80812913179398
129,2290616525,0.87097793817520,1.99025654792786,117.64000701904297,-0.11601488292217,-0.01095866598189,9.99252128601074,1.24398088455200,1.69276785850525,0.82441973686218
130,2290624858,0.87412369251251,1.99435639381409,117.63854980468750,-0.12559524178505,-0.02402018383145,9.97981262207031,1.25153720378876,1.74312543869019,0.79112124443054
131,2290633191,0.88423275947571,2.00902175903320,117.64543151855469,-0.11766550689936,-0.01463384646922,9.99827384948730,1.22388672828674,1.82897186279297,0.81900238990784
132,2290641524,0.88773834705353,2.01368165016174,117.64411163330078,-0.12675133347511,-0.02125043421984,10.02206993103027,1.30052435398102,1.81872618198395,0.83690673112869
133,2290649857,0.89905238151550,2.02849674224854,117.65066528320312,-0.11032919585705,-0.03686010837555,9.99386310577393,1.37238502502441,1.85016763210297,0.77708458900452
134,2290658190,0.90210014581680,2.03317832946777,117.64905548095703,-0.13659799098969,-0.02729293331504,9.98912906646729,1.25663435459137,1.83208370208740,0.82283169031143
135,2290666523,0.91317397356033,2.04753828048706,117.65618133544922,-0.12656360864639,-0.03105277754366,9.99152660369873,1.34287750720978,1.79886198043823,0.84611499309540
136,2290674856,0.91675955057144,2.05060410499573,117.65474700927734,-0.12174487859011,-0.00509547768161,9.99845027923584,1.33437347412109,1.64568901062012,0.78902077674866
137,2290683189,0.92750960588455,2.06492805480957,117.66122436523438,-0.12649391591549,-0.03621003776789,9.99742221832275,1.30817008018494,1.79486620426178,0.76850384473801
138,2290691522,0.93008893728256,2.07065439224243,117.65949249267578,-0.12522660195827,-0.02168289572001,9.99717140197754,1.22210633754730,1.97652232646942,0.80707889795303
139,2290699855,0.94057542085648,2.08471894264221,117.66694641113281,-0.09817733615637,0.00101608457044,10.03983211517334,1.27292501926422,1.76897025108337,0.88958233594894
140,2290708188,0.94410783052444,2.08885359764099,117.66525268554688,-0.10362259298563,-0.00504007982090,10.01608467102051,1.34267246723175,1.79904127120972,0.85600203275681
141,2290716521,0.95392835140228,2.10291910171509,117.67200469970703,-0.11153952032328,-0.00878687668592,10.00502490997314,1.19751679897308,1.77168560028076,0.80285263061523
142,2290724854,0.95684516429901,2.10785627365112,117.67060852050781,-0.11335831135511,-0.01924791373312,10.02920150756836,1.27807343006134,1.90831172466278,0.76968210935593
143,2290733187,0.96753215789795,2.12281179428101,117.67700195312500,-0.12969134747982,-0.02347126416862,9.99767971038818,1.30594193935394,1.88000810146332,0.75743865966797
144,2290741520,0.97003203630447,2.12554979324341,117.67697906494141,-0.11207425594330,-0.02993711642921,10.03532695770264,1.23475980758667,1.65905964374542,0.85928070545197
145,2290749853,0.98151248693466,2.13895130157471,117.68417358398438,-0.13043974339962,-0.02071318775415,10.02714824676514,1.39912629127502,1.69860792160034,0.85861468315125
146,2290758186,0.98496526479721,2.14309310913086,117.68325805664062,-0.12162619084120,-0.02661417610943,10.01494598388672,1.36221611499786,1.83743703365326,0.79683321714401
147,2290766519,0.99578553438187,2.15650534629822,117.68978881835938,-0.12447956949472,-0.01700430735946,10.02203464508057,1.32694542407990,1.70301377773285,0.77844220399857
148,2290774852,0.99875688552856,2.16077756881714,117.69004821777344,-0.10293103009462,-0.01527904439718,9.97161769866943,1.31157684326172,1.86707282066345,0.88563776016235
149,2290783185,1.00941753387451,2.17344951629639,117.69746398925781,-0.12515161931515,-0.01383699662983,10.00016784667969,1.30435371398926,1.61953675746918,0.88586831092834
150,2290791518,1.01235067844391,2.17718338966370,117.69825744628906,-0.11680813878775,-0.00829295068979,10.00961780548096,1.31646919250488,1.81592106819153,0.86514645814896
151,2290799851,1.02316939830780,2.19014859199524,117.70494079589844,-0.13485355675220,-0.01048769056797,9.97978210449219,1.32943010330200,1.65736925601959,0.79726868867874
152,2290808184,1.02616751194000,2.19348859786987,117.70507812500000,-0.12071392685175,-0.01454660203308,9.97691440582275,1.33445048332214,1.78116273880005,0.85292834043503
153,2290816517,1.03726530075073,2.20819211006165,117.71239471435547,-0.11876974999905,-0.02871393784881,9.99406719207764,1.36116611957550,1.86973679065704,0.87016683816910
154,2290824850,1.04003894329071,2.21247029304504,117.71104431152344,-0.11385430395603,-0.02157669141889,9.98868942260742,1.31649482250214,1.90846538543701,0.90802466869354
155,2290833183,1.05144727230072,2.22675395011902,117.71850585937500,-0.12043152004480,-0.03236041590571,9.98707389831543,1.40132927894592,1.82373368740082,0.88971054553986
156,2290841516,1.05403399467468,2.22914457321167,117.71783447265625,-0.11399243026972,-0.02115451917052,9.99079990386963,1.30970716476440,1.69563663005829,0.81927138566971
157,2290849849,1.06440937519073,2.24350333213806,117.72454071044922,-0.09756884723902,-0.01878278702497,10.02088451385498,1.28196680545807,1.83497834205627,0.80016320943832
158,2290858182,1.06673097610474,2.24671483039856,117.72367858886719,-0.11887881904840,-0.01948166079819,9.98348999023438,1.29164898395538,1.81026029586792,0.79583424329758
159,2290866515,1.07675099372864,2.26081061363220,117.73065948486328,-0.12877939641476,0.00847696606070,9.99331760406494,1.23998534679413,1.80810904502869,0.83579248189926
160,2290874848,1.07899963855743,2.26355218887329,117.73031616210938,-0.10982929915190,-0.01394681818783,9.99314498901367,1.28765308856964,1.76914954185486,0.88988971710205
161,2290883181,1.08960068225861,2.27685928344727,117.73722839355469,-0.13271948695183,-0.01332837250084,9.99596023559570,1.31308805942535,1.71702456474304,0.82567483186722
162,2290891514,1.09238028526306,2.27904725074768,117.73571777343750,-0.11722903698683,-0.00776879722252,10.00575447082520,1.36680126190186,1.71720397472382,0.76778674125671
163,2290899847,1.10204899311066,2.29161095619202,117.74344635009766,-0.12402081489563,-0.02202491462231,10.01156997680664,1.20010375976562,1.63295865058899,0.92954051494598
164,2290908180,1.10440576076508,2.29461240768433,117.74235534667969,-0.11098077893257,-0.02487862296402,9.99402618408203,1.32294976711273,1.83098244667053,0.87984901666641
165,2290916513,1.11498641967773,2.30876684188843,117.74884033203125,-0.12083467841148,-0.03033658675849,9.98659420013428,1.31854391098022,1.82608997821808,0.77813482284546
166,2290924846,1.11770725250244,2.31279134750366,117.74797058105469,-0.12728516757488,-0.03010939247906,9.99013233184814,1.38163197040558,1.97032392024994,0.81161272525787
167,2290933179,1.12738585472107,2.32665181159973,117.75527954101562,-0.14576861262321,-0.01964474283159,10.01296901702881,1.20952975749969,1.79604434967041,0.87462359666824
168,2290941512,1.12983167171478,2.32995343208313,117.75436401367188,-0.11538785696030,-0.01800478622317,9.97405529022217,1.36249804496765,1.89535105228424,0.82718604803085
169,2290949845,1.14047455787659,2.34554624557495,117.76157379150391,-0.13824833929539,-0.01569972373545,9.97311401367188,1.32686865329742,2.00782322883606,0.86061275005341
170,2290958178,1.14282238483429,2.34794855117798,117.76036834716797,-0.10067016631365,-0.04305478185415,9.99606704711914,1.36613523960114,1.80416440963745,0.76975899934769
171,2290966511,1.15297341346741,2.36258435249329,117.76708984375000,-0.12012305855751,0.00460079032928,9.98272609710693,1.27443623542786,1.89593994617462,0.80551648139954
172,2290974844,1.15492188930511,2.36321759223938,117.76590728759766,-0.11636559665203,-0.02263774536550,9.98765945434570,1.32889211177826,1.60993146896362,0.80177676677704
173,2290983177,1.16502690315247,2.37733054161072,117.77261352539062,-0.13000074028969,-0.01110741775483,9.99779129028320,1.27056837081909,1.83697593212128,0.80638730525970
174,2290991510,1.16718101501465,2.37843465805054,117.77326965332031,-0.11466563493013,-0.01484662946314,10.00428104400635,1.36114025115967,1.68564713001251,0.93246054649353
175,2290999843,1.17773795127869,2.39103317260742,117.77971649169922,-0.10310636460781,-0.02943056076765,10.00914859771729,1.33001911640167,1.66039156913757,0.77962046861649
176,2291008176,1.17937064170837,2.39223003387451,117.77733612060547,-0.12408214807510,0.00519436551258,9.98877811431885,1.32028555870056,1.71208083629608,0.72770035266876
177,2291016509,1.19020712375641,2.40559673309326,117.78434753417969,-0.12422591447830,-0.01934466883540,9.96778106689453,1.36393260955811,1.75800752639771,0.84598702192307
178,2291024842,1.19193565845490,2.40610909461975,117.78260040283203,-0.12844389677048,-0.03650802746415,9.99403953552246,1.33772897720337,1.64871144294739,0.86368632316589
179,2291033175,1.20208203792572,2.41872215270996,117.78987884521484,-0.11123403906822,-0.03651609644294,10.00417709350586,1.28350377082825,1.67419767379761,0.88002830743790
180,2291041508,1.20305931568146,2.41929721832275,117.78863525390625,-0.11509741097689,-0.01629933156073,10.00343227386475,1.26442098617554,1.67399263381958,0.85495191812515
181,2291049841,1.21302258968353,2.43228244781494,117.79595947265625,-0.10529109835625,-0.01381180994213,9.97828388214111,1.26419055461884,1.72212171554565,0.88689285516739
182,2291058174,1.21437239646912,2.43261194229126,117.79539489746094,-0.12148100137711,-0.02024133503437,9.99257946014404,1.32341063022614,1.66676950454712,0.85490071773529
183,2291066507,1.22435963153839,2.44617938995361,117.80249023437500,-0.11849617213011,-0.03761706873775,10.02287387847900,1.27069664001465,1.79535305500031,0.85787194967270
184,2291074840,1.22470831871033,2.44683051109314,117.80091857910156,-0.09231804311275,-0.02808023244143,9.99827575683594,1.22323334217072,1.72181439399719,0.75144469738007
185,2291083173,1.23561704158783,2.46006274223328,117.80703735351562,-0.12663556635380,-0.03798858076334,10.00815200805664,1.38954663276672,1.75749504566193,0.74173694849014
186,2291091506,1.23675763607025,2.46237301826477,117.80505371093750,-0.10111480206251,-0.01296480279416,10.00680065155029,1.33521878719330,1.94063711166382,0.76822215318680
187,2291099839,1.24666297435760,2.47684311866760,117.81224060058594,-0.11705300956964,-0.03474551811814,10.00151348114014,1.26526641845703,1.91540706157684,0.86701631546021
188,2291108172,1.24707531929016,2.47821879386902,117.81149291992188,-0.09859923273325,-0.01554505340755,9.98721694946289,1.26132190227509,1.84855377674103,0.79598802328110
189,2291116505,1.25625801086426,2.49196743965149,117.81739044189453,-0.12025112658739,0.00020939903334,10.00406932830811,1.19093382358551,1.82982969284058,0.71586656570435
190,2291124838,1.25626647472382,2.49301362037659,117.81642150878906,-0.11488737165928,-0.01227602548897,10.02148342132568,1.22418129444122,1.83162283897400,0.83148938417435
191,2291133171,1.26665353775024,2.50635552406311,117.82356262207031,-0.13799248635769,-0.01287368126214,9.99116802215576,1.33104383945465,1.79002535343170,0.86775910854340
192,2291141504,1.26640796661377,2.50532579421997,117.82250976562500,-0.12129364162683,-0.01261985860765,10.00503063201904,1.20858204364777,1.60037732124329,0.82226812839508
193,2291149837,1.27609431743622,2.51798820495605,117.82920837402344,-0.10862261056900,-0.02454335428774,9.99343872070312,1.25271534919739,1.71290063858032,0.81637686491013
194,2291158170,1.27645337581635,2.51982784271240,117.82789611816406,-0.11347849667072,-0.02793822251260,10.00265884399414,1.29404389858246,1.96580290794373,0.85691136121750
195,2291166503,1.28666436672211,2.53359436988831,117.83449554443359,-0.11697965115309,-0.02311860583723,9.98047065734863,1.32029867172241,1.84964239597321,0.80240434408188
196,2291174836,1.28715085983276,2.53259491920471,117.83320617675781,-0.12002065032721,-0.02690542116761,10.01919651031494,1.32837986946106,1.64402413368225,0.77539414167404
197,2291183169,1.29790294170380,2.54671168327332,117.83982086181641,-0.11747206002474,-0.01119617093354,10.00236511230469,1.38803529739380,1.89650344848633,0.80654096603394
198,2291191502,1.29808151721954,2.54826402664185,117.83919525146484,-0.10548004508018,-0.01529415417463,9.99782371520996,1.30394387245178,1.97239851951599,0.86030530929565
199,2291199835,1.30824720859528,2.56290507316589,117.84614562988281,-0.11143530160189,-0.00998941902071,9.98833084106445,1.32077229022980,1.96691715717316,0.84117144346237
200,2291208168,1.30884897708893,2.56254053115845,117.84452056884766,-0.11798859387636,-0.02458944357932,9.98142910003662,1.36966991424561,1.76418030261993,0.82180708646774
201,2291216501,1.32034170627594,2.57698917388916,117.85214233398438,-0.12332407385111,-0.02931496500969,9.99804687500000,1.47904276847839,1.95029330253601,0.92767077684402
202,2291224834,1.32157731056213,2.57779288291931,117.85207366943359,-0.10706406831741,-0.00954672321677,9.99097251892090,1.46354615688324,1.92375719547272,0.82119238376617
203,2291233167,1.33131015300751,2.59135603904724,117.85865783691406,-0.11791490018368,-0.02354347333312,9.99484729766846,1.27766358852386,1.84701704978943,0.80459433794022
204,2291241500,1.33075654506683,2.59009146690369,117.85841369628906,-0.12260538339615,-0.00837159901857,10.00334835052490,1.26385772228241,1.69830071926117,0.82198643684387
205,2291249833,1.34076774120331,2.60141706466675,117.86463928222656,-0.13050305843353,-0.00816597975791,10.00126743316650,1.31636655330658,1.58336949348450,0.76827335357666
206,2291258166,1.34075224399567,2.60043239593506,117.86327362060547,-0.11699536442757,-0.01743682287633,10.00988292694092,1.34290301799774,1.75173175334930,0.83615100383759
207,2291266499,1.35120689868927,2.61403894424438,117.86968231201172,-0.12634585797787,-0.01572399958968,10.00032520294189,1.37353789806366,1.86192452907562,0.78720229864120
208,2291274832,1.35103094577789,2.61360812187195,117.86812591552734,-0.10585638880730,-0.01572533696890,10.01082801818848,1.34054648876190,1.83933281898499,0.78348821401596
209,2291283165,1.36092185974121,2.62595033645630,117.87450408935547,-0.11971741169691,-0.00904843211174,9.98245716094971,1.30934846401215,1.71512913703918,0.78681808710098
210,2291291498,1.36003601551056,2.62388134002686,117.87287902832031,-0.10429055988789,-0.02783755399287,9.98060894012451,1.27044022083282,1.66518127918243,0.80643850564957
211,2291299831,1.36895775794983,2.63635611534119,117.87972259521484,-0.11446028202772,-0.02184095978737,9.98916912078857,1.19495511054993,1.73910403251648,0.84217029809952
212,2291308164,1.36842870712280,2.63467836380005,117.87764739990234,-0.10968658328056,-0.02575458958745,9.98795413970947,1.33411741256714,1.73336648941040,0.73138880729675
213,2291316497,1.37894701957703,2.64721322059631,117.88457489013672,-0.12730127573013,-0.02118009701371,9.99797344207764,1.39003336429596,1.75321769714355,0.85392743349075
214,2291324830,1.37774813175201,2.64695882797241,117.88357543945312,-0.11023360490799,-0.01946711726487,10.00640678405762,1.26554811000824,1.92624187469482,0.81071615219116
215,2291333163,1.38847923278809,2.65990519523621,117.88988494873047,-0.11371811479330,-0.01266142539680,9.98960685729980,1.42394649982452,1.80703306198120,0.78161841630936
216,2291341496,1.38707113265991,2.65864443778992,117.88838195800781,-0.11805588006973,-0.01449094805866,9.98414516448975,1.25786375999451,1.82783162593842,0.80595183372498
217,2291349829,1.39774644374847,2.67197489738464,117.89421844482422,-0.11774293333292,-0.03692353144288,10.01838207244873,1.42305016517639,1.85833847522736,0.72311556339264
218,2291358162,1.39699125289917,2.67016601562500,117.89283752441406,-0.13155061006546,-0.02699101157486,10.02288436889648,1.35430145263672,1.78538918495178,0.79819083213806
219,2291366495,1.40747618675232,2.68265938758850,117.89926910400391,-0.12545534968376,-0.01873005740345,10.00289440155029,1.39997172355652,1.76510262489319,0.79831886291504
220,2291374828,1.40604865550995,2.68034958839417,117.89731597900391,-0.11471197009087,-0.01560820825398,9.99440956115723,1.29057323932648,1.74591743946075,0.82833874225616
221,2291383161,1.41568458080292,2.69310522079468,117.90438079833984,-0.11587096005678,-0.01905868388712,10.00019741058350,1.29989683628082,1.80421566963196,0.87329179048538
222,2291391494,1.41467285156250,2.68938088417053,117.90254974365234,-0.10222253948450,-0.01914462447166,10.00305461883545,1.35893750190735,1.59791839122772,0.77780175209045
223,2291399827,1.42431652545929,2.70090413093567,117.90887451171875,-0.12541902065277,-0.01985817588866,10.01294994354248,1.31027054786682,1.65952074527740,0.78815001249313
224,2291408160,1.42302417755127,2.69711565971375,117.90850830078125,-0.13186939060688,-0.02497741580009,10.01667118072510,1.33888173103333,1.61461901664734,0.85397857427597
225,2291416493,1.43265116214752,2.71049094200134,117.91483306884766,-0.11961846053600,-0.03985610231757,9.97969245910645,1.31196117401123,1.88907539844513,0.78476893901825
226,2291424826,1.43161785602570,2.70737934112549,117.91432189941406,-0.10158967226744,-0.02014429122210,9.97826290130615,1.39100670814514,1.71620488166809,0.80410766601562
227,2291433159,1.44092142581940,2.71984815597534,117.92022705078125,-0.09647838771343,-0.02426319941878,9.96978569030762,1.27912378311157,1.78520989418030,0.73850965499878
228,2291441492,1.43911135196686,2.71753668785095,117.91893005371094,-0.10525397956371,-0.03159172087908,10.00837612152100,1.31126940250397,1.83910214900970,0.89414179325104
229,2291449825,1.44880127906799,2.72989058494568,117.92565917968750,-0.12088267505169,-0.01368469558656,9.98664188385010,1.32691967487335,1.78021490573883,0.83853316307068
230,2291458158,1.45784664154053,2.74201512336731,117.93241119384766,-0.10823653638363,-0.02439882047474,10.00097084045410,1.23437559604645,1.73562049865723,0.84001880884171
231,2291466491,1.45671248435974,2.74065065383911,117.93254852294922,-0.10243771970272,-0.03716662526131,10.01128959655762,1.42018127441406,1.99470877647400,0.94811081886292
232,2291474824,1.45395243167877,2.73804688453674,117.93202972412109,-0.13695548474789,-0.02453668601811,10.01989269256592,1.23606622219086,1.85047483444214,0.83912235498428
233,2291483157,1.46342408657074,2.75077223777771,117.93921661376953,-0.11074116080999,-0.01333212666214,10.00281620025635,1.30640280246735,1.83923041820526,0.89403933286667
234,2291491490,1.46125447750092,2.74669456481934,117.93788909912109,-0.10593032836914,-0.01166334748268,9.99959754943848,1.32707357406616,1.69394612312317,0.79460477828979
235,2291499823,1.47099053859711,2.75774860382080,117.94398498535156,-0.11972177773714,-0.01710453815758,10.03045368194580,1.35002374649048,1.64223086833954,0.77193611860275
236,2291508156,1.48088586330414,2.76969695091248,117.95055389404297,-0.09707298874855,-0.00132708007004,9.98906135559082,1.35145819187164,1.73195767402649,0.82078248262405
237,2291516489,-0.15178720653057,0.63559317588806,117.05950927734375,-0.12507776916027,-0.02360858023167,10.00331497192383,1.27884197235107,1.70677900314331,0.82237070798874
238,2291524822,-0.15231955051422,0.63566565513611,117.06095886230469,-0.09760257601738,-0.01995857246220,10.02342510223389,1.24989783763885,1.80180776119232,0.79629534482956
239,2291533155,-0.15267616510391,0.63568490743637,117.06024932861328,-0.11708523333073,-0.00930731184781,10.00355720520020,1.27597308158875,1.78039419651031,0.73856085538864
240,2291541488,-0.15267825126648,0.63567799329758,117.06275177001953,-0.11964555829763,-0.01867022737861,9.99855899810791,1.31370294094086,1.79317593574524,0.74604016542435
241,2291549821,-0.15172000229359,0.63610887527466,117.06198883056641,-0.11304084211588,-0.03197238221765,9.99248981475830,1.43273222446442,1.82721698284149,0.73425763845444
242,2291558154,-0.15100365877151,0.63619714975357,117.06415557861328,-0.08770826458931,-0.00917186122388,10.02263259887695,1.39979243278503,1.80419003963470,0.77967178821564
243,2291566487,-0.15067175030708,0.63541895151138,117.06496429443359,-0.09960494190454,-0.04228956624866,10.00904464721680,1.35565888881683,1.68352115154266,0.92226612567902
244,2291574820,-0.15074601769447,0.63579714298248,117.06623077392578,-0.11382345110178,-0.01703773252666,10.02917957305908,1.30568575859070,1.83843612670898,0.71184527873993
245,2291583153,-0.15017397701740,0.63542336225510,117.06664276123047,-0.10687071084976,-0.01377780828625,10.02418994903564,1.38578140735626,1.73290550708771,0.87610936164856
246,2291591486,-0.15037013590336,0.63497656583786,117.07026672363281,-0.09928533434868,-0.03531413525343,9.99842071533203,1.28947174549103,1.73943698406219,0.81378984451294
247,2291599819,-0.15041935443878,0.63591289520264,117.07046508789062,-0.13223816454411,-0.01111949235201,10.02472877502441,1.31180739402771,1.88766682147980,0.85195511579514
248,2291608152,-0.15033155679703,0.63731575012207,117.07333374023438,-0.12882226705551,-0.01740170083940,10.01080322265625,1.32300078868866,1.96210145950317,0.74552792310715
249,2291616485,-0.15099610388279,0.63799995183945,117.07352447509766,-0.13918699324131,-0.01322865393013,10.01383399963379,1.23765420913696,1.85926055908203,0.84859955310822
250,2291624818,-0.15090911090374,0.63859474658966,117.07614898681641,-0.12094765901566,-0.04309279844165,10.01675033569336,1.32351315021515,1.86251342296600,0.83328223228455
251,2291633151,-0.15052311122417,0.63815575838089,117.07597351074219,-0.11579993367195,-0.00555328745395,9.99709987640381,1.36342012882233,1.72335147857666,0.80356985330582
252,2291641484,-0.15048427879810,0.63882416486740,117.07907104492188,-0.11221919208765,-0.01045022904873,10.01251316070557,1.31800615787506,1.87060761451721,0.75743860006332
253,2291649817,-0.15043286979198,0.64077591896057,117.07956695556641,-0.11014743894339,-0.02080856822431,9.99135875701904,1.32243728637695,2.01156258583069,0.88702094554901
254,2291658150,-0.15006890892982,0.64168494939804,117.08150482177734,-0.12227484583855,-0.02784876525402,9.98750972747803,1.35550522804260,1.89798939228058,0.82695555686951
255,2291666483,-0.14986489713192,0.64144748449326,117.08106994628906,-0.12794023752213,-0.01927684806287,10.00533103942871,1.34351766109467,1.74924719333649,0.77449750900269
256,2291674816,-0.15025661885738,0.64133828878403,117.08403015136719,-0.12840446829796,-0.01952261850238,10.00004577636719,1.26536881923676,1.77655208110809,0.76788914203644
257,2291683149,-0.15028452873230,0.64060527086258,117.08381652832031,-0.12260828167200,-0.02423929609358,9.98253726959229,1.31544458866119,1.68795239925385,0.79967635869980
258,2291691482,-0.15044745802879,0.63998019695282,117.08717346191406,-0.09134496003389,-0.03013864159584,9.99621200561523,1.29108548164368,1.71428382396698,0.85233926773071
259,2291699815,-0.14995032548904,0.63904517889023,117.08715820312500,-0.11025322973728,-0.02633700706065,10.02254390716553,1.37827634811401,1.66461789608002,0.82377934455872
260,2291708148,-0.15064996480942,0.63934868574142,117.08950042724609,-0.12709502875805,-0.02475086227059,10.04362869262695,1.22702431678772,1.82422018051147,0.80961477756500
261,2291716481,-0.15123835206032,0.63947886228561,117.08960723876953,-0.10990220308304,-0.00915843341500,10.00195693969727,1.24684953689575,1.79184377193451,0.83904540538788
262,2291724814,-0.15071780979633,0.63961833715439,117.09221649169922,-0.11821760237217,-0.03127559274435,9.99544239044189,1.37443423271179,1.80549633502960,0.81030637025833
263,2291733147,-0.15020887553692,0.64044791460037,117.09185028076172,-0.10920309275389,-0.01703388988972,9.99189567565918,1.37981331348419,1.87690889835358,0.78241240978241
264,2291741480,-0.15150718390942,0.63946467638016,117.09429168701172,-0.11046201735735,-0.02664170973003,10.01648521423340,1.15553498268127,1.66874170303345,0.90630847215652
265,2291749813,-0.15142489969730,0.64008331298828,117.09420776367188,-0.12377300858498,-0.00909294281155,9.99649047851562,1.32732963562012,1.85083353519440,0.81901526451111
266,2291758146,-0.15094394981861,0.64070665836334,117.09520721435547,-0.11529375612736,-0.00199869577773,9.99694824218750,1.37043845653534,1.86305153369904,0.81199687719345
267,2291766479,-0.15218904614449,0.64038532972336,117.09595489501953,-0.10259676724672,-0.00864915736020,9.98191452026367,1.16619050502777,1.73782324790955,0.91640043258667
268,2291774812,-0.15173031389713,0.63979357481003,117.09851074218750,-0.10583510249853,-0.02552594989538,10.01041316986084,1.36651921272278,1.71538507938385,0.80917918682098
269,2291783145,-0.15137664973736,0.64006549119949,117.09866333007812,-0.11418081074953,-0.03063192218542,10.01219463348389,1.36019265651703,1.81000447273254,0.84585893154144
270,2291791478,-0.15237803757191,0.64079350233078,117.10202026367188,-0.11279338598251,-0.00936513766646,9.96362400054932,1.19085693359375,1.87332260608673,0.83822590112686
271,2291799811,-0.15269981324673,0.64104300737381,117.10234069824219,-0.11535057425499,-0.04436442628503,9.99684619903564,1.27904701232910,1.80695629119873,0.86609417200089
272,2291808144,-0.15272925794125,0.64058274030685,117.10573577880859,-0.10626879334450,-0.01708593592048,9.99810981750488,1.30765783786774,1.73287975788116,0.81322628259659
273,2291816477,-0.15273091197014,0.64188820123672,117.10612487792969,-0.13619570434093,-0.00876095611602,9.99945068359375,1.31703281402588,1.93290150165558,0.87231844663620
274,2291824810,-0.15270994603634,0.64325088262558,117.10820007324219,-0.12904165685177,-0.02090282738209,9.98252868652344,1.31482994556427,1.94921779632568,0.80613124370575
275,2291833143,-0.15311223268509,0.64461594820023,117.10795593261719,-0.12311383336782,-0.00963681191206,9.99179840087891,1.26910865306854,1.94155919551849,0.79650032520294
276,2291841476,-0.15321813523769,0.64468103647232,117.11010742187500,-0.10679435729980,-0.01752674952149,10.02678394317627,1.29784762859344,1.79335498809814,0.79498898983002
277,2291849809,-0.15323938429356,0.64557462930679,117.10986328125000,-0.11567150801420,-0.01943987607956,9.98605632781982,1.31572651863098,1.88333797454834,0.79650026559830
278,2291858142,-0.15289440751076,0.64483028650284,117.11186218261719,-0.09537922590971,-0.03584852442145,9.96482467651367,1.35176563262939,1.69579052925110,0.80123889446259
279,2291866475,-0.15371040999889,0.64409726858139,117.11221313476562,-0.10384271293879,-0.02401274628937,9.97484874725342,1.21951937675476,1.68838787078857,0.86878359317780
280,2291874808,-0.15325844287872,0.64413392543793,117.11495971679688,-0.09415023773909,-0.01324897911400,10.01381969451904,1.36639130115509,1.79087054729462,0.80577266216278
281,2291883141,-0.15381222963333,0.64419949054718,117.11408233642578,-0.10213664919138,-0.02813955582678,10.00333404541016,1.25286900997162,1.78395450115204,0.72137373685837
282,2291891474,-0.15418528020382,0.64413011074066,117.11611938476562,-0.11089941114187,-0.03441962599754,9.98491382598877,1.26536870002747,1.77834498882294,0.82372814416885
283,2291899807,-0.15472748875618,0.64409697055817,117.11553192138672,-0.11569187790155,-0.00030195736326,10.00314235687256,1.25307393074036,1.77345275878906,0.75615781545639
284,2291908140,-0.15466076135635,0.64332664012909,117.11833190917969,-0.12201095372438,-0.01375738158822,10.02209186553955,1.31915867328644,1.69294714927673,0.79529637098312
285,2291916473,-0.15485402941704,0.64256560802460,117.11798095703125,-0.11468177288771,-0.02337400056422,9.98482704162598,1.29485082626343,1.68656921386719,0.78471767902374
286,2291924806,-0.15465219318867,0.64317810535431,117.11948394775391,-0.10366404801607,-0.01927837356925,10.00223064422607,1.33696043491364,1.85879933834076,0.74872958660126
287,2291933139,-0.15410859882832,0.64304953813553,117.11920928955078,-0.10750164836645,-0.00322174304165,10.02338027954102,1.38275885581970,1.76082515716553,0.79419499635696
288,2291941472,-0.15407775342464,0.64342802762985,117.12185668945312,-0.09912162274122,-0.01990052126348,9.99214458465576,1.31431746482849,1.83154594898224,0.81425094604492
289,2291949805,-0.15448333323002,0.64291101694107,117.12214660644531,-0.12297917902470,-0.03897269442677,9.99541187286377,1.26787889003754,1.71546208858490,0.86007475852966
290,2291958138,-0.15453885495663,0.64199560880661,117.12425994873047,-0.10719934850931,-0.02264501340687,10.00329685211182,1.30307304859161,1.67563211917877,0.86581248044968
291,2291966471,-0.15539444983006,0.64167052507401,117.12461853027344,-0.13368640840054,-0.03484096378088,9.99859333038330,1.21547222137451,1.73631215095520,0.86734920740128
292,2291974804,-0.15635420382023,0.64235830307007,117.12770843505859,-0.11108487844467,-0.03743967786431,10.00440502166748,1.19485282897949,1.86804628372192,0.86773335933685
293,2291983137,-0.15668043494225,0.64297854900360,117.12788391113281,-0.12318920344114,-0.01764855720103,9.99156284332275,1.27902126312256,1.85124313831329,0.84847152233124
294,2291991470,-0.15600554645061,0.64485681056976,117.12994384765625,-0.12993645668030,-0.02714668959379,10.01580524444580,1.39228749275208,2.01017975807190,0.79416942596436
295,2291999803,-0.15565413236618,0.64426392316818,117.13030242919922,-0.12587863206863,-0.02257250808179,9.99778079986572,1.35927057266235,1.70603597164154,0.87055093050003
296,2292008136,-0.15548674762249,0.64535796642303,117.13417816162109,-0.12182771414518,-0.00854325667024,9.99016857147217,1.33032643795013,1.91451036930084,0.90938216447830
297,2292016469,-0.15568353235722,0.64453387260437,117.13460540771484,-0.12389776855707,-0.02881595864892,10.01728439331055,1.29285275936127,1.67791163921356,0.87700575590134
298,2292024802,-0.15598309040070,0.64555829763412,117.13748931884766,-0.10346515476704,-0.01350424066186,10.01270866394043,1.27507674694061,1.90723598003387,0.84998285770416
299,2292033135,-0.15622267127037,0.64687025547028,117.13782501220703,-0.10515592247248,-0.01811219006777,9.99658775329590,1.28808867931366,1.93377208709717,0.86614531278610
300,2292041468,-0.15659593045712,0.64695209264755,117.13938140869141,-0.10367880761623,-0.00553240161389,9.99258613586426,1.26659846305847,1.79289412498474,0.80538845062256
301,2292049801,-0.15722623467445,0.64751529693604,117.13939666748047,-0.11056668311357,-0.00874565914273,9.99804306030273,1.24203407764435,1.84491646289825,0.82751905918121
302,2292058134,-0.15772369503975,0.64941143989563,117.14096832275391,-0.12260053306818,-0.01777640730143,9.99609088897705,1.24912941455841,2.01082015037537,0.89188760519028
303,2292066467,-0.15785835683346,0.64896291494370,117.14114379882812,-0.09950654953718,0.00366632454097,10.00061130523682,1.30145931243896,1.72289025783539,0.84667855501175
304,2292074800,-0.15720996260643,0.64862865209579,117.14347076416016,-0.10721409320831,-0.02262587472796,9.98532390594482,1.38660109043121,1.74479067325592,0.86255943775177
305,2292083133,-0.15746016800404,0.64844107627869,117.14369964599609,-0.13066761195660,-0.01743050478399,9.99448776245117,1.28862667083740,1.75457501411438,0.85341513156891
306,2292091466,-0.15752762556076,0.64862281084061,117.14530181884766,-0.11392333358526,-0.02266277000308,9.97987842559814,1.30166411399841,1.80403614044189,0.75728487968445
307,2292099799,-0.15716153383255,0.64771670103073,117.14556121826172,-0.11004707962275,-0.01651523075998,9.99298763275146,1.36088430881500,1.66958701610565,0.85559225082397
308,2292108132,-0.15754179656506,0.64699220657349,117.14833068847656,-0.11828695237637,-0.01847420632839,10.01666355133057,1.26413941383362,1.69586718082428,0.90510457754135
309,2292116465,-0.15720129013062,0.64611506462097,117.14817047119141,-0.11358927935362,-0.00860355235636,10.00016975402832,1.35806691646576,1.67140579223633,0.80456882715225
310,2292124798,-0.15704417228699,0.64495700597763,117.15074920654297,-0.13547049462795,-0.02412820234895,9.93891143798828,1.32758569717407,1.64397287368774,0.85505437850952
311,2292133131,-0.15637612342834,0.64583033323288,117.15122985839844,-0.13275334239006,-0.02624291367829,10.03156280517578,1.39825558662415,1.88157045841217,0.88361430168152
312,2292141464,-0.15649656951427,0.64600199460983,117.15401458740234,-0.10342571884394,0.01017875224352,10.01358795166016,1.29341626167297,1.80308842658997,0.88166755437851
313,2292149797,-0.15682564675808,0.64645260572433,117.15404510498047,-0.11934333294630,-0.02610231377184,9.97989749908447,1.27807354927063,1.83131551742554,0.82931208610535
314,2292158130,-0.15806545317173,0.64614737033844,117.15692138671875,-0.12441160529852,-0.00682127848268,9.99331378936768,1.15991508960724,1.74450886249542,0.86811769008636
315,2292166463,-0.15788173675537,0.64667588472366,117.15689849853516,-0.12476155161858,-0.01345446426421,10.00870132446289,1.33929157257080,1.84150969982147,0.82334399223328
316,2292174796,-0.15716272592545,0.64692199230194,117.15874481201172,-0.09986009448767,-0.01501708012074,10.02957820892334,1.39400362968445,1.81084966659546,0.87582761049271
317,2292183129,-0.15764246881008,0.64534837007523,117.15885162353516,-0.10004971176386,-0.02479661628604,10.01578617095947,1.26150119304657,1.58741652965546,0.83940404653549
318,2292191462,-0.15834048390388,0.64620918035507,117.16089630126953,-0.11833612620831,-0.03043448738754,10.00571250915527,1.22451424598694,1.88582253456116,0.80239158868790
319,2292199795,-0.15882968902588,0.64632761478424,117.16098022460938,-0.11809363961220,-0.02008953318000,9.99617004394531,1.25909328460693,1.79094731807709,0.83474236726761
320,2292208128,-0.15903325378895,0.64890182018280,117.16352081298828,-0.12711299955845,-0.01422488037497,10.03032302856445,1.28401601314545,2.09183788299561,0.81166392564774
321,2292216461,-0.15837776660919,0.64857375621796,117.16346740722656,-0.12412548810244,0.00533533468843,9.98916339874268,1.39669287204742,1.73685002326965,0.81758069992065
322,2292224794,-0.15869329869747,0.64769953489304,117.16647338867188,-0.10819160193205,-0.01347109861672,10.02149295806885,1.26923668384552,1.67762994766235,0.89124739170074
323,2292233127,-0.15879262983799,0.64846843481064,117.16661071777344,-0.13168533146381,-0.02582028694451,10.04638385772705,1.30624914169312,1.86917328834534,0.84414273500443
324,2292241460,-0.15923750400543,0.64867210388184,117.16860198974609,-0.11090994626284,-0.04858577996492,10.01863288879395,1.25427794456482,1.80488133430481,0.80126446485519
325,2292249793,-0.15891839563847,0.64912891387939,117.16830444335938,-0.12379987537861,-0.01286263298243,10.02475357055664,1.35704231262207,1.83205819129944,0.79171043634415
326,2292258126,-0.15848463773727,0.65014111995697,117.16996765136719,-0.11625280231237,-0.01963553205132,10.00958347320557,1.36039781570435,1.90198504924774,0.82244747877121
327,2292266459,-0.15782898664474,0.64953112602234,117.16987609863281,-0.11468294262886,-0.02006353065372,10.00088500976562,1.39625751972198,1.70398688316345,0.81389230489731
328,2292274792,-0.15797396004200,0.65009659528732,117.17131042480469,-0.10323504358530,-0.03085912205279,9.98262596130371,1.29226374626160,1.84991145133972,0.74235183000565
329,2292283125,-0.15870583057404,0.65055888891220,117.17198181152344,-0.13298410177231,-0.03064276464283,9.99697113037109,1.22899663448334,1.83177626132965,0.90602666139603
330,2292291458,-0.15834073722363,0.65085214376450,117.17349243164062,-0.11717066913843,-0.00832431949675,9.98428153991699,1.35207295417786,1.81528079509735,0.82490640878677
331,2292299791,-0.15882271528244,0.65034174919128,117.17401123046875,-0.12963534891605,-0.03486182540655,10.02029705047607,1.25865793228149,1.71574389934540,0.88804554939270
332,2292308124,-0.15901350975037,0.65074956417084,117.17617034912109,-0.10969271510839,-0.03997647017241,10.01344585418701,1.28634691238403,1.82957375049591,0.87083280086517
333,2292316457,-0.15941424667835,0.65201604366302,117.17606353759766,-0.11254667490721,-0.04122184216976,9.99335575103760,1.26951825618744,1.92993032932281,0.81432777643204
334,2292324790,-0.15945535898209,0.65223461389542,117.17681121826172,-0.11101084202528,-0.02298279106617,9.99262523651123,1.30471217632294,1.80659747123718,0.77885198593140
335,2292333123,-0.15954014658928,0.65355044603348,117.17723846435547,-0.09923991560936,-0.02343883365393,9.99583721160889,1.30788850784302,1.93454074859619,0.87826097011566
336,2292341456,-0.15976510941982,0.65389966964722,117.17931365966797,-0.10435003787279,-0.02672547474504,9.99781608581543,1.28217172622681,1.82342612743378,0.77731519937515
337,2292349789,-0.16075965762138,0.65454685688019,117.17946624755859,-0.10669390857220,-0.02515840157866,9.99414730072021,1.19772160053253,1.85365080833435,0.84483426809311
338,2292358122,-0.16047397255898,0.65592348575592,117.18110656738281,-0.11786121875048,-0.01027055736631,9.99249267578125,1.34423518180847,1.94624662399292,0.80564463138580
339,2292366455,-0.15974253416061,0.65694737434387,117.18132019042969,-0.10773912072182,-0.00888829305768,9.99180793762207,1.40524816513062,1.89893710613251,0.85262101888657
340,2292374788,-0.15974077582359,0.65677976608276,117.18308258056641,-0.11336717009544,0.01292369235307,10.01045894622803,1.30970704555511,1.76113224029541,0.79542440176010
341,2292383121,-0.15982152521610,0.65730011463165,117.18283843994141,-0.12896375358105,-0.01035323087126,9.98149013519287,1.30804216861725,1.84002435207367,0.79603922367096
342,2292391454,-0.15936127305031,0.65714597702026,117.18376922607422,-0.10033886134624,-0.01037550717592,10.00097179412842,1.36505949497223,1.76323282718658,0.84383541345596
343,2292399787,-0.15977822244167,0.65679788589478,117.18347930908203,-0.11254563182592,0.00420829514042,9.99001026153564,1.26662397384644,1.73408389091492,0.79273504018784
344,2292408120,-0.15985681116581,0.65579682588577,117.18580627441406,-0.13418450951576,-0.02134447172284,10.00673294067383,1.29887223243713,1.66080117225647,0.88043808937073
345,2292416453,-0.16006386280060,0.65668570995331,117.18592834472656,-0.12731119990349,-0.03006892837584,10.02116966247559,1.29213559627533,1.88303041458130,0.84311825037003
346,2292424786,-0.16053010523319,0.65801793336868,117.18795776367188,-0.12055921554565,-0.01320153195411,10.00438117980957,1.25194704532623,1.94163608551025,0.85082811117172
347,2292433119,-0.16019172966480,0.65800321102142,117.18843841552734,-0.11831250041723,-0.02700020931661,9.96350574493408,1.35860478878021,1.77465677261353,0.88433152437210
348,2292441452,-0.15964192152023,0.65738648176193,117.19065093994141,-0.11706463992596,-0.02637587860227,10.00077724456787,1.37335836887360,1.70598459243774,0.85285151004791
349,2292449785,-0.15933959186077,0.65656727552414,117.19046020507812,-0.12604381144047,-0.02467384561896,9.99097061157227,1.35535156726837,1.67842400074005,0.80367225408554
350,2292458118,-0.15853442251682,0.65831589698792,117.19184112548828,-0.11485753953457,-0.01266295649111,9.98779582977295,1.40588867664337,1.99066162109375,0.74288970232010
351,2292466451,-0.15944722294807,0.65874886512756,117.19189453125000,-0.09981720149517,-0.00607307115570,10.01305103302002,1.20776236057281,1.82880532741547,0.83284682035446
352,2292474784,-0.15972091257572,0.65867006778717,117.19503784179688,-0.09791584312916,-0.03019884787500,10.01341247558594,1.27289950847626,1.77055847644806,0.99552291631699
353,2292483117,-0.16029310226440,0.65807080268860,117.19532775878906,-0.09876783937216,-0.01699040271342,10.01829624176025,1.24818181991577,1.70406389236450,0.86035662889481
354,2292491450,-0.15987488627434,0.65837210416794,117.19678497314453,-0.11214872449636,-0.01926365867257,9.97699356079102,1.35865581035614,1.81740665435791,0.83369207382202
355,2292499783,-0.16016761958599,0.65845865011215,117.19728088378906,-0.12243537604809,-0.02221559733152,10.03561115264893,1.28171062469482,1.78800165653229,0.88530474901199
356,2292508116,-0.16030822694302,0.65730029344559,117.19909667968750,-0.11783083528280,-0.01991455070674,10.01779365539551,1.29154658317566,1.64051485061646,0.85310763120651
357,2292516449,-0.16093316674232,0.65717595815659,117.19906616210938,-0.11943756043911,-0.04142370074987,9.99923324584961,1.24311006069183,1.76207971572876,0.82201194763184
358,2292524782,-0.16072778403759,0.65797084569931,117.20129394531250,-0.10530465096235,-0.02970464155078,10.02215957641602,1.33178663253784,1.87532067298889,0.87480300664902
359,2292533115,-0.16124834120274,0.65907788276672,117.20056915283203,-0.10234789550304,-0.00119048380293,10.01154232025146,1.25678813457489,1.91007924079895,0.74030268192291
360,2292541448,-0.16138868033886,0.65951663255692,117.20217132568359,-0.11601104587317,-0.02157610468566,10.00103473663330,1.29103422164917,1.83431220054626,0.84970098733902
361,2292549781,-0.16241995990276,0.65853565931320,117.20238494873047,-0.12325652688742,-0.04205812886357,10.01880264282227,1.19357204437256,1.65908527374268,0.84954732656479
362,2292558114,-0.16232010722160,0.66000801324844,117.20406341552734,-0.10214371234179,-0.01983618177474,10.01396179199219,1.31964540481567,1.95723509788513,0.85825622081757
363,2292566447,-0.16269724071026,0.66000956296921,117.20397186279297,-0.11910701543093,-0.01817906089127,10.02554607391357,1.27336037158966,1.77606546878815,0.81481438875198
364,2292574780,-0.16218107938766,0.65944594144821,117.20518493652344,-0.12237226963043,-0.01454400550574,9.99581909179688,1.37177014350891,1.71433508396149,0.75597852468491
365,2292583113,-0.16196353733540,0.65834760665894,117.20466613769531,-0.11844974011183,-0.02462947368622,10.03786373138428,1.34351778030396,1.64466428756714,0.76530212163925
366,2292591446,-0.16237629950047,0.65884035825729,117.20529937744141,-0.13128948211670,-0.01840222440660,10.01439380645752,1.25965666770935,1.83958852291107,0.78886711597443
367,2292599779,-0.16280683875084,0.65792596340179,117.20510864257812,-0.11656284332275,-0.02114895917475,9.98502635955811,1.26675200462341,1.66735875606537,0.80026555061340
368,2292608112,-0.16405306756496,0.65831559896469,117.20677185058594,-0.11072146892548,-0.03357818722725,10.02556419372559,1.15853178501129,1.82716572284698,0.83699637651443
369,2292616445,-0.16419802606106,0.65849131345749,117.20654296875000,-0.11088196933270,-0.01910389028490,10.02484130859375,1.30099809169769,1.79799115657806,0.79895925521851
370,2292624778,-0.16456165909767,0.65855962038040,117.20882415771484,-0.11102898418903,-0.03368765860796,9.97462081909180,1.26362705230713,1.78889811038971,0.88784056901932
371,2292633111,-0.16410183906555,0.65892058610916,117.20919036865234,-0.12215711176395,-0.00213036173955,9.99923038482666,1.37369143962860,1.82024991512299,0.86909091472626
372,2292641444,-0.16457991302013,0.65914767980576,117.21026611328125,-0.10815994441509,-0.00865316949785,9.99407482147217,1.25107610225677,1.80644381046295,0.81760638952255
373,2292649777,-0.16490200161934,0.65912687778473,117.21059417724609,-0.10404744744301,-0.02238459698856,10.01246547698975,1.27763807773590,1.77468216419220,0.86440366506577
374,2292658110,-0.16451060771942,0.66046047210693,117.21169281005859,-0.12094800919294,-0.00118011538871,10.01696872711182,1.35609447956085,1.93991971015930,0.84916317462921
375,2292666443,-0.16369122266769,0.66129714250565,117.21216583251953,-0.10457289218903,-0.01770029403269,10.00174713134766,1.41546821594238,1.87736988067627,0.88230800628662
376,2292674776,-0.16342112421989,0.66116261482239,117.21383666992188,-0.10868935286999,-0.02780761010945,10.00990009307861,1.33980357646942,1.76474380493164,0.89908522367477
377,2292683109,-0.16356897354126,0.66061913967133,117.21318054199219,-0.11105602234602,-0.03793874382973,10.02004337310791,1.30017864704132,1.71243989467621,0.74627077579498
378,2292691442,-0.16316603124142,0.66085314750671,117.21492767333984,-0.11643127351999,-0.03022938221693,9.99714660644531,1.35717022418976,1.80800664424896,0.83430689573288
379,2292699775,-0.16296017169952,0.66062164306641,117.21495056152344,-0.12081355601549,0.00646967813373,9.99246978759766,1.34285187721252,1.74909377098083,0.83082336187363
380,2292708108,-0.16277916729450,0.66093456745148,117.21626281738281,-0.09823731333017,-0.03903089091182,10.01513862609863,1.32968616485596,1.81884145736694,0.79806274175644
381,2292716441,-0.16235278546810,0.66141378879547,117.21610260009766,-0.10930423438549,-0.02261306717992,10.03162860870361,1.36908090114594,1.83303129673004,0.80610555410385
382,2292724774,-0.16284325718880,0.66247320175171,117.21667480468750,-0.11396494507790,-0.03511076793075,10.00852584838867,1.24953925609589,1.90913164615631,0.83343601226807
383,2292733107,-0.16277545690536,0.66228342056274,117.21707153320312,-0.10467586666346,-0.01801001094282,10.02328872680664,1.32607436180115,1.75275647640228,0.87265121936798
384,2292741440,-0.16286858916283,0.66193717718124,117.21765899658203,-0.13112741708755,-0.00616107275710,9.99058818817139,1.29754030704498,1.74017977714539,0.78133660554886
385,2292749773,-0.16287766396999,0.66163563728333,117.21833038330078,-0.10503217577934,-0.01516221556813,10.01272392272949,1.31582891941071,1.73953974246979,0.90712809562683
386,2292758106,-0.16259333491325,0.66222822666168,117.21971130371094,-0.13868772983551,-0.02315984852612,10.00665473937988,1.34239077568054,1.85203719139099,0.85666805505753
387,2292766439,-0.16314464807510,0.66110420227051,117.21974945068359,-0.12326651811600,-0.01428428199142,10.01161861419678,1.25163972377777,1.64297401905060,0.83195042610168
388,2292774772,-0.16369196772575,0.66109305620193,117.22089385986328,-0.12235757708549,-0.00618925970048,10.00035285949707,1.24193179607391,1.77903664112091,0.86086881160736
389,2292783105,-0.16403427720070,0.66078257560730,117.22101593017578,-0.10586525499821,-0.01831261254847,10.02364444732666,1.27645969390869,1.73807942867279,0.84114581346512
390,2292791438,-0.16401378810406,0.65999734401703,117.22232818603516,-0.12107442319393,-0.01093649677932,9.98867511749268,1.31096231937408,1.68664634227753,0.84982919692993
391,2292799771,-0.16450557112694,0.66007101535797,117.22168731689453,-0.10996670275927,-0.02416204847395,9.99306011199951,1.25945186614990,1.78595221042633,0.74814051389694
392,2292808104,-0.16472584009171,0.66012138128281,117.22334289550781,-0.12027825415134,-0.02220640704036,10.01438903808594,1.28099346160889,1.78687465190887,0.87244641780853
393,2292816437,-0.16436532139778,0.66007453203201,117.22268676757812,-0.11600279062986,-0.02862437069416,9.98064231872559,1.36093533039093,1.77043020725250,0.74903696775436
394,2292824770,-0.16572375595570,0.66140097379684,117.22463989257812,-0.12723065912724,-0.00593671388924,9.98362064361572,1.14603197574615,1.94012439250946,0.88430583477020
395,2292833103,-0.16572086513042,0.66090929508209,117.22460174560547,-0.12438219040632,-0.02339993230999,9.97461891174316,1.31805729866028,1.71679401397705,0.82288289070129
396,2292841436,-0.16548396646976,0.66206943988800,117.22481536865234,-0.12058367580175,-0.02739907056093,9.99970531463623,1.33619225025177,1.91930043697357,0.75856554508209
397,2292849769,-0.16560417413712,0.66176009178162,117.22484588623047,-0.12099230289459,-0.01070728432387,10.00059604644775,1.30358529090881,1.74035930633545,0.82782649993896
398,2292858102,-0.16515420377254,0.66278374195099,117.22583007812500,-0.11891701817513,-0.04372114315629,10.02967739105225,1.36270284652710,1.90216434001923,0.84112030267715
399,2292866435,-0.16546353697777,0.66166096925735,117.22557067871094,-0.11376819014549,-0.04265062138438,9.97146701812744,1.28002023696899,1.64274334907532,0.79424619674683
400,2292874768,-0.16545976698399,0.66218024492264,117.22666168212891,-0.11726041138172,-0.02729914709926,10.00532722473145,1.30975818634033,1.84268796443939,0.88338369131088
401,2292883101,-0.16585886478424,0.66245961189270,117.22723388671875,-0.11842673271894,-0.01954897493124,10.01053333282471,1.26880121231079,1.80972266197205,0.89731794595718
402,2292891434,-0.16596885025501,0.66147649288177,117.22737121582031,-0.13338212668896,-0.00347734615207,9.99331283569336,1.29520940780640,1.66100633144379,0.76481544971466
403,2292899767,-0.16592468321323,0.66238361597061,117.22738647460938,-0.12644319236279,-0.01424477808177,10.00450134277344,1.32359015941620,1.88633477687836,0.82985007762909
404,2292908100,-0.16580781340599,0.66229510307312,117.22769927978516,-0.11638863384724,-0.00775581458583,10.02392864227295,1.32215547561646,1.76909828186035,0.77191054821014
405,2292916433,-0.16637782752514,0.66283637285233,117.22763061523438,-0.12397498637438,-0.01055652182549,9.98311424255371,1.25076878070831,1.84176588058472,0.81952738761902
406,2292924766,-0.16664327681065,0.66319459676743,117.22866821289062,-0.10980803519487,-0.02045418135822,10.00982666015625,1.27548635005951,1.82270872592926,0.81007575988770
407,2292933099,-0.16659891605377,0.66387861967087,117.22891235351562,-0.10081860423088,-0.00691020535305,10.02670001983643,1.32323133945465,1.85787725448608,0.85564357042313
408,2292941432,-0.16712369024754,0.66466289758682,117.23027801513672,-0.10747914016247,-0.00214787898585,10.01308727264404,1.24423694610596,1.87501311302185,0.86553049087524
409,2292949765,-0.16676127910614,0.66488057374954,117.22994995117188,-0.12123139947653,-0.03189930319786,9.99971199035645,1.36165285110474,1.80170536041260,0.78761219978333
410,2292958098,-0.16619528830051,0.66507112979889,117.22985839843750,-0.11810845136642,-0.02088590525091,10.00139904022217,1.37686753273010,1.80313968658447,0.75062507390976
411,2292966431,-0.16619254648685,0.66401505470276,117.22984313964844,-0.12132833898067,-0.02215115539730,10.00529003143311,1.31813406944275,1.64976155757904,0.82421481609344
412,2292974764,-0.16609065234661,0.66414719820023,117.23072814941406,-0.12117929756641,-0.03294060006738,10.01027011871338,1.32100296020508,1.79537868499756,0.80871826410294
413,2292983097,-0.16563434898853,0.66479325294495,117.23131561279297,-0.11828540265560,-0.04268574342132,10.00624370574951,1.37187290191650,1.85521340370178,0.89785569906235
414,2292991430,-0.16644677519798,0.66419774293900,117.23255920410156,-0.12350511550903,-0.01423993334174,9.98898124694824,1.21045196056366,1.70688140392303,0.86706745624542
415,2292999763,-0.16642875969410,0.66364878416061,117.23241424560547,-0.12396946549416,-0.00939742475748,10.00555992126465,1.31903052330017,1.71156871318817,0.80705326795578
416,2293008096,-0.16655674576759,0.66406714916229,117.23269653320312,-0.10998365283012,-0.01352423895150,9.98747825622559,1.29341638088226,1.82865142822266,0.75823265314102
417,2293016429,-0.16752880811691,0.66453123092651,117.23294830322266,-0.11584836989641,-0.03963850811124,10.00422573089600,1.20107710361481,1.83333873748779,0.85654008388519
418,2293024762,-0.16724860668182,0.66397565603256,117.23364257812500,-0.12892903387547,-0.03699976205826,9.98268127441406,1.34282624721527,1.71215784549713,0.79363149404526
419,2293033095,-0.16812565922737,0.66415333747864,117.23350524902344,-0.10443599522114,-0.01400011498481,10.01339530944824,1.21268022060394,1.79829859733582,0.80930733680725
420,2293041428,-0.16773951053619,0.66465300321579,117.23413085937500,-0.13324095308781,-0.01550099533051,9.99969482421875,1.35466015338898,1.83894836902618,0.84670412540436
421,2293049761,-0.16821101307869,0.66506987810135,117.23380279541016,-0.11285245418549,-0.03211139515042,9.96677875518799,1.26068127155304,1.82744741439819,0.78774011135101
422,2293058094,-0.16809155046940,0.66571849584579,117.23432159423828,-0.12029297649860,-0.02288603223860,9.96374797821045,1.32351315021515,1.85698091983795,0.82457345724106
423,2293066427,-0.16772815585136,0.66499006748199,117.23400878906250,-0.12034410983324,-0.03031194396317,9.98514938354492,1.36247241497040,1.69007861614227,0.78587031364441
424,2293074760,-0.16766975820065,0.66459101438522,117.23529815673828,-0.10935252159834,-0.02252307161689,9.99904823303223,1.31536781787872,1.73024141788483,0.85395294427872
425,2293083093,-0.16716577112675,0.66463035345078,117.23462677001953,-0.12450123578310,-0.00937187019736,9.96894645690918,1.37866067886353,1.78167498111725,0.74524617195129
426,2293091426,-0.16782447695732,0.66553390026093,117.23561859130859,-0.11987529695034,-0.01659875921905,9.99823665618896,1.23081517219543,1.88820457458496,0.76384210586548
427,2293099759,-0.16757665574551,0.66630125045776,117.23601531982422,-0.12940546870232,-0.02993466518819,9.98765182495117,1.34577178955078,1.86845588684082,0.87470048666000
428,2293108092,-0.16713459789753,0.66795521974564,117.23677062988281,-0.10790676623583,-0.02828587219119,10.00142383575439,1.36231875419617,1.97698354721069,0.80541402101517
429,2293116425,-0.16743026673794,0.66812169551849,117.23713684082031,-0.10474337637424,-0.00911438185722,10.03574085235596,1.28165936470032,1.79768383502960,0.87075591087341
430,2293124758,-0.16721102595329,0.66872829198837,117.23842620849609,-0.11084799468517,-0.00542037701234,9.98707962036133,1.33457851409912,1.85183250904083,0.86163735389709
431,2293133091,-0.16789531707764,0.66875863075256,117.23880767822266,-0.12958809733391,-0.02446385659277,9.98892974853516,1.23509275913239,1.77929282188416,0.87216466665268
432,2293141424,-0.16787610948086,0.66849821805954,117.24031066894531,-0.10755883902311,-0.02945141680539,10.01260280609131,1.31042444705963,1.74824845790863,0.80543971061707
433,2293149757,-0.16824975609779,0.66807812452316,117.23981475830078,-0.11660399287939,-0.03161131963134,10.00295925140381,1.27415454387665,1.72629690170288,0.76814526319504
434,2293158090,-0.16832745075226,0.66792070865631,117.24085235595703,-0.10397513955832,-0.00616800459102,10.00996971130371,1.29956376552582,1.76021015644073,0.88653421401978
435,2293166423,-0.16799114644527,0.66791230440140,117.24024200439453,-0.12489067018032,-0.03044969961047,10.01386642456055,1.35863041877747,1.77606558799744,0.75277680158615
436,2293174756,-0.16795274615288,0.66924130916595,117.24047088623047,-0.11689250916243,-0.01245761103928,9.99328041076660,1.31216621398926,1.93910014629364,0.80738639831543
437,2293183089,-0.16761001944542,0.66903579235077,117.24033355712891,-0.08958546072245,-0.01571721769869,10.01747512817383,1.35957789421082,1.75224423408508,0.81145894527435
438,2293191422,-0.16740728914738,0.66907435655594,117.24073028564453,-0.11782422661781,-0.02755616046488,10.01021289825439,1.33309280872345,1.78421080112457,0.77242285013199
439,2293199755,-0.16677848994732,0.67100805044174,117.24060821533203,-0.13303199410439,-0.02645635604858,9.99215698242188,1.39441347122192,2.00782322883606,0.81089550256729
440,2293208088,-0.16606459021568,0.67135679721832,117.24181365966797,-0.12301129102707,-0.01368613541126,9.99634838104248,1.39382410049438,1.82037818431854,0.84842038154602
441,2293216421,-0.16622133553028,0.67170679569244,117.24176788330078,-0.11503882706165,-0.01202987041324,9.99942398071289,1.29846227169037,1.82009625434875,0.81988590955734
442,2293224754,-0.16599066555500,0.67182648181915,117.24264526367188,-0.12426708638668,-0.01465944573283,10.00644969940186,1.33644831180573,1.79381597042084,0.80515784025192
443,2293233087,-0.16564948856831,0.67270702123642,117.24209594726562,-0.10865635424852,-0.00737973768264,9.99509048461914,1.35957801342010,1.88172423839569,0.75997436046600
444,2293241420,-0.16570627689362,0.67264276742935,117.24234008789062,-0.12476646900177,-0.03529604896903,10.00175094604492,1.30179226398468,1.77148044109344,0.79752480983734
445,2293249753,-0.16601945459843,0.67230153083801,117.24227142333984,-0.12229540944099,-0.01063325349241,9.96880149841309,1.27996897697449,1.73674774169922,0.81747835874557
446,2293258086,-0.16560214757919,0.67307221889496,117.24269866943359,-0.12063498049974,-0.01876281574368,10.00716400146484,1.36001348495483,1.87099182605743,0.77695661783218
447,2293266419,-0.16600520908833,0.67331683635712,117.24190521240234,-0.11839817464352,-0.01287076342851,10.01292991638184,1.27049160003662,1.80572652816772,0.73172175884247
448,2293274752,-0.16603149473667,0.67336177825928,117.24174499511719,-0.11845222860575,-0.01355588249862,10.00601863861084,1.30599296092987,1.78467178344727,0.76107573509216
449,2293283085,-0.16581034660339,0.67368996143341,117.24181365966797,-0.12659637629986,-0.03606645390391,9.99643039703369,1.34377396106720,1.81635665893555,0.83264195919037
450,2293291418,-0.16646468639374,0.67363625764847,117.24156188964844,-0.13368250429630,-0.01179738808423,9.99573040008545,1.22999548912048,1.77160847187042,0.79007107019424
451,2293299751,-0.16690866649151,0.67321306467056,117.24178314208984,-0.11774350702763,-0.00481910351664,9.98257827758789,1.26452362537384,1.72739827632904,0.85321009159088
452,2293308084,-0.16682443022728,0.67356574535370,117.24259948730469,-0.10055412352085,-0.00243527186103,10.00331020355225,1.31792914867401,1.82022428512573,0.82769840955734
453,2293316417,-0.16723732650280,0.67481297254562,117.24226379394531,-0.11759416013956,-0.02725645154715,10.00403118133545,1.26923668384552,1.92654895782471,0.78400051593781
454,2293324750,-0.16691625118256,0.67520064115524,117.24347686767578,-0.13708439469337,-0.01921437680721,9.97740840911865,1.34561824798584,1.82552647590637,0.88999217748642
455,2293333083,-0.16625913977623,0.67627787590027,117.24340820312500,-0.11368816345930,-0.02840410359204,10.01664352416992,1.39656484127045,1.90651857852936,0.81881022453308
456,2293341416,-0.16687978804111,0.67636007070541,117.24470520019531,-0.12351003289223,-0.02491265907884,10.02862930297852,1.23340213298798,1.78879559040070,0.87997698783875
457,2293349749,-0.16735081374645,0.67627531290054,117.24472045898438,-0.11274091154337,-0.01922798715532,9.99650669097900,1.26055324077606,1.76605021953583,0.82836437225342
458,2293358082,-0.16698268055916,0.67629474401474,117.24546051025391,-0.12138271331787,-0.03885937854648,9.97736644744873,1.35327672958374,1.78021490573883,0.79714053869247
459,2293366415,-0.16619841754436,0.67725211381912,117.24555206298828,-0.12416037917137,-0.03030683845282,10.01188659667969,1.41152369976044,1.89222598075867,0.83850765228271
460,2293374748,-0.16545636951923,0.67811679840088,117.24613952636719,-0.10992276668549,-0.02196664363146,10.01144409179688,1.39769220352173,1.88264644145966,0.87262582778931
461,2293383081,-0.16530680656433,0.67839491367340,117.24613952636719,-0.11223632097244,-0.03800016269088,10.01502132415771,1.33601295948029,1.81000423431396,0.82605910301208
462,2293391414,-0.16577470302582,0.67902857065201,117.24701690673828,-0.08977717906237,-0.03029235638678,9.99339294433594,1.25217747688293,1.85480368137360,0.81901514530182
463,2293399747,-0.16569003462791,0.67946606874466,117.24658966064453,-0.10428448766470,-0.03225351870060,9.98305511474609,1.32814931869507,1.82939422130585,0.77539408206940
464,2293408080,-0.16536585986614,0.68024784326553,117.24750518798828,-0.11131253093481,-0.00224660057575,9.98542022705078,1.34712946414948,1.87270796298981,0.83551073074341
465,2293416413,-0.16558483242989,0.68076372146606,117.24813842773438,-0.10746464133263,-0.02230773493648,10.01233100891113,1.29095768928528,1.83789825439453,0.90438747406006
466,2293424746,-0.16500684618950,0.68118864297867,117.24812316894531,-0.10581552237272,-0.03194980323315,9.98798370361328,1.37871193885803,1.83126401901245,0.81138211488724
467,2293433079,-0.16421072185040,0.68157368898392,117.24755859375000,-0.12309680134058,-0.02644059807062,10.01736545562744,1.41457176208496,1.82299077510834,0.75969266891479
468,2293441412,-0.16384036839008,0.68337619304657,117.24918365478516,-0.12631979584694,-0.02346068061888,10.00789356231689,1.35166323184967,1.99563086032867,0.89936697483063
469,2293449745,-0.16477903723717,0.68364804983139,117.24924468994141,-0.11671543866396,-0.02333002910018,9.99475574493408,1.20576453208923,1.80931282043457,0.83300054073334
470,2293458078,-0.16400331258774,0.68395137786865,117.24995422363281,-0.11330332607031,-0.02466156519949,10.00501346588135,1.40214884281158,1.81487119197845,0.82518821954727
471,2293466411,-0.16430343687534,0.68425643444061,117.24996185302734,-0.11217545717955,-0.03899576142430,9.96811294555664,1.28181302547455,1.81359028816223,0.82928639650345
472,2293474744,-0.16496424376965,0.68403112888336,117.25087738037109,-0.11493673175573,-0.01147603522986,10.00825214385986,1.22889399528503,1.75278210639954,0.83210402727127
473,2293483077,-0.16490180790424,0.68468970060349,117.24987030029297,-0.11524872481823,-0.01522899325937,9.98863887786865,1.32686865329742,1.85611009597778,0.70682483911514
474,2293491410,-0.16460910439491,0.68448728322983,117.24967956542969,-0.12830597162247,-0.01423764042556,10.01152610778809,1.34418380260468,1.75406277179718,0.75205957889557
475,2293499743,-0.16425578296185,0.68406271934509,117.24921417236328,-0.11445203423500,-0.00624888669699,9.98698520660400,1.36183190345764,1.72657871246338,0.77252525091171
476,2293508076,-0.16439862549305,0.68395942449570,117.24898529052734,-0.12727451324463,-0.03139807283878,10.02722072601318,1.30048584938049,1.76405227184296,0.79821634292603
477,2293516409,-0.14669381082058,0.64043921232224,117.25025177001953,-0.10258404165506,-0.01907613128424,9.97765350341797,1.27948212623596,1.79043495655060,0.85659122467041
478,2293524742,-0.14558830857277,0.64025789499283,117.25035858154297,-0.10539224743843,-0.02000305056572,10.00753116607666,1.43852114677429,1.76428306102753,0.85297971963882
479,2293533075,-0.14534299075603,0.63937419652939,117.25082397460938,-0.11371444165707,-0.02505027875304,10.00563526153564,1.33908677101135,1.68628776073456,0.88159084320068
480,2293541408,-0.14576528966427,0.63904720544815,117.25172424316406,-0.12189131975174,-0.02017332985997,9.99350166320801,1.25614762306213,1.74735188484192,0.86860430240631
481,2293549741,-0.14541725814342,0.63904303312302,117.25223541259766,-0.12786909937859,-0.02264374867082,10.00457477569580,1.35189366340637,1.79135715961456,0.88417780399323
482,2293558074,-0.14445598423481,0.63956093788147,117.25282287597656,-0.12399963289499,-0.02366295829415,9.99637889862061,1.42102646827698,1.84898900985718,0.85792315006256
483,2293566407,-0.14443288743496,0.63918006420135,117.25298309326172,-0.12974998354912,-0.03450915589929,10.01391696929932,1.31516289710999,1.74630165100098,0.84611499309540
484,2293574740,-0.14465232193470,0.63843590021133,117.25361633300781,-0.11572779715061,-0.02597345411777,10.01717948913574,1.27850890159607,1.69645631313324,0.88228225708008
485,2293583073,-0.14400994777679,0.63868111371994,117.25389862060547,-0.10868890583515,-0.01035218127072,9.99288845062256,1.38880360126495,1.82060849666595,0.86214947700500
486,2293591406,-0.14369967579842,0.63941138982773,117.25451660156250,-0.09714753925800,-0.02671155892313,10.00387668609619,1.34257030487061,1.87516701221466,0.83853328227997
487,2293599739,-0.14340294897556,0.64014542102814,117.25473022460938,-0.09757595509291,-0.01758201234043,10.00343322753906,1.34679651260376,1.87898361682892,0.85180145502090
488,2293608072,-0.14298400282860,0.64067727327347,117.25517272949219,-0.11654342710972,-0.02301704511046,10.01136302947998,1.35609447956085,1.85014200210571,0.87352234125137
489,2293616405,-0.14233261346817,0.64112806320190,117.25517272949219,-0.11394695192575,-0.01748321950436,9.97271060943604,1.39039182662964,1.84683752059937,0.82490646839142
490,2293624738,-0.14267531037331,0.64111888408661,117.25521087646484,-0.12443927675486,-0.02663833089173,10.02659988403320,1.26488220691681,1.78456950187683,0.85431152582169
491,2293633071,-0.14339914917946,0.64176559448242,117.25533294677734,-0.11695711314678,-0.03701701760292,10.00124263763428,1.22379696369171,1.87083816528320,0.84263151884079
492,2293641404,-0.14348584413528,0.64229387044907,117.25541687011719,-0.12163794785738,-0.02861307375133,9.99104213714600,1.29567050933838,1.84891235828400,0.84176069498062
493,2293649737,-0.14317283034325,0.64131850004196,117.25563812255859,-0.11684635281563,-0.01817814074457,10.00781631469727,1.34899914264679,1.67506861686707,0.85187816619873
494,2293658070,-0.14338518679142,0.64124000072479,117.25524139404297,-0.11779832094908,-0.01866056025028,10.02307224273682,1.28148019313812,1.77829396724701,0.79977893829346
495,2293666403,-0.14431174099445,0.64084845781326,117.25459289550781,-0.13284181058407,-0.01896761357784,9.99013805389404,1.20148682594299,1.74540507793427,0.75008720159531
496,2293674736,-0.14390458166599,0.64225208759308,117.25440216064453,-0.12605540454388,-0.03571417555213,9.99685096740723,1.35591518878937,1.95426356792450,0.77488189935684
497,2293683069,-0.14365629851818,0.64370131492615,117.25420379638672,-0.11426059901714,-0.00221453723498,9.96955394744873,1.34151995182037,1.96576428413391,0.79972761869431
498,2293691402,-0.14339852333069,0.64364707469940,117.25492095947266,-0.11449889838696,-0.03332286700606,9.99175930023193,1.33685815334320,1.78039443492889,0.91035556793213
499,2293699735,-0.14299201965332,0.64438337087631,117.25521087646484,-0.10939387232065,-0.02005781978369,9.98044300079346,1.35975730419159,1.88090431690216,0.85928070545197
500,2293708068,-0.14329418540001,0.64399743080139,117.25503540039062,-0.11590807139874,-0.01642267778516,9.99463176727295,1.27085018157959,1.73948824405670,0.76978456974030
501,2293716401,-0.14371745288372,0.64347958564758,117.25422668457031,-0.11418645083904,-0.03440432995558,9.98233032226562,1.26188528537750,1.72947311401367,0.72690641880035
502,2293724734,-0.14319129288197,0.64264816045761,117.25408935546875,-0.12023125588894,-0.02394889295101,10.01251697540283,1.37000286579132,1.68767058849335,0.81509613990784
503,2293733067,-0.14239749312401,0.64274084568024,117.25474548339844,-0.12184339761734,-0.03604805096984,10.00102233886719,1.40550422668457,1.80285787582397,0.90402877330780
504,2293741400,-0.14242105185986,0.64203125238419,117.25439453125000,-0.11080861091614,-0.01368983928114,10.03043270111084,1.30412304401398,1.70165610313416,0.82321584224701
505,2293749733,-0.14234322309494,0.64088612794876,117.25436401367188,-0.10004235804081,-0.02245261333883,10.02395534515381,1.32072114944458,1.65347564220428,0.82342082262039
506,2293758066,-0.14187407493591,0.64120703935623,117.25436401367188,-0.11301440745592,-0.02094500884414,9.99287509918213,1.36439323425293,1.82711446285248,0.76681327819824
507,2293766399,-0.14175596833229,0.63967734575272,117.25431060791016,-0.12455809116364,-0.03380731120706,9.98394680023193,1.32627964019775,1.60703718662262,0.81786257028580
508,2293774732,-0.14159886538982,0.64011645317078,117.25394439697266,-0.12409732490778,-0.03790598362684,10.00160789489746,1.32548546791077,1.83979368209839,0.76525086164474
509,2293783065,-0.14182798564434,0.63991641998291,117.25351715087891,-0.11685457825661,-0.02431306429207,10.01468944549561,1.28475892543793,1.76920080184937,0.77585512399673
510,2293791398,-0.14102804660797,0.63963365554810,117.25424194335938,-0.13899290561676,-0.01827570796013,10.02463722229004,1.40271246433258,1.75278222560883,0.85046947002411
511,2293799731,-0.14071454107761,0.64022415876389,117.25441741943359,-0.13445571064949,-0.00521627953276,9.99097347259521,1.34864056110382,1.86133515834808,0.84803611040115
512,2293808064,-0.14088550209999,0.64013576507568,117.25486755371094,-0.09426291286945,-0.02055863104761,9.99472141265869,1.28629565238953,1.77601408958435,0.87936228513718
513,2293816397,-0.14149464666843,0.63942050933838,117.25500488281250,-0.11886087059975,-0.02227300964296,10.01815128326416,1.23906290531158,1.70642018318176,0.84012126922607
514,2293824730,-0.14135648310184,0.63975191116333,117.25476074218750,-0.12204286456108,-0.02758298628032,10.02062606811523,1.32297515869141,1.82644832134247,0.82342076301575
515,2293833063,-0.14100526273251,0.64041137695312,117.25433349609375,-0.11756957322359,-0.02284960635006,9.99712371826172,1.35396850109100,1.87086379528046,0.77557343244553
516,2293841396,-0.14029410481453,0.64108467102051,117.25457000732422,-0.11104593425989,-0.01836783252656,9.97206115722656,1.39157032966614,1.86850738525391,0.85067439079285
517,2293849729,-0.14067219197750,0.64203286170959,117.25455474853516,-0.10152444243431,-0.01549754291773,9.99029254913330,1.26623976230621,1.90567338466644,0.82385623455048
518,2293858062,-0.14059832692146,0.64177519083023,117.25453186035156,-0.10115783661604,-0.01719163358212,9.99293231964111,1.31649470329285,1.75508737564087,0.83814889192581
519,2293866395,-0.14008451998234,0.64154320955276,117.25488281250000,-0.11999625712633,-0.01877045258880,10.00223636627197,1.37241077423096,1.76469278335571,0.86778461933136
520,2293874728,-0.13979172706604,0.64116162061691,117.25451660156250,-0.11344048380852,-0.01600383222103,10.01636409759521,1.34321033954620,1.74099946022034,0.80282688140869
521,2293883061,-0.14013941586018,0.63946920633316,117.25432586669922,-0.13962426781654,-0.00886114221066,9.97545814514160,1.26931345462799,1.58862054347992,0.80210977792740
522,2293891394,-0.13948342204094,0.63920134305954,117.25479888916016,-0.09356466680765,-0.01897650584579,9.98320579528809,1.38437259197235,1.75477993488312,0.90538632869720
523,2293899727,-0.13925653696060,0.63935530185699,117.25459289550781,-0.11430523544550,-0.02359038405120,9.97771739959717,1.33906090259552,1.81023490428925,0.80070102214813
524,2293908060,-0.13831382989883,0.64093255996704,117.25448608398438,-0.12770499289036,-0.01020025368780,9.99357318878174,1.42064237594604,1.97549796104431,0.86384004354477
525,2293916393,-0.13847945630550,0.64161986112595,117.25505065917969,-0.11513846367598,-0.02377870865166,9.99545764923096,1.29031705856323,1.87416803836823,0.89288669824600
526,2293924726,-0.13836574554443,0.64121913909912,117.25485229492188,-0.12209068983793,-0.02242644689977,9.98563480377197,1.32041382789612,1.73969316482544,0.82444542646408
527,2293933059,-0.13851097226143,0.64103513956070,117.25484466552734,-0.10468476265669,-0.01006774418056,10.03182125091553,1.29505574703217,1.77012300491333,0.82441979646683
528,2293941392,-0.13816304504871,0.64031040668488,117.25427246093750,-0.12205120176077,-0.02692913450301,9.99833202362061,1.34700131416321,1.70029842853546,0.87444430589676
529,2293949725,-0.13852907717228,0.63933604955673,117.25447082519531,-0.12081847339869,-0.01568099483848,10.00154304504395,1.26877546310425,1.67358279228210,0.85059744119644
530,2293958058,-0.13794989883900,0.63916665315628,117.25444793701172,-0.11342496424913,-0.00855845492333,9.98740863800049,1.37451088428497,1.76768946647644,0.88940304517746
531,2293966391,-0.13773196935654,0.63937145471573,117.25407409667969,-0.13645578920841,-0.01511391252279,10.03568744659424,1.33895862102509,1.81615185737610,0.78400057554245
532,2293974724,-0.13785119354725,0.63921403884888,117.25377655029297,-0.08484994620085,-0.02548361569643,9.94966030120850,1.29195630550385,1.76866292953491,0.82267796993256
533,2293983057,-0.13799008727074,0.63836675882339,117.25357055664062,-0.10465816408396,-0.03063091263175,10.01494979858398,1.29605460166931,1.68995034694672,0.79903596639633
534,2293991390,-0.13786356151104,0.63943123817444,117.25341033935547,-0.12109018117189,0.01062627416104,10.01242446899414,1.32113087177277,1.91404938697815,0.85018765926361
535,2293999723,-0.13775673508644,0.63925498723984,117.25341796875000,-0.11450601369143,-0.01179939042777,10.01448917388916,1.32489621639252,1.77107059955597,0.82493203878403
536,2294008056,-0.13782173395157,0.63915169239044,117.25312042236328,-0.11968569457531,-0.00663108658046,10.00816345214844,1.29828298091888,1.77468216419220,0.87721067667007
537,2294016389,-0.13687208294868,0.63934397697449,117.25267028808594,-0.11477094888687,0.00108582992107,9.99738407135010,1.42558586597443,1.81451261043549,0.77219235897064
538,2294024722,-0.13611900806427,0.63996821641922,117.25097656250000,-0.10324224084616,-0.03326278924942,10.01261997222900,1.39925444126129,1.86353814601898,0.74803817272186
539,2294033055,-0.13506747782230,0.64007669687271,117.25167083740234,-0.11255382001400,-0.01586430333555,10.01370239257812,1.43698406219482,1.80483007431030,0.90856242179871
540,2294041388,-0.13510170578957,0.64124399423599,117.25111389160156,-0.11966382712126,-0.01686723716557,10.01710700988770,1.30197155475616,1.92642116546631,0.84980356693268
541,2294049721,-0.13526916503906,0.64047557115555,117.25139617919922,-0.12490629404783,-0.00464780256152,10.02492141723633,1.29054760932922,1.70009350776672,0.85920387506485
542,2294058054,-0.13502810895443,0.64152860641479,117.25022888183594,-0.11971906572580,-0.01390719227493,9.99370193481445,1.33678126335144,1.91425418853760,0.79529637098312
543,2294066387,-0.13441979885101,0.64100158214569,117.25016021728516,-0.09564536809921,-0.01452071964741,9.98658180236816,1.38334786891937,1.72791051864624,0.81834912300110
544,2294074720,-0.13401927053928,0.64180314540863,117.24981689453125,-0.11565446108580,-0.00938495527953,10.00606441497803,1.35394299030304,1.88354289531708,0.91015070676804
545,2294083053,-0.13356073200703,0.64065498113632,117.25026702880859,-0.12709634006023,-0.02296093478799,10.00840187072754,1.36675000190735,1.65426981449127,0.87869632244110
546,2294091386,-0.13221287727356,0.64072650671005,117.24981689453125,-0.12070783227682,-0.02648387476802,9.99719619750977,1.46672236919403,1.79484081268311,0.85871726274490
547,2294099719,-0.13084125518799,0.64214408397675,117.24987030029297,-0.14804472029209,-0.01051499135792,10.00700378417969,1.47753167152405,1.96271657943726,0.83251380920410
548,2294108052,-0.13112229108810,0.64258921146393,117.24983978271484,-0.11938184499741,-0.01280170027167,10.00450134277344,1.27215671539307,1.84015250205994,0.90651351213455
549,2294116385,-0.13144518435001,0.64245861768723,117.24925231933594,-0.09545989334583,-0.02942485734820,10.00475788116455,1.27272009849548,1.77614235877991,0.75521016120911
550,2294124718,-0.13050526380539,0.64275711774826,117.24910736083984,-0.12327621877193,-0.04395069926977,10.00668048858643,1.41890060901642,1.82324683666229,0.89667749404907
551,2294133051,-0.13045525550842,0.64296293258667,117.24919891357422,-0.13031366467476,-0.01681994833052,9.99578380584717,1.31751954555511,1.81702268123627,0.83863568305969
552,2294141384,-0.12979863584042,0.64284473657608,117.24865722656250,-0.12213495373726,-0.03083290159702,9.99164962768555,1.38480806350708,1.77227461338043,0.84429651498795
553,2294149717,-0.12993133068085,0.64299017190933,117.24812316894531,-0.09128306061029,-0.01684935018420,9.97086620330811,1.29646456241608,1.81043958663940,0.76332980394363
554,2294158050,-0.12951338291168,0.64475303888321,117.24795532226562,-0.14802938699722,-0.03675771877170,9.98972511291504,1.35650420188904,1.99826872348785,0.86307162046432
555,2294166383,-0.13037095963955,0.64551752805710,117.24736785888672,-0.10353171080351,-0.03160260245204,9.98312568664551,1.21065676212311,1.88377320766449,0.75485152006149
556,2294174716,-0.13019475340843,0.64574921131134,117.24585723876953,-0.16492480039597,-0.00817227084190,10.02433204650879,1.32835435867310,1.81458938121796,0.73589700460434
557,2294183049,-0.13017511367798,0.64494150876999,117.24546813964844,-0.08207168430090,-0.02211882919073,9.96769428253174,1.31444573402405,1.69563663005829,0.78079867362976
558,2294191382,-0.13013204932213,0.64509105682373,117.24421691894531,-0.12513834238052,-0.02096216380596,10.00285720825195,1.31280648708344,1.80470228195190,0.78633141517639
559,2294199715,-0.12938781082630,0.64547908306122,117.24384307861328,-0.12743367254734,0.01216533407569,10.00115966796875,1.40171337127686,1.83930695056915,0.78115725517273
560,2294208048,-0.12892965972424,0.64448261260986,117.24349212646484,-0.10748969018459,-0.01603354327381,9.97436428070068,1.36144769191742,1.66679513454437,0.82380497455597
561,2294216381,-0.12927193939686,0.64542990922928,117.24321746826172,-0.15065322816372,-0.03022071160376,10.00378417968750,1.27133679389954,1.90710771083832,0.79419499635696
562,2294224714,-0.12796778976917,0.64370679855347,117.24257659912109,-0.08615784347057,-0.01516071148217,9.98223400115967,1.46259844303131,1.57868218421936,0.84106910228729
563,2294233047,-0.12794601917267,0.64359050989151,117.24271392822266,-0.15939381718636,-0.01804989948869,10.04322338104248,1.31462502479553,1.77808868885040,0.84063357114792
564,2294241380,-0.12750563025475,0.64249932765961,117.24237060546875,-0.08614824712276,0.01896728947759,9.97385501861572,1.35870718955994,1.65603709220886,0.83412760496140
565,2294249713,-0.12747250497341,0.64421236515045,117.24263000488281,-0.16636146605015,-0.04367746785283,9.97175407409668,1.31608510017395,1.99808967113495,0.85671937465668
566,2294258046,-0.12729187309742,0.64301639795303,117.24186706542969,-0.05333098024130,-0.00971545372158,9.99060726165771,1.32840549945831,1.64200055599213,0.85907578468323
567,2294266379,-0.12730298936367,0.64237737655640,117.24163055419922,-0.16444775462151,-0.05226682499051,9.97978782653809,1.31065475940704,1.71518039703369,0.79936903715134
568,2294274712,-0.12762482464314,0.64312291145325,117.24055480957031,-0.11017444729805,-0.01859012246132,9.97323226928711,1.26813519001007,1.87716507911682,0.78236120939255
569,2294283045,-0.12692700326443,0.64278715848923,117.24045562744141,-0.12716801464558,0.00414043758065,10.00220489501953,1.39659059047699,1.75257730484009,0.81366181373596
570,2294291378,-0.12605534493923,0.64501041173935,117.24008941650391,-0.15993775427341,-0.01284791063517,10.04647922515869,1.40957701206207,2.05326294898987,0.86732369661331
571,2294299711,-0.12692503631115,0.64325642585754,117.24005126953125,-0.08908001333475,-0.01919472217560,9.94845581054688,1.20730125904083,1.58165347576141,0.82047516107559
572,2294308044,-0.12700064480305,0.64361077547073,117.23981475830078,-0.12482684850693,0.00023400300415,10.04015064239502,1.29715609550476,1.82893347740173,0.87949043512344
573,2294316377,-0.12689794600010,0.64463520050049,117.23965454101562,-0.11844638735056,-0.07057434320450,9.95306491851807,1.32548558712006,1.91453623771667,0.80605435371399
574,2294324710,-0.12687540054321,0.64376407861710,117.23917388916016,-0.10508793592453,0.01265463232994,9.92916202545166,1.30893850326538,1.68257331848145,0.83087450265884
575,2294333043,-0.12676282227039,0.64546227455139,117.23906707763672,-0.12454164028168,-0.03442681580782,10.03110027313232,1.32633090019226,1.99557960033417,0.81148457527161
576,2294341376,-0.12620715796947,0.64379191398621,117.23812103271484,-0.15562275052071,-0.04337596148252,9.95736408233643,1.37412679195404,1.58736526966095,0.81809294223785
577,2294349709,-0.12606686353683,0.64339435100555,117.23809814453125,-0.10405597090721,-0.02331292815506,10.01169967651367,1.32802128791809,1.74427819252014,0.82562369108200
578,2294358042,-0.12588049471378,0.64275896549225,117.23723602294922,-0.03060428984463,-0.02941993251443,10.00909423828125,1.33058261871338,1.71108210086823,0.73379659652710
579,2294366375,-0.12398002296686,0.64117985963821,117.23705291748047,-0.17794731259346,-0.00516472803429,9.97169399261475,1.54043984413147,1.60227262973785,0.80531150102615
580,2294374708,-0.12478495389223,0.64244216680527,117.23626708984375,-0.09537582099438,0.01713354885578,10.01741218566895,1.21096432209015,1.93828046321869,0.83051598072052
581,2294383041,-0.12351705133915,0.64466351270676,117.23630523681641,-0.23990185558796,0.02359277196229,10.09432601928711,1.46244490146637,2.05795001983643,0.82985001802444
582,2294391374,-0.12238475680351,0.64409112930298,117.23563385009766,-0.01784408837557,-0.05249964073300,9.90814304351807,1.44377195835114,1.71879196166992,0.85249292850494
583,2294399707,-0.12544642388821,0.64573860168457,117.23542022705078,-0.12954030930996,-0.05537972971797,10.00788497924805,0.94332093000412,1.98907339572906,0.80049604177475
584,2294408040,-0.12330878525972,0.64488172531128,117.23450469970703,-0.16384917497635,-0.02700586803257,10.04278278350830,1.56551647186279,1.68336772918701,0.79642343521118
585,2294416373,-0.12288700044155,0.64593029022217,117.23488616943359,-0.05646895989776,-0.02350342273712,9.98275279998779,1.36055135726929,1.91904413700104,0.87111449241638
586,2294424706,-0.12406449019909,0.64412540197372,117.23425292968750,-0.16935358941555,-0.04844001680613,10.04392433166504,1.16701006889343,1.56956338882446,0.80513221025467
587,2294433039,-0.12235866487026,0.64465141296387,117.23361206054688,-0.06341411173344,0.01073964405805,10.00674629211426,1.51777160167694,1.85541856288910,0.74849921464920
588,2294441372,-0.12315277755260,0.64469224214554,117.23268890380859,-0.16570153832436,0.00006220728392,10.01926422119141,1.21081042289734,1.79248416423798,0.81071615219116
589,2294449705,-0.12303616106510,0.64524149894714,117.23268890380859,-0.08497576415539,-0.06025855988264,9.98530006408691,1.32581853866577,1.85675024986267,0.82424050569534
590,2294458038,-0.12164389342070,0.64366710186005,117.23117065429688,-0.17381829023361,-0.01226301584393,10.05427265167236,1.47673749923706,1.59912216663361,0.73530775308609
591,2294466371,-0.12289325892925,0.64478564262390,117.23143005371094,-0.06480052322149,-0.03874316439033,9.92731761932373,1.16083717346191,1.92570400238037,0.85853785276413
592,2294474704,-0.12260223180056,0.64455115795135,117.23056793212891,-0.16209068894386,-0.02633416466415,9.98804759979248,1.34244215488434,1.75875031948090,0.81960427761078
593,2294483037,-0.12011245638132,0.64492875337601,117.23025512695312,-0.05649887397885,0.00242802966386,10.00878143310547,1.61146831512451,1.83792364597321,0.78830367326736
594,2294491370,-0.12090224772692,0.64505815505981,117.23001861572266,-0.17485228180885,0.04115004837513,10.07056045532227,1.21152758598328,1.80198705196381,0.82833868265152
595,2294499703,-0.12039209157228,0.64432013034821,117.22996520996094,-0.11246258020401,-0.02301800809801,9.98778247833252,1.37356317043304,1.70329535007477,0.81868219375610
596,2294508036,-0.12083916366100,0.64433884620667,117.22901153564453,-0.07288601994514,-0.06164410710335,9.95256900787354,1.25391924381256,1.79035818576813,0.76640349626541
597,2294516369,-0.11936418712139,0.64464491605759,117.22975158691406,-0.16827544569969,0.01011731568724,10.04908752441406,1.48777735233307,1.82829284667969,0.91281455755234
598,2294524702,-0.12011855095625,0.64360892772675,117.22890472412109,-0.06052631884813,-0.02426289208233,9.98291683197021,1.21839237213135,1.66241502761841,0.78256607055664
599,2294533035,-0.11951146274805,0.64404982328415,117.22924041748047,-0.20409075915813,-0.00907974783331,10.03403377532959,1.38324546813965,1.84599244594574,0.86732369661331
600,2294541368,-0.11967527121305,0.64547628164291,117.22857666015625,-0.04828902706504,-0.01955024339259,9.85476779937744,1.28808856010437,1.95654332637787,0.80892306566238
601,2294549701,-0.12096801400185,0.64458316564560,117.22863006591797,-0.07990711182356,-0.05897139385343,10.12794685363770,1.15604722499847,1.68582665920258,0.83233457803726
602,2294558034,-0.12081133574247,0.64155459403992,117.22733306884766,-0.14868271350861,0.03497390449047,10.02411365509033,1.32863593101501,1.42399787902832,0.71789020299911
603,2294566367,-0.12021314352751,0.64562350511551,117.22657775878906,-0.28303578495979,0.02839340642095,10.13698673248291,1.38475656509399,2.28028154373169,0.73830467462540
604,2294574700,-0.12034969776869,0.64511555433273,117.22649383544922,-0.02194974943995,-0.09871328622103,9.83388519287109,1.29070115089417,1.72534918785095,0.85725718736649
605,2294583033,-0.12072000652552,0.64576113224030,117.22660827636719,-0.08507527410984,-0.04419976100326,9.99712276458740,1.26600921154022,1.86873781681061,0.84032630920410
606,2294591366,-0.11982337385416,0.64829444885254,117.22550201416016,-0.19038915634155,0.04300994798541,10.12351322174072,1.41531443595886,2.09209346771240,0.80782169103622
607,2294599699,-0.11903706938028,0.64750814437866,117.22557067871094,-0.11871487647295,-0.08104477822781,9.89134025573730,1.40693855285645,1.69668686389923,0.83369207382202
608,2294608032,-0.12117835134268,0.64474409818649,117.22500610351562,-0.02834022231400,-0.07863873243332,9.94702053070068,1.05038845539093,1.45545184612274,0.85233926773071
609,2294616365,-0.11961837112904,0.64514768123627,117.22486877441406,-0.19590498507023,0.05355291441083,10.06706714630127,1.49833023548126,1.84033155441284,0.80953794717789
610,2294624698,-0.11810825765133,0.64503043889999,117.22505950927734,-0.08959664404392,-0.04994809627533,9.99657154083252,1.48854565620422,1.77189028263092,0.90016096830368
611,2294633031,-0.12028611451387,0.64728420972824,117.22507476806641,-0.10948811471462,-0.07533144205809,9.98794174194336,1.05013251304626,2.06248378753662,0.82792896032333
612,2294641364,-0.11831247061491,0.64740443229675,117.22522735595703,-0.11696337908506,0.00372754689306,10.04658985137939,1.54407739639282,1.80239713191986,0.92111355066299
613,2294649697,-0.11751802265644,0.64773380756378,117.22509002685547,-0.16518138349056,0.02527872286737,10.00327777862549,1.40757918357849,1.83049583435059,0.80787301063538
614,2294658030,-0.11917173862457,0.64748919010162,117.22384643554688,-0.05372657626867,-0.04331918433309,9.97050285339355,1.11019778251648,1.75808393955231,0.76176726818085
615,2294666363,-0.11761821806431,0.64679700136185,117.22402191162109,-0.17202496528625,-0.03405917808414,9.99968624114990,1.49733138084412,1.70905876159668,0.84550034999847
616,2294674696,-0.11789491027594,0.64730793237686,117.22395324707031,-0.06159109994769,-0.00373752601445,9.95800876617432,1.27474379539490,1.84822082519531,0.90984332561493
617,2294683029,-0.11911779642105,0.64753615856171,117.22438049316406,-0.14719285070896,-0.00858055520803,10.01664257049561,1.16426932811737,1.81907165050507,0.87626296281815
618,2294691362,-0.11675338447094,0.64882558584213,117.22418975830078,-0.09903416037560,-0.03020988032222,10.02765464782715,1.59151482582092,1.94240438938141,0.89047884941101
619,2294699695,-0.11605111509562,0.64866596460342,117.22394561767578,-0.11839940398932,-0.00405693845823,10.01264286041260,1.39505386352539,1.77268445491791,0.79557812213898
620,2294708028,-0.11841382831335,0.64799350500107,117.22357177734375,-0.13749004900455,-0.02746564522386,9.98892688751221,1.02477443218231,1.70670223236084,0.83697074651718
621,2294716361,-0.11666417121887,0.64631015062332,117.22393035888672,-0.09971054643393,-0.02860704809427,9.99381446838379,1.52076816558838,1.58928644657135,0.86809200048447
622,2294724694,-0.11716694384813,0.64583694934845,117.22305297851562,-0.11088909208775,0.00099942402449,10.03374290466309,1.24866843223572,1.72983169555664,0.81263726949692
623,2294733027,-0.11771803349257,0.64629650115967,117.22258758544922,-0.11096237599850,-0.03659816086292,10.01484870910645,1.24505674839020,1.84783637523651,0.77057856321335
624,2294741360,-0.11609167605639,0.64659631252289,117.22190856933594,-0.11966338008642,-0.01823150180280,10.02480411529541,1.50368368625641,1.82263219356537,0.84286212921143
625,2294749693,-0.11626737564802,0.64724242687225,117.22282409667969,-0.07891760021448,0.00970602687448,9.97613143920898,1.29016339778900,1.86935257911682,0.93458652496338
626,2294758026,-0.11688369512558,0.64929777383804,117.22209930419922,-0.13539385795593,-0.05599195510149,10.02471733093262,1.23276197910309,2.03446197509766,0.84734457731247
627,2294766359,-0.11545877158642,0.64808034896851,117.22245025634766,-0.09889134019613,-0.00864883884788,9.99718189239502,1.48321795463562,1.64540719985962,0.87019234895706
628,2294774692,-0.11624543368816,0.64955145120621,117.22193145751953,-0.13158652186394,-0.00755506800488,10.03163719177246,1.21301329135895,1.96366429328918,0.83512657880783
629,2294783025,-0.11601608991623,0.65048253536224,117.22232818603516,-0.14157107472420,-0.03684698417783,10.02885246276855,1.33944511413574,1.90347063541412,0.87398326396942
630,2294791358,-0.11461723595858,0.65296959877014,117.22183990478516,-0.07489454001188,-0.03006476722658,9.96281051635742,1.47591793537140,2.08615159988403,0.84455263614655
631,2294799691,-0.11488980054855,0.65107721090317,117.22167205810547,-0.17601193487644,-0.01204475015402,10.04017448425293,1.27943098545074,1.56528592109680,0.80561882257462
632,2294808024,-0.11606963723898,0.65098458528519,117.22108459472656,-0.08285394310951,-0.01822129450738,9.98006629943848,1.16570377349854,1.77598845958710,0.86243122816086
633,2294816357,-0.11614579707384,0.65006035566330,117.22077178955078,-0.08265633136034,-0.05344445630908,9.94978618621826,1.30355966091156,1.68034517765045,0.78745841979980
634,2294824690,-0.11587747931480,0.65101426839828,117.22004699707031,-0.13331869244576,-0.00267107225955,10.03275489807129,1.34062349796295,1.90208733081818,0.82144856452942
635,2294833023,-0.11631938815117,0.65261429548264,117.21984100341797,-0.10649183392525,0.00689248135313,9.99355125427246,1.25947761535645,1.98502635955811,0.80464559793472
636,2294841356,-0.11536251008511,0.65288013219833,117.21924591064453,-0.14495892822742,-0.02187647670507,10.00476741790771,1.42133378982544,1.81868755817413,0.88287144899368
637,2294849689,-0.11447183787823,0.65202814340591,117.21939086914062,-0.12897649407387,-0.00722524989396,9.99869346618652,1.41972017288208,1.68930995464325,0.84293872117996
638,2294858022,-0.11548013240099,0.65228217840195,117.21881866455078,-0.12010376155376,-0.02781955339015,10.02035427093506,1.18757832050323,1.81727862358093,0.81883585453033
639,2294866355,-0.11339138448238,0.65172249078751,117.21916198730469,-0.12359961867332,-0.02834466658533,10.01484870910645,1.56093144416809,1.72499060630798,0.86755406856537
640,2294874688,-0.11326412111521,0.65023756027222,117.21821594238281,-0.10364192724228,0.01167681533843,9.97430229187012,1.32453775405884,1.61059761047363,0.76233088970184
641,2294883021,-0.11588472872972,0.64910334348679,117.21826171875000,-0.11456188559532,-0.01545592397451,9.98979473114014,0.99723911285400,1.65567851066589,0.83090013265610
642,2294891354,-0.11377517133951,0.64838659763336,117.21734619140625,-0.10303694009781,-0.05169344320893,9.96147155761719,1.56085479259491,1.70106685161591,0.79985576868057
643,2294899687,-0.11236332356930,0.64836066961288,117.21656799316406,-0.11389327794313,-0.01249659061432,10.00197219848633,1.48250067234039,1.78907752037048,0.73333561420441
644,2294908020,-0.11274321377277,0.64828205108643,117.21648406982422,-0.14127708971500,-0.00191213493235,10.03975486755371,1.26211571693420,1.77865231037140,0.87698012590408
645,2294916353,-0.11176549643278,0.64882975816727,117.21632385253906,-0.07120339572430,-0.05215111374855,9.93520355224609,1.42960727214813,1.85675024986267,0.80549091100693
646,2294924686,-0.10986144840717,0.64949482679367,117.21623992919922,-0.05014557763934,-0.00390342040919,10.03034782409668,1.53659796714783,1.86786675453186,0.89145219326019
647,2294933019,-0.11072693765163,0.65008950233459,117.21617126464844,-0.18345004320145,-0.00317240133882,10.02931118011475,1.20771121978760,1.86310255527496,0.81919443607330
648,2294941352,-0.11213730275631,0.64543879032135,117.21453094482422,-0.20586742460728,-0.01660604216158,9.97566318511963,1.13980805873871,1.22920167446136,0.74268478155136
649,2294949685,-0.11347574740648,0.64923810958862,117.21384429931641,-0.20782151818275,-0.05492240190506,9.90966033935547,1.15187215805054,2.24834060668945,0.74396544694901
650,2294958018,-0.11259420216084,0.64729124307632,117.21297454833984,-0.04400438070297,0.03613181784749,9.89576244354248,1.41528892517090,1.55286300182343,0.81532669067383
651,2294966351,-0.11126163601875,0.64770436286926,117.21261596679688,-0.12858232855797,-0.14180761575699,10.08024311065674,1.47251105308533,1.84220123291016,0.78218179941177
652,2294974684,-0.11150418221951,0.64896279573441,117.21240234375000,-0.13549374043941,0.05234085768461,10.10427761077881,1.27832961082458,1.93774259090424,0.84032630920410
653,2294983017,-0.10971882939339,0.64918142557144,117.21279907226562,-0.08780532330275,-0.03712572157383,10.08947181701660,1.52653181552887,1.81779122352600,0.87260019779205
654,2294991350,-0.10855836421251,0.64938807487488,117.21276855468750,-0.07941772043705,-0.01868879608810,9.93927574157715,1.44697380065918,1.81210470199585,0.83643293380737
655,2294999683,-0.10880053788424,0.64978158473969,117.21299743652344,-0.16311664879322,-0.00501898908988,10.02138423919678,1.28319644927979,1.83953773975372,0.85351765155792
656,2295008016,-0.10733168572187,0.64941048622131,117.21331787109375,-0.10530707985163,-0.02102951705456,9.94783592224121,1.48396062850952,1.74340724945068,0.81596702337265
657,2295016349,-0.10735041648149,0.64995819330215,117.21353149414062,-0.06453849375248,-0.08948243409395,9.91790199279785,1.31039857864380,1.85669898986816,0.85313326120377
658,2295024682,-0.10735377669334,0.64809548854828,117.21347808837891,-0.15531167387962,-0.00804490875453,10.00270938873291,1.30760669708252,1.56474816799164,0.82700681686401
659,2295033015,-0.10770692676306,0.65015125274658,117.21306610107422,-0.10639329254627,-0.02280724234879,10.04360294342041,1.26990258693695,2.03832960128784,0.77698218822479
660,2295041348,-0.10644779354334,0.65323895215988,117.21235656738281,-0.12399073690176,-0.01835166662931,10.05383682250977,1.46116411685944,2.15869092941284,0.73976475000381
661,2295049681,-0.10666970163584,0.65052908658981,117.21273040771484,-0.02885029092431,0.01616753451526,9.90316295623779,1.28511738777161,1.46615886688232,0.86947518587112
662,2295058014,-0.10982288420200,0.65085297822952,117.21240234375000,-0.27920579910278,0.01182975620031,10.00395774841309,0.93056523799896,1.82747328281403,0.82523941993713
663,2295066347,-0.10560669749975,0.64994078874588,117.21342468261719,-0.06670525670052,-0.02086498588324,9.95915699005127,1.81668972969055,1.68254792690277,0.94831573963165
664,2295074680,-0.10506538301706,0.64786821603775,117.21339416503906,-0.01935856416821,-0.02986741065979,9.97683620452881,1.37294852733612,1.53810918331146,0.86107367277145
665,2295083013,-0.10880038887262,0.64622408151627,117.21238708496094,-0.13709102571011,0.01643159799278,10.07281589508057,0.86422425508499,1.59476792812347,0.70393037796021
666,2295091346,-0.10618508607149,0.64690291881561,117.21228027343750,-0.01476564351469,-0.04957072436810,9.88777160644531,1.62371206283569,1.86986458301544,0.86504399776459
667,2295099679,-0.10440979152918,0.64787960052490,117.21228790283203,-0.24705934524536,0.02318707667291,10.04852581024170,1.52468729019165,1.90946435928345,0.82736539840698
668,2295108012,-0.10622459650040,0.64752650260925,117.21195983886719,-0.15822471678257,-0.00518563948572,10.06477928161621,1.08942461013794,1.74440622329712,0.85920387506485
669,2295116345,-0.10592868179083,0.64840859174728,117.21166229248047,-0.01279619056731,-0.08961474895477,9.95780086517334,1.34787237644196,1.89760506153107,0.78786832094193
670,2295124678,-0.10434982925653,0.64785379171371,117.21159362792969,-0.12184020131826,0.00186408928130,9.97201442718506,1.49825322628021,1.72166049480438,0.89183628559113
671,2295133011,-0.10698382556438,0.64880812168121,117.21237182617188,-0.15138810873032,-0.02030249126256,9.99693679809570,0.99483126401901,1.90590393543243,0.92116469144821
672,2295141344,-0.10536554455757,0.64869385957718,117.21195220947266,-0.13005946576595,0.01957321725786,10.02387809753418,1.50219798088074,1.77393937110901,0.83443492650986
673,2295149677,-0.10266403853893,0.64894020557404,117.21155548095703,-0.10350680351257,0.00062488147523,9.97931957244873,1.63628864288330,1.82263219356537,0.77877521514893
674,2295158010,-0.10599595308304,0.64936226606369,117.20981597900391,-0.11153290420771,-0.03216511011124,9.99268627166748,0.90963840484619,1.83753967285156,0.75293052196503
675,2295166343,-0.10207093507051,0.65101593732834,117.21033477783203,-0.13952909410000,-0.03160515800118,9.98076534271240,1.78205931186676,1.99055898189545,0.88817358016968
676,2295174676,-0.10039652884007,0.65132099390030,117.20946502685547,-0.09703410416842,0.01406912691891,10.00331020355225,1.50980567932129,1.82337498664856,0.81051123142242
677,2295183009,-0.10393027961254,0.65183722972870,117.20954132080078,-0.06721807271242,-0.00085640378529,10.04141616821289,0.88786625862122,1.85416328907013,0.83886623382568
678,2295191342,-0.10145050287247,0.65363878011703,117.20962524414062,-0.05179251357913,-0.09518588334322,9.99977779388428,1.60524404048920,2.00515913963318,0.89800935983658
679,2295199675,-0.10044142603874,0.65395092964172,117.20925903320312,-0.17206098139286,0.01964730396867,9.98028850555420,1.43352639675140,1.82790863513947,0.78041452169418
680,2295208008,-0.10270413011312,0.65179121494293,117.20800018310547,-0.19803234934807,-0.00125892017968,10.07517147064209,1.03834986686707,1.53009200096130,0.79767858982086
681,2295216341,-0.10159551352262,0.65161031484604,117.20853424072266,-0.11024691909552,-0.03543828055263,9.99083137512207,1.44284999370575,1.76876556873322,0.88922381401062
682,2295224674,-0.10178044438362,0.65122008323669,117.20753479003906,-0.14791235327721,0.00673632184044,9.97333908081055,1.28847277164459,1.74202406406403,0.81276524066925
683,2295233007,-0.10426014661789,0.65155643224716,117.20801544189453,-0.13368327915668,-0.04119297116995,10.03399944305420,1.01194155216217,1.83246779441833,0.88261526823044
684,2295241340,-0.10262958705425,0.65186971426010,117.20790863037109,-0.10916224867105,-0.01947805844247,9.97768878936768,1.50360691547394,1.82396399974823,0.93737858533859
685,2295249673,-0.10164822638035,0.65208750963211,117.20753479003906,-0.11119968444109,-0.01905213296413,10.02310371398926,1.42970979213715,1.81853401660919,0.78415423631668
686,2295258006,-0.10459627956152,0.65273672342300,117.20645904541016,-0.10533957183361,-0.04042151570320,9.97724533081055,0.95576953887939,1.86512601375580,0.78943073749542
687,2295266339,-0.10284043848515,0.65231692790985,117.20644378662109,-0.10570994019508,-0.02926444634795,10.01002788543701,1.52363729476929,1.74138391017914,0.82434302568436
688,2295274672,-0.10242375731468,0.65339016914368,117.20644378662109,-0.14582358300686,0.04999496415257,10.02048873901367,1.35806655883789,1.91809618473053,0.89332199096680
689,2295283005,-0.10485021024942,0.65381741523743,117.20627593994141,-0.13127444684505,-0.02565591596067,10.00647354125977,1.02082967758179,1.84232938289642,0.80833399295807
690,2295291338,-0.10219138860703,0.65614163875580,117.20610046386719,-0.11158759146929,-0.05722907930613,9.96628570556641,1.62839937210083,2.06627488136292,0.85853797197342
691,2295299671,-0.09965588897467,0.65738636255264,117.20694732666016,-0.11072509735823,-0.00784194469452,10.00342559814453,1.61349177360535,1.94122576713562,0.92833667993546
