sep=,
DeviceTag:,left leg
FirmwareVersion:,2.2.1
AppVersion:,2023.6.0
StartTime: ,2025-04-02_17:15:41_000 PDT
© Movella Technologies B. V. 2005-2025

PacketCounter,SampleTimeFine,Euler_X,Euler_Y,Euler_Z,Acc_X,Acc_Y,Acc_Z,Gyr_X,Gyr_Y,Gyr_Z
0,2395352348,-0.04437791556120,0.71174228191376,118.99770355224609,0.00000000000000,0.00000000000000,0.00000000000000,0.00000000000000,0.00000000000000,0.00000000000000
1,2395360681,-0.03445816785097,0.72713136672974,119.00435638427734,-0.11280581355095,-0.04159152507782,10.00150012969971,1.18029093742371,1.84587705135345,0.79981726408005
2,2395369014,-0.04972915351391,0.73440861701965,119.01712799072266,-0.11182573437691,-0.02868081256747,10.01612186431885,1.28021240234375,1.62287938594818,0.78529399633408
3,2395377347,-0.03733787685633,0.74959915876389,119.02381896972656,-0.13597631454468,-0.03239160403609,9.99408912658691,1.47536730766296,1.82279860973358,0.80337774753571
4,2395385680,-0.05485550686717,0.75759929418564,119.03223419189453,-0.11124430596828,-0.02838563360274,9.99595069885254,1.35892474651337,1.71465516090393,0.79512983560562
5,2395394013,-0.04429133608937,0.77283418178558,119.03884887695312,-0.12300039827824,-0.01729607209563,10.01603317260742,1.25733864307404,1.82784450054169,0.79489928483963
6,2395402346,-0.05259463563561,0.77670109272003,119.05070495605469,-0.11638179421425,-0.01360237598419,10.00686359405518,1.39668011665344,1.81137454509735,0.82625120878220
7,2395410679,-0.04202897101641,0.79010951519012,119.05747985839844,-0.12461151927710,-0.02977514639497,9.99770832061768,1.25554561614990,1.60817694664001,0.81313663721085
8,2395419012,-0.04583901539445,0.79312586784363,119.09369659423828,-0.10855584591627,-0.02989572286606,9.98492717742920,1.30312418937683,1.70163047313690,0.84593570232391
9,2395427345,-0.03551418706775,0.80722266435623,119.10057830810547,-0.12207502126694,-0.01881749182940,9.98849487304688,1.22775423526764,1.69019365310669,0.82940173149109
10,2395435678,-0.03757771477103,0.80883747339249,119.13037109375000,-0.12091964483261,-0.00780881382525,10.01410770416260,1.23912703990936,1.71155583858490,0.87038457393646
11,2395444011,-0.02660293504596,0.82343947887421,119.13707733154297,-0.11231271177530,-0.01707632839680,9.98485469818115,1.30654382705688,1.75238502025604,0.80650258064270
12,2395452344,-0.02436396852136,0.82581621408463,119.15706634521484,-0.13132767379284,-0.02802832983434,9.96648597717285,1.25408565998077,1.75894200801849,0.78834211826324
13,2395460677,-0.01307743322104,0.84224081039429,119.16430664062500,-0.11739428341389,-0.02810226194561,9.98851108551025,1.34263420104980,1.97046482563019,0.87015396356583
14,2395469010,-0.01188089046627,0.84614455699921,119.19570922851562,-0.10394603013992,-0.00953742396086,10.00315189361572,1.21141254901886,1.74923443794250,0.81615918874741
15,2395477343,-0.00055981875630,0.86226129531860,119.20208740234375,-0.12484535574913,-0.02419191598892,10.02140617370605,1.34780824184418,1.93422055244446,0.76531493663788
16,2395485676,0.00261052371934,0.86607182025909,119.21965789794922,-0.11840187013149,-0.01861142925918,9.99943828582764,1.29007363319397,1.79836261272430,0.83757263422012
17,2395494009,0.01367912441492,0.88153976202011,119.22678375244141,-0.12830071151257,-0.00207613361999,10.00297737121582,1.31632840633392,1.85576415061951,0.85557943582535
18,2395502342,0.01824530027807,0.88784474134445,119.24281311035156,-0.11097923666239,-0.00569474371150,10.01590251922607,1.27905976772308,1.99820494651794,0.76826065778732
19,2395510675,0.02888424694538,0.90182733535767,119.24974822998047,-0.11005308479071,-0.02582538314164,9.97387599945068,1.26363980770111,1.67710483074188,0.83449894189835
20,2395519008,0.03402889147401,0.90362775325775,119.26096343994141,-0.12721748650074,-0.03109300881624,9.98660087585449,1.31589281558990,1.53771209716797,0.83990353345871
21,2395527341,0.04567145928741,0.91769331693649,119.26811981201172,-0.11484728753567,-0.01638687215745,10.00676631927490,1.38330960273743,1.69009137153625,0.85783362388611
22,2395535674,0.05036220327020,0.92240029573441,119.28123474121094,-0.12091936916113,-0.02552565373480,9.99029922485352,1.31296014785767,1.82465577125549,0.86873245239258
23,2395544007,0.06106680631638,0.93709003925323,119.28806304931641,-0.11649732291698,-0.03078458644450,10.01415920257568,1.27046597003937,1.76394987106323,0.81788808107376
24,2395552340,0.06481198966503,0.94193464517593,119.30272674560547,-0.12995223701000,-0.04918629676104,9.99217987060547,1.26387047767639,1.81157958507538,0.84395056962967
25,2395560673,0.07637307792902,0.95767408609390,119.30971527099609,-0.12153330445290,-0.02534565702081,10.00311660766602,1.37388360500336,1.89167535305023,0.83923763036728
26,2395569006,0.07924465835094,0.96253192424774,119.32249450683594,-0.12624342739582,-0.02875619009137,10.00674915313721,1.25548160076141,1.74934971332550,0.86709308624268
27,2395577339,0.09072500467300,0.97786444425583,119.32933807373047,-0.09951478242874,-0.02147269994020,10.01792526245117,1.36402201652527,1.84080541133881,0.81966829299927
28,2395585672,0.09341195970774,0.98289430141449,119.34020996093750,-0.12566544115543,0.00600392883644,9.97725486755371,1.22478306293488,1.79669773578644,0.77661079168320
29,2395594005,0.10392189025879,0.99798202514648,119.34729766845703,-0.11754921078682,-0.02143274806440,9.99948215484619,1.24745154380798,1.81163060665131,0.84879165887833
30,2395602338,0.10862261056900,1.00343108177185,119.35244750976562,-0.11651411652565,-0.00484396517277,10.01403045654297,1.37851965427399,1.81798315048218,0.86577391624451
31,2395610671,0.11919622123241,1.01926457881927,119.35958099365234,-0.12264992296696,-0.00306609226391,9.98834323883057,1.25416254997253,1.90181815624237,0.85181415081024
32,2395619004,0.12355364114046,1.02467668056488,119.37174987792969,-0.10370894521475,-0.03046144917607,9.99970722198486,1.26241028308868,1.79831135272980,0.79482257366180
33,2395627337,0.13495796918869,1.03833878040314,119.37860870361328,-0.12070993334055,-0.02124430425465,9.98117065429688,1.35376358032227,1.64246153831482,0.81878465414047
34,2395635670,0.13901606202126,1.04327929019928,119.38153076171875,-0.12875786423683,-0.02293924614787,9.99027442932129,1.24916791915894,1.75740540027618,0.80801385641098
35,2395644003,0.15060624480247,1.05890202522278,119.38849639892578,-0.12943200767040,-0.02478423900902,9.99395942687988,1.37554860115051,1.87689590454102,0.83114355802536
36,2395652336,0.15561310946941,1.06591451168060,119.39134216308594,-0.14136567711830,-0.02457561343908,9.99750041961670,1.37408852577209,1.96052622795105,0.84226006269455
37,2395660669,0.16717565059662,1.08151555061340,119.39879608154297,-0.12597312033176,-0.01704645715654,10.00678443908691,1.37193703651428,1.87712657451630,0.89341175556183
38,2395669002,0.17257060110569,1.08639180660248,119.39942932128906,-0.11224691569805,-0.03517068922520,9.99794864654541,1.42114174365997,1.65853452682495,0.78639543056488
39,2395677335,0.18416360020638,1.10138106346130,119.40622711181641,-0.11487129330635,-0.02202257886529,10.01980400085449,1.37713646888733,1.80302441120148,0.81011414527893
40,2395685668,0.18869505822659,1.10771691799164,119.41133880615234,-0.13362112641335,-0.03310682624578,9.98490524291992,1.33238852024078,1.85112810134888,0.91131609678268
41,2395694001,0.19900789856911,1.12288391590118,119.41838836669922,-0.13670304417610,-0.02357606776059,10.01228427886963,1.22131216526031,1.82488608360291,0.83863562345505
42,2395702334,0.20366942882538,1.12913835048676,119.42214202880859,-0.13756805658340,-0.02348529547453,10.01960945129395,1.36750566959381,1.80617499351501,0.78388530015945
43,2395710667,0.21468646824360,1.14494884014130,119.42974853515625,-0.12690766155720,-0.01832154020667,9.98490428924561,1.30469954013824,1.90202355384827,0.90762764215469
44,2395719000,0.21930509805679,1.15102899074554,119.43122863769531,-0.12239237874746,-0.01263367477804,9.98676490783691,1.35431420803070,1.76193904876709,0.77745604515076
45,2395727333,0.23117779195309,1.16626775264740,119.43778228759766,-0.11943816393614,-0.01070544775575,9.98864555358887,1.41186952590942,1.83391547203064,0.78073477745056
46,2395735666,0.23569521307945,1.17273128032684,119.44253540039062,-0.11502718180418,-0.02143182791770,9.99615573883057,1.32014489173889,1.81278347969055,0.76055061817169
47,2395743999,0.24650755524635,1.18823134899139,119.44987487792969,-0.14560745656490,-0.04478215798736,10.02163410186768,1.28023803234100,1.86590754985809,0.87153720855713
48,2395752332,0.25106772780418,1.19449186325073,119.45476531982422,-0.12049736082554,-0.02853839285672,9.99988365173340,1.34811580181122,1.77646267414093,0.72981357574463
49,2395760665,0.26198756694794,1.20994567871094,119.46118164062500,-0.11782795190811,-0.04306214675307,10.00925540924072,1.29574728012085,1.86205244064331,0.76017928123474
50,2395768998,0.26613566279411,1.21721327304840,119.46121215820312,-0.12222765386105,-0.02470046281815,10.00902462005615,1.31506037712097,1.90495622158051,0.82731413841248
51,2395777331,0.27720558643341,1.23181152343750,119.46737670898438,-0.13183905184269,-0.01749324984848,9.97405052185059,1.31527817249298,1.75853240489960,0.73137605190277
52,2395785664,0.28140079975128,1.24013900756836,119.46997070312500,-0.12922866642475,-0.03757188469172,9.99081325531006,1.31576502323151,2.02935194969177,0.78893125057220
53,2395793997,0.29277563095093,1.25441372394562,119.47690582275391,-0.13585199415684,-0.03543689101934,9.99071884155273,1.34890949726105,1.71957314014435,0.82363855838776
54,2395802330,0.29737889766693,1.26230430603027,119.48170471191406,-0.11826764047146,-0.02078373916447,10.00184154510498,1.38133740425110,1.96664822101593,0.76349633932114
55,2395810663,0.30836901068687,1.27738475799561,119.48877716064453,-0.11047528684139,-0.03514305129647,10.01317596435547,1.30316281318665,1.81823945045471,0.84077453613281
56,2395818996,0.31224876642227,1.28231275081635,119.49390411376953,-0.13112778961658,0.00359644321725,10.00877094268799,1.29422330856323,1.62485170364380,0.84512883424759
57,2395827329,0.32295370101929,1.29711925983429,119.50102996826172,-0.12419057637453,-0.03529547154903,9.98189258575439,1.26860904693604,1.78724622726440,0.84725493192673
58,2395835662,0.32694071531296,1.30334115028381,119.50302886962891,-0.09957642108202,-0.00766632799059,10.00765323638916,1.29535031318665,1.77692365646362,0.78029930591583
59,2395843995,0.33807820081711,1.31885635852814,119.50951385498047,-0.12449577450752,-0.03665857017040,10.01677799224854,1.32369244098663,1.87183701992035,0.76686453819275
60,2395852328,0.34262406826019,1.32406258583069,119.51032257080078,-0.12694028019905,-0.00900723505765,10.01278591156006,1.35687565803528,1.67200756072998,0.81918168067932
61,2395860661,0.35364469885826,1.33770966529846,119.51630401611328,-0.12244960665703,-0.02337861433625,10.02405929565430,1.31020665168762,1.64690566062927,0.70909160375595
62,2395868994,0.35749307274818,1.34354865550995,119.51965332031250,-0.12959480285645,-0.00549401342869,9.99077987670898,1.26494610309601,1.74974679946899,0.86874514818192
63,2395877327,0.36833965778351,1.35902845859528,119.52675628662109,-0.12147048860788,-0.02011512219906,10.00213527679443,1.28533518314362,1.86916053295135,0.84192705154419
64,2395885660,0.37250465154648,1.36481118202209,119.53094482421875,-0.10923958569765,-0.03323393687606,9.97693729400635,1.29371094703674,1.73916804790497,0.76905453205109
65,2395893993,0.38340476155281,1.37843608856201,119.53776550292969,-0.12276481091976,-0.02566483616829,9.98030567169189,1.29460740089417,1.64759719371796,0.80737346410751
66,2395902326,0.38715919852257,1.38510417938232,119.54001617431641,-0.13812586665154,-0.02738389745355,9.98558139801025,1.24819445610046,1.85415029525757,0.77771216630936
67,2395910659,0.39774671196938,1.39924824237823,119.54671478271484,-0.12825116515160,-0.01988124661148,10.00036716461182,1.25728762149811,1.70996785163879,0.79190242290497
68,2395918992,0.40185403823853,1.40465295314789,119.54765319824219,-0.13035914301872,-0.01275270991027,9.98377990722656,1.29167461395264,1.69507312774658,0.79068583250046
69,2395927325,0.41343411803246,1.41954219341278,119.55506896972656,-0.12999208271503,-0.03608883544803,10.02079200744629,1.37328171730042,1.80188477039337,0.87925994396210
70,2395935658,0.41728526353836,1.42434620857239,119.55414581298828,-0.13586893677711,-0.00851501058787,10.00567913055420,1.25956726074219,1.62021565437317,0.85319727659225
71,2395943991,0.42874833941460,1.43869984149933,119.56171417236328,-0.11657785624266,-0.02136069349945,10.02094936370850,1.35973155498505,1.73813068866730,0.89598602056503
72,2395952324,0.43262708187103,1.44439160823822,119.56244659423828,-0.13711839914322,-0.00474998634309,10.00752639770508,1.25504624843597,1.72691166400909,0.86386561393738
73,2395960657,0.44445118308067,1.45940983295441,119.56999969482422,-0.10619993507862,-0.02377649582922,9.98100090026855,1.40435171127319,1.81991696357727,0.89421850442886
74,2395968990,0.44855976104736,1.46420276165009,119.57113647460938,-0.12893208861351,-0.02155784890056,9.97141265869141,1.28003299236298,1.62287950515747,0.77796834707260
75,2395977323,0.46048638224602,1.47922992706299,119.57817077636719,-0.12643849849701,-0.02297523617744,10.00633430480957,1.41649293899536,1.82104408740997,0.83366662263870
76,2395985656,0.46539905667305,1.48557770252228,119.58050537109375,-0.12680749595165,-0.02679099515080,9.98262977600098,1.37472891807556,1.81032454967499,0.90378558635712
77,2395993989,0.47606882452965,1.50026190280914,119.58725738525391,-0.12182429432869,-0.04223224520683,10.04165649414062,1.26748204231262,1.78048408031464,0.79794752597809
78,2396002322,0.48001560568810,1.50677621364594,119.58841705322266,-0.13107240200043,-0.02422902360559,10.01925086975098,1.26873695850372,1.83342838287354,0.85988259315491
79,2396010655,0.49055075645447,1.52091407775879,119.59584808349609,-0.11360001564026,-0.03542815148830,10.01252937316895,1.24989783763885,1.71564161777496,0.87861955165863
80,2396018988,0.49455702304840,1.52831125259399,119.59661102294922,-0.12871597707272,-0.01895211078227,10.01015853881836,1.28311955928802,1.94435083866119,0.79683327674866
81,2396027321,0.50572305917740,1.54337394237518,119.60326385498047,-0.12547437846661,-0.02853349037468,9.97931861877441,1.32852077484131,1.82597494125366,0.78516596555710
82,2396035654,0.51038593053818,1.55058145523071,119.60645294189453,-0.12427698820829,-0.01202908623964,9.97913837432861,1.36188340187073,1.92252779006958,0.78149038553238
83,2396043987,0.52133411169052,1.56465232372284,119.61402893066406,-0.13108837604523,-0.01890131458640,9.99015331268311,1.30043458938599,1.71067225933075,0.89731782674789
84,2396052320,0.52541309595108,1.57084333896637,119.61539459228516,-0.12803308665752,-0.00607837503776,9.99189758300781,1.28840875625610,1.80371594429016,0.84395056962967
85,2396060653,0.53652459383011,1.58596384525299,119.62221527099609,-0.11972761899233,-0.03009804710746,9.98340320587158,1.32189941406250,1.83600294589996,0.80305755138397
86,2396068986,0.54057168960571,1.59075403213501,119.62453460693359,-0.11581976711750,-0.01652765832841,10.01814365386963,1.28457939624786,1.63959252834320,0.81742709875107
87,2396077319,0.55151754617691,1.60606682300568,119.63136291503906,-0.12077005952597,-0.00629343790933,9.97759246826172,1.30233025550842,1.86074626445770,0.80590069293976
88,2396085652,0.55518472194672,1.61224782466888,119.63028717041016,-0.12735876441002,-0.02083508670330,9.97777843475342,1.23447799682617,1.81384634971619,0.83499842882156
89,2396093985,0.56494551897049,1.62621176242828,119.63756561279297,-0.12101633101702,-0.01346544455737,9.98518943786621,1.15979969501495,1.70133578777313,0.85970330238342
90,2396102318,0.56910991668701,1.63244915008545,119.63751220703125,-0.13931773602962,-0.02174958959222,10.03257560729980,1.29312181472778,1.82364392280579,0.87169080972672
91,2396110651,0.58003711700439,1.64708304405212,119.64398956298828,-0.12806512415409,0.00692863995209,9.99942207336426,1.30245828628540,1.78331422805786,0.76399576663971
92,2396118984,0.58408761024475,1.65379738807678,119.64542388916016,-0.13463714718819,-0.00758028263226,10.00508594512939,1.27804791927338,1.88208281993866,0.79393887519836
93,2396127317,0.59487289190292,1.66835725307465,119.65221405029297,-0.11379635334015,-0.02607570774853,10.00421142578125,1.28555297851562,1.77388834953308,0.79829329252243
94,2396135650,0.59882593154907,1.67423748970032,119.65238952636719,-0.12751972675323,-0.02028151229024,10.01114749908447,1.26599633693695,1.78870594501495,0.79792183637619
95,2396143983,0.61010599136353,1.68869805335999,119.65985870361328,-0.13184680044651,-0.01656297966838,10.01103973388672,1.34346675872803,1.76448798179626,0.88276904821396
96,2396152316,0.61381769180298,1.69356393814087,119.66208648681641,-0.12445209175348,-0.00978108868003,9.98002433776855,1.23621988296509,1.67017626762390,0.89045321941376
97,2396160649,0.62478739023209,1.70791995525360,119.66931152343750,-0.13447465002537,-0.01691756397486,9.98730659484863,1.30770921707153,1.75462615489960,0.85287714004517
98,2396168982,0.62929141521454,1.71467936038971,119.67015075683594,-0.13412836194038,-0.01822509989142,10.01489353179932,1.33557748794556,1.89983332157135,0.80103391408920
99,2396177315,0.63977098464966,1.72971153259277,119.67720794677734,-0.12673214077950,-0.02640153095126,9.97136306762695,1.24948787689209,1.83677113056183,0.83161729574203
100,2396185648,0.64472568035126,1.73509776592255,119.67807006835938,-0.11886844038963,-0.04084743931890,9.98475742340088,1.39075040817261,1.73971903324127,0.89027392864227
101,2396193981,0.65597778558731,1.74881088733673,119.68515777587891,-0.12505120038986,-0.03692758828402,9.98278141021729,1.34356904029846,1.68044745922089,0.83609992265701
102,2396202314,0.65988826751709,1.75413417816162,119.68325805664062,-0.13531041145325,-0.01055567152798,10.00952911376953,1.27881622314453,1.73956513404846,0.80510652065277
103,2396210647,0.67102766036987,1.76707613468170,119.69020080566406,-0.12420247495174,-0.01485976763070,9.97885227203369,1.33178651332855,1.58851778507233,0.81722211837769
104,2396218980,0.67505365610123,1.77348387241364,119.69081878662109,-0.12362549453974,-0.01257935538888,10.00637435913086,1.29449200630188,1.87388610839844,0.80064976215363
105,2396227313,0.68588352203369,1.78866291046143,119.69813537597656,-0.11155115813017,-0.02762491069734,9.99430561065674,1.29349339008331,1.85982406139374,0.86473661661148
106,2396235646,0.69018876552582,1.79464757442474,119.69899749755859,-0.11981745064259,-0.03112007305026,9.99423313140869,1.32971179485321,1.83477330207825,0.84255456924438
107,2396243979,0.70115256309509,1.80923020839691,119.70585632324219,-0.12409412115812,-0.01450704596937,9.99201393127441,1.31193554401398,1.78859066963196,0.80672031641006
108,2396252312,0.70550233125687,1.81469082832336,119.70603179931641,-0.13258251547813,-0.01773647405207,10.00291347503662,1.34390211105347,1.77952337265015,0.74498999118805
109,2396260645,0.71700525283813,1.82883119583130,119.71295928955078,-0.11623438447714,-0.02619479410350,10.04032135009766,1.37860941886902,1.73746490478516,0.81809306144714
110,2396268978,0.72069096565247,1.83457708358765,119.71466827392578,-0.11227746307850,-0.01216678973287,10.01090526580811,1.26575279235840,1.82206845283508,0.83843070268631
111,2396277311,0.73100101947784,1.84902822971344,119.72156524658203,-0.13931635022163,-0.00586494756863,10.03019905090332,1.23637342453003,1.77773022651672,0.81225299835205
112,2396285644,0.73390293121338,1.85432314872742,119.72082519531250,-0.10776123404503,-0.01281874254346,9.98742103576660,1.17343926429749,1.77529692649841,0.85069996118546
113,2396293977,0.74465918540955,1.86894464492798,119.72827148437500,-0.12521648406982,-0.03286062553525,9.98743724822998,1.28794789314270,1.80105221271515,0.88004112243652
114,2396302310,0.74839389324188,1.87448310852051,119.72776794433594,-0.12455558031797,-0.02520994283259,10.00202751159668,1.27820169925690,1.81430768966675,0.88299959897995
115,2396310643,0.75980323553085,1.88966894149780,119.73444366455078,-0.12580655515194,-0.00819379463792,10.02368545532227,1.37194967269897,1.86989045143127,0.78218191862106
116,2396318976,0.76397782564163,1.89581632614136,119.73423004150391,-0.11326448619366,-0.02169080823660,9.99700927734375,1.33724236488342,1.89670860767365,0.81248354911804
117,2396327309,0.77487069368362,1.91026544570923,119.74138641357422,-0.13428297638893,-0.01576655358076,9.99631023406982,1.30804193019867,1.78415954113007,0.84450131654739
118,2396335642,0.77906405925751,1.91505765914917,119.74194335937500,-0.12364824116230,-0.01428875606507,9.98388957977295,1.34579753875732,1.74263882637024,0.82262670993805
119,2396343975,0.78937852382660,1.92905354499817,119.74881744384766,-0.13566127419472,-0.01016373094171,9.99266147613525,1.24103522300720,1.73177838325500,0.80789858102798
120,2396352308,0.79237961769104,1.93449294567108,119.74906158447266,-0.13765649497509,-0.03843639791012,9.96403789520264,1.20235776901245,1.82844674587250,0.91273772716522
121,2396360641,0.80250412225723,1.94895458221436,119.75672912597656,-0.12438337504864,-0.02908676862717,9.98450469970703,1.21700918674469,1.79215121269226,0.90359336137772
122,2396368974,0.80673003196716,1.95556068420410,119.75638580322266,-0.11204431951046,-0.02400357089937,9.97939872741699,1.36466228961945,1.97487044334412,0.78247648477554
123,2396377307,0.81757491827011,1.97105944156647,119.76362609863281,-0.11930366605520,-0.01959468610585,10.00114917755127,1.30571115016937,1.91709756851196,0.84944492578506
124,2396385640,0.82138496637344,1.97593450546265,119.76333618164062,-0.11872120201588,-0.02299474179745,10.00687122344971,1.32015764713287,1.77875494956970,0.80546522140503
125,2396393973,0.83148074150085,1.98993444442749,119.76927947998047,-0.11196491867304,-0.02140186168253,9.99800872802734,1.22330999374390,1.73877108097076,0.69611805677414
126,2396402306,0.83561396598816,1.99673390388489,119.76872253417969,-0.12969242036343,-0.03567390143871,10.01067638397217,1.36920893192291,2.02180862426758,0.73441135883331
127,2396410639,0.84673345088959,2.01146554946899,119.77635955810547,-0.12525677680969,-0.01152971386909,10.01950931549072,1.34026479721069,1.83226311206818,0.90026342868805
128,2396418972,0.85004895925522,2.01589584350586,119.77852630615234,-0.11921755969524,-0.02418795228004,10.02382373809814,1.27520465850830,1.74824833869934,0.82972186803818
129,2396427305,0.86124902963638,2.02993655204773,119.78543853759766,-0.12736368179321,-0.02394817210734,10.02731418609619,1.35422456264496,1.75073266029358,0.81463509798050
130,2396435638,0.86499494314194,2.03500318527222,119.78529357910156,-0.12696839869022,-0.02658756263554,9.99267864227295,1.33963727951050,1.83529829978943,0.74933165311813
131,2396443971,0.87659275531769,2.04946923255920,119.79248809814453,-0.13149994611740,-0.03007514774799,9.99273014068604,1.40163636207581,1.80324208736420,0.84598690271378
132,2396452304,0.88145017623901,2.05501794815063,119.79329681396484,-0.12920413911343,-0.01976204849780,9.96331787109375,1.47691667079926,1.90667235851288,0.90174913406372
133,2396460637,0.89213907718658,2.06998276710510,119.80055999755859,-0.12090398371220,-0.02401946671307,10.00601959228516,1.29380071163177,1.86656069755554,0.85472142696381
134,2396468970,0.89546740055084,2.07406497001648,119.79912567138672,-0.11928356438875,-0.01149586308748,9.99121284484863,1.30548083782196,1.73930919170380,0.78443604707718
135,2396477303,0.90593987703323,2.08827018737793,119.80596923828125,-0.11717806756496,-0.02761391922832,10.00649261474609,1.27266883850098,1.77755093574524,0.80467110872269
136,2396485636,0.90874385833740,2.09247612953186,119.80609893798828,-0.11065265536308,-0.01662019267678,10.01204967498779,1.24684965610504,1.77043020725250,0.86824572086334
137,2396493969,0.91981476545334,2.10666608810425,119.81359863281250,-0.12512600421906,-0.02446617744863,9.98435401916504,1.34169936180115,1.77972841262817,0.88627821207047
138,2396502302,0.92305535078049,2.11130785942078,119.81344604492188,-0.12486986070871,-0.02756669186056,10.00290298461914,1.31042432785034,1.83497834205627,0.83082342147827
139,2396510635,0.93413466215134,2.12535929679871,119.82015228271484,-0.12370116263628,-0.03135098144412,9.99583435058594,1.34823095798492,1.76364243030548,0.79317039251328
140,2396518968,0.93719267845154,2.13013935089111,119.81987762451172,-0.11490601301193,-0.01138246618211,9.99390983581543,1.29953825473785,1.86438333988190,0.81217622756958
141,2396527301,0.94814753532410,2.14481163024902,119.82613372802734,-0.12552891671658,-0.00703093735501,10.01000118255615,1.33851027488708,1.84165060520172,0.73619157075882
142,2396535634,0.95164972543716,2.14803123474121,119.82508087158203,-0.11191271990538,-0.01068753097206,10.01260185241699,1.35978281497955,1.68923306465149,0.75510764122009
143,2396543967,0.96230590343475,2.16189908981323,119.83250427246094,-0.12472946941853,-0.01089431252331,9.99573230743408,1.29897475242615,1.75052797794342,0.87608373165131
144,2396552300,0.96488976478577,2.16548538208008,119.83335113525391,-0.12505669891834,-0.02418684586883,9.97789382934570,1.25537943840027,1.74873518943787,0.83917367458344
145,2396560633,0.97594898939133,2.17985868453979,119.84052276611328,-0.10267601162195,-0.01669036410749,10.00066471099854,1.34933233261108,1.81359052658081,0.84501367807388
146,2396568966,0.97869622707367,2.18307185173035,119.84130096435547,-0.11032203584909,-0.03722801804543,9.97726726531982,1.28270971775055,1.72089231014252,0.85651445388794
147,2396577299,0.99036067724228,2.19687509536743,119.84795379638672,-0.10943297296762,-0.02585784904659,9.98994159698486,1.42860841751099,1.74809467792511,0.78684371709824
148,2396585632,0.99387735128403,2.20068812370300,119.84718322753906,-0.11532075703144,-0.01710296422243,10.02992534637451,1.38970041275024,1.80759656429291,0.79340100288391
149,2396593965,1.00448226928711,2.21665287017822,119.85363006591797,-0.14029292762280,-0.02699412405491,9.98718452453613,1.30209970474243,2.00956487655640,0.75590169429779
150,2396602298,1.00693321228027,2.21952486038208,119.85381317138672,-0.13896229863167,-0.02733203582466,9.97089004516602,1.27143931388855,1.70931458473206,0.83845633268356
151,2396610631,1.01844954490662,2.23420262336731,119.86062622070312,-0.10993363708258,-0.02446921356022,9.96475601196289,1.41293227672577,1.86000311374664,0.80300617218018
152,2396618964,1.02210783958435,2.23825097084045,119.86091613769531,-0.13202343881130,-0.02496321685612,9.98969554901123,1.42730200290680,1.86348676681519,0.82457345724106
153,2396627297,1.03210604190826,2.25344133377075,119.86829376220703,-0.12957946956158,-0.02844739146531,9.99370861053467,1.23022615909576,1.92665171623230,0.86714440584183
154,2396635630,1.03472673892975,2.25688481330872,119.86943817138672,-0.13026058673859,-0.03978580236435,9.98133659362793,1.31465065479279,1.80429244041443,0.85269784927368
155,2396643963,1.04456841945648,2.27141976356506,119.87654113769531,-0.12350092828274,-0.02344650402665,9.98125457763672,1.21534419059753,1.85098731517792,0.83843082189560
156,2396652296,1.04727900028229,2.27556490898132,119.87603759765625,-0.12058778852224,-0.02232616767287,10.02365875244141,1.33670449256897,1.90267658233643,0.86478787660599
157,2396660629,1.05784714221954,2.28903794288635,119.88269042968750,-0.12637463212013,-0.00026839459315,10.01554489135742,1.30712008476257,1.72624576091766,0.78487133979797
158,2396668962,1.06000268459320,2.29182124137878,119.88277435302734,-0.11410459131002,-0.02106437832117,10.00217151641846,1.28355503082275,1.75383245944977,0.74952381849289
159,2396677295,1.07087087631226,2.30508351325989,119.88957214355469,-0.13101236522198,-0.01161123812199,9.99946498870850,1.34418380260468,1.70493447780609,0.80733501911163
160,2396685628,1.07384133338928,2.30795097351074,119.88938140869141,-0.11379887908697,-0.02086210623384,10.00613689422607,1.39090406894684,1.78154683113098,0.80549079179764
161,2396693961,1.08361804485321,2.32245135307312,119.89711761474609,-0.12173667550087,-0.02085274271667,10.00043964385986,1.21063125133514,1.85885071754456,0.91189247369766
162,2396702294,1.08607637882233,2.32679533958435,119.89939880371094,-0.10886216908693,-0.04046777635813,9.97243404388428,1.33552622795105,1.97798264026642,0.95374608039856
163,2396710627,1.09729492664337,2.33996367454529,119.90605926513672,-0.13453650474548,-0.03727289289236,9.98971843719482,1.39218497276306,1.70255279541016,0.78881597518921
164,2396718960,1.10020411014557,2.34354138374329,119.90498352050781,-0.12681581079960,-0.01266479864717,10.01874351501465,1.40786075592041,1.89996159076691,0.83684271574020
165,2396727293,1.11041903495789,2.35758852958679,119.91217041015625,-0.13860107958317,-0.02730267494917,10.00602626800537,1.27225911617279,1.81133604049683,0.84839475154877
166,2396735626,1.11293232440948,2.35988044738770,119.91111755371094,-0.13144908845425,-0.03528247401118,9.98841571807861,1.37540745735168,1.76131153106689,0.75966691970825
167,2396743959,1.12329137325287,2.37404608726501,119.91811370849609,-0.12622955441475,-0.02269740588963,9.98287868499756,1.29415929317474,1.82885658740997,0.82892793416977
168,2396752292,1.12463712692261,2.37661290168762,119.91822052001953,-0.12488754093647,-0.01983613893390,10.01601123809814,1.24334049224854,1.81246328353882,0.89529424905777
169,2396760625,1.13423132896423,2.39034008979797,119.92507934570312,-0.11961165815592,-0.02233994007111,9.99998188018799,1.20548272132874,1.78034293651581,0.81297016143799
170,2396768958,1.13637006282806,2.39173984527588,119.92421722412109,-0.12424267083406,-0.02950824610889,10.00199413299561,1.35609436035156,1.68808054924011,0.78351378440857
171,2396777291,1.14675867557526,2.40466380119324,119.93130493164062,-0.13075034320354,-0.02161548659205,10.01259231567383,1.30058825016022,1.68969416618347,0.84450131654739
172,2396785624,1.14854037761688,2.40664243698120,119.93024444580078,-0.13058304786682,-0.00363771710545,10.00294876098633,1.32613849639893,1.77466940879822,0.84202951192856
173,2396793957,1.15903973579407,2.42068195343018,119.93716430664062,-0.13462945818901,-0.02108757197857,10.02553653717041,1.31741702556610,1.82688415050507,0.81965559720993
174,2396802290,1.16062116622925,2.42275476455688,119.93685150146484,-0.12638880312443,-0.01693840883672,9.98925304412842,1.31426632404327,1.80201268196106,0.80198174715042
175,2396810623,1.17082583904266,2.43658065795898,119.94396972656250,-0.11519062519073,-0.02030741982162,10.00471115112305,1.28547596931458,1.80636692047119,0.84386092424393
176,2396818956,1.17272579669952,2.43963932991028,119.94313812255859,-0.11264830082655,-0.03505724295974,10.00551509857178,1.36280548572540,1.93971467018127,0.82531625032425
177,2396827289,1.18299877643585,2.45408558845520,119.95025634765625,-0.10915408283472,-0.01760845445096,10.03275871276855,1.29779648780823,1.88497722148895,0.84445017576218
178,2396835622,1.18422591686249,2.45584630966187,119.95146942138672,-0.11551465839148,-0.02492912299931,10.02737808227539,1.29469728469849,1.80506086349487,0.86870682239532
179,2396843955,1.19424819946289,2.47038531303406,119.95834350585938,-0.13345843553543,-0.02918627485633,9.99933052062988,1.27079892158508,1.90116524696350,0.81399476528168
180,2396852288,1.19534635543823,2.47167611122131,119.95724487304688,-0.11725612729788,-0.00952369533479,9.99407386779785,1.29761695861816,1.76610147953033,0.79893350601196
181,2396860621,1.20637476444244,2.48555302619934,119.96399688720703,-0.13352209329605,-0.01035579573363,10.01182651519775,1.39500260353088,1.82573151588440,0.80026555061340
182,2396868954,1.20813810825348,2.48574280738831,119.96463775634766,-0.12097042053938,-0.01881363801658,10.03307914733887,1.38926482200623,1.65234863758087,0.82126915454865
183,2396877287,1.21841561794281,2.49924325942993,119.97190856933594,-0.11656784266233,-0.02919398620725,10.00081253051758,1.30445623397827,1.78690040111542,0.86435246467590
184,2396885620,1.21991980075836,2.50063943862915,119.97200012207031,-0.13310122489929,-0.02558757551014,9.98720550537109,1.37292301654816,1.81832897663116,0.82938891649246
185,2396893953,1.23005640506744,2.51358413696289,119.97895050048828,-0.13532209396362,-0.02629913017154,10.01299953460693,1.29308331012726,1.72414529323578,0.83077204227448
186,2396902286,1.23086416721344,2.51476287841797,119.97836303710938,-0.10972176492214,-0.02741661109030,9.99979019165039,1.30412328243256,1.81082403659821,0.82290858030319
187,2396910619,1.24142241477966,2.52891612052917,119.98493957519531,-0.10140535980463,-0.03132950887084,9.99868392944336,1.34851264953613,1.87188851833344,0.78192579746246
188,2396918952,1.24268507957458,2.53104209899902,119.98522186279297,-0.11972400546074,-0.02592085488141,9.98308181762695,1.37264120578766,1.94642567634583,0.83528017997742
189,2396927285,1.25287389755249,2.54530405998230,119.99206542968750,-0.10341110080481,-0.02738253772259,10.00065708160400,1.30865693092346,1.89263582229614,0.81168949604034
190,2396935618,1.25397050380707,2.54560804367065,119.99194335937500,-0.11781091243029,-0.02220366708934,9.97974109649658,1.36587905883789,1.75055360794067,0.88305073976517
191,2396943951,1.26467776298523,2.55877757072449,119.99978637695312,-0.13470071554184,-0.02248311787844,10.00842285156250,1.36800503730774,1.76797127723694,0.93691754341125
192,2396952284,1.26510715484619,2.55955362319946,119.99963378906250,-0.11750583350658,-0.02261925488710,10.01316547393799,1.30776047706604,1.82429718971252,0.75387817621231
193,2396960617,1.27497959136963,2.57239031791687,120.00588226318359,-0.13300585746765,-0.01235970482230,9.98095989227295,1.27894437313080,1.73103559017181,0.74668061733246
194,2396968950,1.27451527118683,2.57210731506348,120.00593566894531,-0.11667023599148,-0.02682364918292,9.99904632568359,1.21109223365784,1.71866393089294,0.82882541418076
195,2396977283,1.28481519222260,2.58564209938049,120.01373291015625,-0.13977296650410,-0.02605065889657,10.00900173187256,1.32607460021973,1.82260656356812,0.93317788839340
196,2396985616,1.28489005565643,2.58680748939514,120.01380157470703,-0.10465195775032,-0.02032764256001,9.98876953125000,1.29305779933929,1.91056597232819,0.79450231790543
197,2396993949,1.29560232162476,2.60032963752747,120.02178192138672,-0.12205053865910,-0.02172845043242,9.98810195922852,1.37809693813324,1.82898461818695,0.95413029193878
198,2397002282,1.29653859138489,2.60016369819641,120.02201080322266,-0.11698706448078,-0.03186467289925,10.00915527343750,1.41044795513153,1.77352976799011,0.82157665491104
199,2397010615,1.30652463436127,2.61240768432617,120.02947235107422,-0.12472771108150,-0.01875058189034,10.00657653808594,1.29905152320862,1.67793726921082,0.89590907096863
200,2397018948,1.30621790885925,2.61186480522156,120.02897644042969,-0.11953245848417,-0.03783418610692,9.99127864837646,1.27697193622589,1.75080978870392,0.83487027883530
201,2397027281,1.31597959995270,2.62470364570618,120.03594207763672,-0.09432426840067,-0.02007069997489,9.99393558502197,1.27697193622589,1.75416517257690,0.83643281459808
202,2397035614,1.31576681137085,2.62494492530823,120.03639221191406,-0.12318985164165,-0.01523835677654,10.00706291198730,1.30443048477173,1.86884009838104,0.84475743770599
203,2397043947,1.32519757747650,2.63769531250000,120.04254150390625,-0.13170349597931,-0.02971572428942,10.00372314453125,1.24513351917267,1.74771058559418,0.73891955614090
204,2397052280,1.32457470893860,2.63706660270691,120.04248809814453,-0.11487529426813,-0.01610109396279,9.99140644073486,1.27164435386658,1.78602933883667,0.86686265468597
205,2397060613,1.33399915695190,2.65134239196777,120.04911041259766,-0.12643378973007,-0.01424604840577,9.98721885681152,1.24608135223389,1.93574476242065,0.79099321365356
206,2397068946,1.33391475677490,2.65065145492554,120.04753112792969,-0.12176545709372,-0.00325130112469,9.98906421661377,1.35517239570618,1.79758155345917,0.75738734006882
207,2397077279,1.34473717212677,2.66452836990356,120.05382537841797,-0.13242600858212,-0.02294162102044,9.99314403533936,1.42043733596802,1.89350664615631,0.75564545392990
208,2397085612,1.34460306167603,2.66369581222534,120.05413818359375,-0.11272804439068,-0.02045708149672,10.01819515228271,1.35642743110657,1.80526578426361,0.89345020055771
209,2397093945,1.35470318794250,2.67579030990601,120.06060028076172,-0.11105272173882,-0.02270823530853,10.00391769409180,1.33670437335968,1.68513464927673,0.78054249286652
210,2397102278,1.35419666767120,2.67406368255615,120.05850982666016,-0.12884847819805,-0.01747215911746,9.98453903198242,1.33634579181671,1.71730625629425,0.75034338235855
211,2397110611,1.36428225040436,2.68608665466309,120.06497192382812,-0.12199173867702,-0.01961218193173,9.97970581054688,1.33831810951233,1.68352115154266,0.78225862979889
212,2397118944,1.36335885524750,2.68336558341980,120.06462860107422,-0.12880544364452,-0.02822202816606,9.98720836639404,1.29620850086212,1.62317407131195,0.85118669271469
213,2397127277,1.37378871440887,2.69660878181458,120.07167053222656,-0.11339130997658,-0.01339853554964,10.00416278839111,1.38114511966705,1.83689939975739,0.84752374887466
214,2397135610,1.37283718585968,2.69464993476868,120.07108306884766,-0.10128533095121,-0.02305303514004,9.99629497528076,1.31119263172150,1.73590219020844,0.83784162998199
215,2397143943,1.38203442096710,2.70775699615479,120.07779693603516,-0.12815093994141,-0.01219384372234,9.97614669799805,1.23765420913696,1.82491171360016,0.81089544296265
216,2397152276,1.38136589527130,2.70602512359619,120.07643127441406,-0.10863314568996,-0.01342031825334,10.00504779815674,1.36108922958374,1.78608047962189,0.83656096458435
217,2397160609,1.39092147350311,2.71970582008362,120.08378601074219,-0.12518762052059,-0.02901380322874,10.01599121093750,1.28255605697632,1.90298402309418,0.88435715436935
218,2397168942,1.38955533504486,2.71614193916321,120.08268737792969,-0.11951000988483,-0.03732335567474,9.99120807647705,1.29874408245087,1.58818483352661,0.74716722965240
219,2397177275,1.39964699745178,2.72864890098572,120.08914947509766,-0.15141774713993,-0.01952156238258,10.00344085693359,1.35586404800415,1.76538443565369,0.78277105093002
220,2397185608,1.39780831336975,2.72588443756104,120.08830261230469,-0.12631277740002,-0.02969176881015,9.99454593658447,1.25356090068817,1.70547270774841,0.83189916610718
221,2397193941,1.40776550769806,2.73843765258789,120.09554290771484,-0.13173310458660,-0.02081547863781,9.98669242858887,1.34023928642273,1.78070151805878,0.87554574012756
222,2397202274,1.40571630001068,2.73619556427002,120.09481811523438,-0.11195243149996,-0.02915623225272,9.97557258605957,1.24515914916992,1.79023003578186,0.87739002704620
223,2397210607,1.41565990447998,2.75003743171692,120.10143280029297,-0.11666770279408,-0.02333433181047,9.98260211944580,1.34633541107178,1.93976604938507,0.80006068944931
224,2397218940,1.41397583484650,2.74560689926147,120.10065460205078,-0.12125537544489,-0.01742929965258,9.98229408264160,1.30911791324615,1.55037832260132,0.82385617494583
225,2397227273,1.42307615280151,2.75660920143127,120.10762023925781,-0.11451140791178,-0.00826174393296,9.98798656463623,1.24669599533081,1.60598683357239,0.85198062658310
226,2397235606,1.42079317569733,2.75380277633667,120.10694122314453,-0.15152432024479,-0.02487357705832,10.00691604614258,1.25414991378784,1.76689565181732,0.78794515132904
227,2397243939,1.43078565597534,2.76611256599426,120.11376953125000,-0.13033582270145,-0.02491770498455,9.97900295257568,1.36116600036621,1.76799702644348,0.83054161071777
228,2397252272,1.42927110195160,2.76443076133728,120.11219787597656,-0.11798049509525,-0.02977585047483,10.00221538543701,1.36201131343842,1.92368006706238,0.82055205106735
229,2397260605,1.43909490108490,2.77626895904541,120.11850738525391,-0.11613817512989,-0.02291988208890,9.98758125305176,1.34582293033600,1.71771621704102,0.77214103937149
230,2397268938,1.43717706203461,2.77373552322388,120.11748504638672,-0.10645318031311,-0.01958515122533,10.02861785888672,1.33388686180115,1.84302091598511,0.79194086790085
231,2397277271,1.44608414173126,2.78737950325012,120.12390136718750,-0.11751313507557,-0.02874141000211,9.98084163665771,1.24047172069550,1.94091868400574,0.78031206130981
232,2397285604,1.44354176521301,2.78438186645508,120.12274169921875,-0.12944465875626,-0.01538548525423,9.98523235321045,1.27236151695251,1.81428182125092,0.85802561044693
233,2397293937,1.45264148712158,2.79633903503418,120.12942504882812,-0.10319674015045,-0.02019575610757,10.01851081848145,1.26772522926331,1.74614787101746,0.81840038299561
234,2397302270,1.45014584064484,2.79195713996887,120.12861633300781,-0.10989452898502,-0.02714125253260,10.02232456207275,1.29664373397827,1.66994547843933,0.80300623178482
235,2397310603,1.45963561534882,2.80426239967346,120.13577270507812,-0.10715650767088,-0.01157446205616,10.00544166564941,1.31585454940796,1.79440510272980,0.87623733282089
236,2397318936,-0.13519288599491,0.68180394172668,119.22809600830078,-0.13171403110027,-0.03325169160962,9.99414062500000,1.33206820487976,1.64750742912292,0.91949981451035
237,2397327269,-0.15360014140606,0.65562760829926,119.21497344970703,-0.10203424096107,-0.02733021788299,9.98123836517334,1.32853364944458,1.67729699611664,0.78579360246658
238,2397335602,-0.15350389480591,0.65606117248535,119.21511840820312,-0.11758877336979,-0.02488856948912,9.98588562011719,1.32694542407990,1.86228311061859,0.76507157087326
239,2397343935,-0.15366379916668,0.65672445297241,119.21494293212891,-0.12514971196651,-0.03880371153355,9.99732398986816,1.29310905933380,1.87350189685822,0.80310863256454
240,2397352268,-0.15370948612690,0.65566301345825,119.21342468261719,-0.10698296129704,-0.01924756728113,9.99410533905029,1.31050109863281,1.68047308921814,0.83771353960037
241,2397360601,-0.15352149307728,0.65509492158890,119.21414947509766,-0.10692529380322,-0.01604026183486,9.98499298095703,1.33501386642456,1.72616887092590,0.91291689872742
242,2397368934,-0.15337119996548,0.65418463945389,119.21492767333984,-0.11016179621220,-0.02473839186132,9.99094390869141,1.33309280872345,1.69914591312408,0.80846202373505
243,2397377267,-0.15355968475342,0.65412694215775,119.21484375000000,-0.11894878745079,-0.02208884246647,10.00334358215332,1.28983032703400,1.78697705268860,0.81650495529175
244,2397385600,-0.15323597192764,0.65326374769211,119.21587371826172,-0.12055080384016,-0.00027204409707,9.99691295623779,1.35373795032501,1.70478093624115,0.78115725517273
245,2397393933,-0.15299816429615,0.65408331155777,119.21580505371094,-0.12782508134842,-0.01241607032716,10.00827217102051,1.34233963489532,1.89286661148071,0.81568533182144
246,2397402266,-0.15199632942677,0.65378379821777,119.21513366699219,-0.09907130897045,-0.01715798676014,10.00141620635986,1.43421781063080,1.77155733108521,0.81010138988495
247,2397410599,-0.15203182399273,0.65347206592560,119.21451568603516,-0.10887177288532,-0.02811451815069,9.99239540100098,1.30796527862549,1.75731575489044,0.75213640928268
248,2397418932,-0.15176111459732,0.65282237529755,119.21491241455078,-0.11065791547298,-0.02297808788717,9.98307704925537,1.34712958335876,1.72944748401642,0.84437322616577
249,2397427265,-0.15181501209736,0.65184974670410,119.21484375000000,-0.13693132996559,-0.01149738300592,10.01225471496582,1.30627465248108,1.67850077152252,0.81637686491013
250,2397435598,-0.15172328054905,0.65192246437073,119.21447753906250,-0.13685081899166,-0.01583486981690,9.99983692169189,1.32259106636047,1.81489670276642,0.83330798149109
251,2397443931,-0.15234810113907,0.65222477912903,119.21389007568359,-0.10841146856546,-0.01116580795497,10.00171375274658,1.23847377300262,1.83070051670074,0.75462096929550
252,2397452264,-0.15221221745014,0.65366417169571,119.21185302734375,-0.12477532029152,-0.03263042122126,10.00561237335205,1.32912266254425,1.97834122180939,0.81148463487625
253,2397460597,-0.15205578505993,0.65337091684341,119.21192169189453,-0.13632538914680,-0.01433582883328,10.03176689147949,1.33158171176910,1.75898063182831,0.83335912227631
254,2397468930,-0.15234436094761,0.65257072448730,119.21178436279297,-0.13065803050995,-0.01463252957910,9.99013042449951,1.27725398540497,1.70857203006744,0.81637698411942
255,2397477263,-0.15204656124115,0.65284234285355,119.21150207519531,-0.12779293954372,-0.02222072146833,9.98909568786621,1.34892261028290,1.82824170589447,0.78958445787430
256,2397485596,-0.15181449055672,0.65320891141891,119.21115875244141,-0.13054251670837,-0.03197554126382,10.01170444488525,1.34126389026642,1.84834885597229,0.73469316959381
257,2397493929,-0.15221026539803,0.65379267930984,119.21099853515625,-0.13437551259995,-0.03373719006777,9.97320747375488,1.26526629924774,1.86443436145782,0.80554199218750
258,2397502262,-0.15161307156086,0.65351158380508,119.21031188964844,-0.12024062871933,-0.02372032403946,9.99962520599365,1.38386023044586,1.76838111877441,0.84488552808762
259,2397510595,-0.15227870643139,0.65236890316010,119.21070861816406,-0.10547637939453,-0.02292280085385,9.98615264892578,1.23189115524292,1.65821444988251,0.87032055854797
260,2397518928,-0.15202212333679,0.65256083011627,119.21211242675781,-0.12097746878862,-0.04299614578485,9.98085117340088,1.34451699256897,1.82470703125000,0.77477949857712
261,2397527261,-0.15244679152966,0.65383994579315,119.21295166015625,-0.10814471542835,-0.00531576620415,10.01125621795654,1.26091182231903,1.94801378250122,0.92467379570007
262,2397535594,-0.15285597741604,0.65305519104004,119.21343994140625,-0.13024954497814,-0.01273576170206,9.99385070800781,1.26086080074310,1.70759880542755,0.95707601308823
263,2397543927,-0.15357266366482,0.65316742658615,119.21372985839844,-0.14171145856380,-0.03892943635583,9.97812747955322,1.22656333446503,1.80903112888336,0.85810256004333
264,2397552260,-0.15324085950851,0.65402060747147,119.21382141113281,-0.11041717976332,-0.01318891905248,10.00308799743652,1.35220110416412,1.90311205387115,0.82890224456787
265,2397560593,-0.15341638028622,0.65400826931000,119.21340179443359,-0.13100050389767,-0.01096479408443,9.99445819854736,1.29170024394989,1.79268908500671,0.77221798896790
266,2397568926,-0.15395301580429,0.65405875444412,119.21411132812500,-0.11730364710093,-0.02453928254545,9.99086856842041,1.24705457687378,1.80818569660187,0.83586925268173
267,2397577259,-0.15285204350948,0.65475970506668,119.21482086181641,-0.12492419779301,-0.04717198759317,9.97523689270020,1.44405388832092,1.87752366065979,0.91163635253906
268,2397585592,-0.15263018012047,0.65297889709473,119.21379852294922,-0.12514528632164,-0.02920210734010,9.99662208557129,1.33872795104980,1.58672499656677,0.83341038227081
269,2397593925,-0.15174755454063,0.65280288457870,119.21323394775391,-0.11968390643597,-0.00725528877228,9.99973869323730,1.41838812828064,1.77383697032928,0.75751537084579
270,2397602258,-0.15118004381657,0.65326535701752,119.21372985839844,-0.12678530812263,-0.02080782130361,9.98000526428223,1.37991571426392,1.85552096366882,0.90661597251892
271,2397610591,-0.15157967805862,0.65364962816238,119.21406555175781,-0.11787588149309,-0.04144018888474,10.01145076751709,1.26298677921295,1.83999860286713,0.86509525775909
272,2397618924,-0.15093156695366,0.65282964706421,119.21471405029297,-0.13684883713722,-0.01969368569553,9.99263572692871,1.39018702507019,1.70137441158295,0.91601622104645
273,2397627257,-0.15053804218769,0.65167409181595,119.21494293212891,-0.14426197111607,-0.01600320637226,9.98480892181396,1.35896313190460,1.65588343143463,0.85046941041946
274,2397635590,-0.15105177462101,0.65172350406647,119.21549224853516,-0.12840655446053,-0.01665414124727,9.98438167572021,1.24946236610413,1.80408751964569,0.86222642660141
275,2397643923,-0.15140254795551,0.65138924121857,119.21556854248047,-0.11694613099098,-0.03361080214381,9.98457717895508,1.27097821235657,1.75370407104492,0.83317977190018
276,2397652256,-0.15053264796734,0.65112942457199,119.21456146240234,-0.11118724197149,-0.02381152473390,10.00125980377197,1.41531443595886,1.76751017570496,0.88732826709747
277,2397660589,-0.15063902735710,0.65146249532700,119.21469879150391,-0.13149933516979,-0.02276878058910,10.04045200347900,1.29989659786224,1.83397924900055,0.84355354309082
278,2397668922,-0.15112549066544,0.65165138244629,119.21420288085938,-0.10586841404438,-0.01629292406142,10.00729370117188,1.25281774997711,1.81945586204529,0.82254987955093
279,2397677255,-0.15096177160740,0.65226042270660,119.21488952636719,-0.12993179261684,-0.02910986170173,9.99364662170410,1.33096706867218,1.86804628372192,0.90781974792480
280,2397685588,-0.15069401264191,0.65178322792053,119.21405792236328,-0.13011717796326,-0.03330583125353,9.98128509521484,1.34344100952148,1.73910403251648,0.82157659530640
281,2397693921,-0.15089450776577,0.65126556158066,119.21390533447266,-0.13457460701466,-0.01863840781152,10.01166152954102,1.28975343704224,1.73308467864990,0.80656659603119
282,2397702254,-0.15086977183819,0.65060645341873,119.21527099609375,-0.11218850314617,-0.01219752896577,9.97643566131592,1.31377971172333,1.71766507625580,0.85879409313202
283,2397710587,-0.15086522698402,0.65024894475937,119.21633911132812,-0.13093607127666,-0.03298871964216,9.98751640319824,1.31093668937683,1.75147593021393,0.95131272077560
284,2397718920,-0.15023812651634,0.64999479055405,119.21647644042969,-0.10857471078634,-0.03755684569478,10.01913356781006,1.38877809047699,1.76633203029633,0.76507157087326
285,2397727253,-0.15026260912418,0.64989548921585,119.21660614013672,-0.11083105206490,-0.01838210225105,9.99794578552246,1.30911803245544,1.78126525878906,0.83881503343582
286,2397735586,-0.15008579194546,0.65033763647079,119.21640777587891,-0.13006481528282,-0.01145381573588,9.97797870635986,1.33286237716675,1.85016739368439,0.85093051195145
287,2397743919,-0.15039305388927,0.64920371770859,119.21684265136719,-0.12055739015341,-0.01993093080819,10.02913761138916,1.27435946464539,1.65821433067322,0.87705707550049
288,2397752252,-0.14955790340900,0.65004903078079,119.21663665771484,-0.11783994734287,-0.03005985729396,9.98234558105469,1.41137003898621,1.89811730384827,0.79511713981628
289,2397760585,-0.14900833368301,0.64973396062851,119.21599578857422,-0.11770447343588,-0.00494618155062,10.00145721435547,1.37958264350891,1.75613749027252,0.74539977312088
290,2397768918,-0.14815382659435,0.64977508783340,119.21542358398438,-0.12053537368774,-0.02471041679382,9.97321796417236,1.41306054592133,1.80034780502319,0.87838900089264
291,2397777251,-0.14760528504848,0.64936846494675,119.21563720703125,-0.12108992040157,-0.02287632226944,9.96969890594482,1.37860941886902,1.74607110023499,0.85236495733261
292,2397785584,-0.14744897186756,0.64963471889496,119.21549987792969,-0.11431505531073,-0.01818253472447,9.99229335784912,1.32925081253052,1.82780599594116,0.80871820449829
293,2397793917,-0.14703191816807,0.64996749162674,119.21542358398438,-0.12725737690926,-0.02685846760869,10.02521800994873,1.36362504959106,1.83395385742188,0.81484007835388
294,2397802250,-0.14638566970825,0.64941120147705,119.21369934082031,-0.12299390882254,-0.02928532287478,9.98183631896973,1.38936734199524,1.72906327247620,0.77946674823761
295,2397810583,-0.14582376182079,0.65011894702911,119.21417999267578,-0.13135488331318,-0.01316243223846,9.96947383880615,1.37827634811401,1.87993121147156,0.88138586282730
296,2397818916,-0.14588081836700,0.64888215065002,119.21412658691406,-0.12787216901779,-0.01800792478025,9.97955417633057,1.30545508861542,1.64550971984863,0.78843176364899
297,2397827249,-0.14577469229698,0.64909964799881,119.21431732177734,-0.14392600953579,-0.01185644976795,10.01498603820801,1.32430708408356,1.82096731662750,0.84975224733353
298,2397835582,-0.14558780193329,0.64948427677155,119.21211242675781,-0.11997218430042,0.00022607180290,9.98514461517334,1.33342587947845,1.84051108360291,0.79373389482498
299,2397843915,-0.14560943841934,0.65047961473465,119.21215820312500,-0.11532872170210,-0.02071215957403,9.97602176666260,1.31042408943176,1.91417741775513,0.82849240303040
300,2397852248,-0.14572694897652,0.64968210458755,119.21208953857422,-0.12927664816380,-0.00121845491230,9.98511028289795,1.29584980010986,1.69794189929962,0.89001780748367
301,2397860581,-0.14588353037834,0.64953726530075,119.21210479736328,-0.12215781956911,-0.02748324908316,10.01328754425049,1.29333961009979,1.77655231952667,0.82526499032974
302,2397868914,-0.14662703871727,0.64835995435715,119.21169281005859,-0.11209890246391,-0.02481587789953,9.97005748748779,1.22074878215790,1.65173375606537,0.77675169706345
303,2397877247,-0.14630267024040,0.64659839868546,119.21215820312500,-0.09675402194262,-0.03685673326254,9.99619007110596,1.35143256187439,1.58352315425873,0.88417774438858
304,2397885580,-0.14624305069447,0.64706569910049,119.21234893798828,-0.10799868404865,-0.01794504188001,9.99994087219238,1.31774997711182,1.84996247291565,0.82408684492111
305,2397893913,-0.14602755010128,0.64776009321213,119.21256256103516,-0.13458544015884,-0.03254462033510,10.01558113098145,1.33688378334045,1.87836885452271,0.85190379619598
306,2397902246,-0.14562852680683,0.64863985776901,119.21260833740234,-0.13425058126450,-0.00658006407320,9.98856449127197,1.35760569572449,1.89847588539124,0.87680095434189
307,2397910579,-0.14653053879738,0.64872115850449,119.21276855468750,-0.11784859001637,-0.02537017129362,9.99135112762451,1.20448374748230,1.80518865585327,0.84542340040207
308,2397918912,-0.14602388441563,0.64996176958084,119.21282196044922,-0.11184085905552,-0.04177118092775,9.96920680999756,1.37089967727661,1.94107258319855,0.77265340089798
309,2397927245,-0.14560113847256,0.65007758140564,119.21282196044922,-0.11757133901119,-0.01378397364169,9.97102069854736,1.36303591728210,1.80977368354797,0.82388180494308
310,2397935578,-0.14543685317039,0.65088510513306,119.21402740478516,-0.12859708070755,-0.01639970205724,9.98164176940918,1.33076190948486,1.88951086997986,0.88745647668839
311,2397943911,-0.14537777006626,0.65147650241852,119.21378326416016,-0.11098868399858,-0.02160188369453,9.99843883514404,1.31931245326996,1.86566400527954,0.79580873250961
312,2397952244,-0.14520891010761,0.65173226594925,119.21319580078125,-0.11296254396439,-0.03527135401964,9.98288917541504,1.33030080795288,1.82424581050873,0.78930264711380
313,2397960577,-0.14505332708359,0.65162688493729,119.21345520019531,-0.13479425013065,-0.01120536122471,10.00199890136719,1.33168423175812,1.78193128108978,0.85630959272385
314,2397968910,-0.14483939111233,0.65051370859146,119.21264648437500,-0.12354784458876,-0.02796421572566,10.00427436828613,1.33503949642181,1.65934133529663,0.87664717435837
315,2397977243,-0.14471811056137,0.64971858263016,119.21226501464844,-0.10970928519964,-0.03481935337186,9.96012210845947,1.32679164409637,1.69919729232788,0.77818602323532
316,2397985576,-0.14439207315445,0.64872884750366,119.21215820312500,-0.13096719980240,-0.02289890684187,9.99106979370117,1.34969091415405,1.67340350151062,0.80789852142334
317,2397993909,-0.14402861893177,0.64897406101227,119.21237182617188,-0.14330723881721,-0.01685653068125,10.02307701110840,1.35571014881134,1.82406675815582,0.85108417272568
318,2398002242,-0.14453932642937,0.64899551868439,119.21171569824219,-0.13098561763763,-0.02329862862825,10.01562404632568,1.24948787689209,1.79535281658173,0.86560732126236
319,2398010575,-0.14559000730515,0.64835125207901,119.21186828613281,-0.13024945557117,-0.01329423673451,10.00063705444336,1.18494021892548,1.71710157394409,0.84232419729233
320,2398018908,-0.14531274139881,0.64816117286682,119.21002197265625,-0.12574458122253,-0.03598826378584,9.99538421630859,1.34428644180298,1.76812505722046,0.78674125671387
321,2398027241,-0.14536570012569,0.64721852540970,119.21047210693359,-0.11250429600477,-0.02416949346662,9.98683643341064,1.30583930015564,1.68139517307281,0.87810719013214
322,2398035574,-0.14618004858494,0.64706486463547,119.20946502685547,-0.12041966617107,-0.02196109481156,10.04895210266113,1.21283388137817,1.77296602725983,0.75308400392532
323,2398043907,-0.14549598097801,0.64710414409637,119.20960235595703,-0.13238422572613,-0.03859385102987,9.98117923736572,1.39513063430786,1.80011725425720,0.84211927652359
324,2398052240,-0.14456528425217,0.64689779281616,119.20943450927734,-0.12762871384621,-0.02741826511919,9.98486900329590,1.42271685600281,1.76692104339600,0.79675632715225
325,2398060573,-0.14380879700184,0.64667862653732,119.20934295654297,-0.14283615350723,-0.02740349993110,10.00232028961182,1.40394198894501,1.76786899566650,0.81399482488632
326,2398068906,-0.14313828945160,0.64850318431854,119.20830535888672,-0.12923298776150,-0.00895110517740,10.01363563537598,1.39126276969910,2.00907802581787,0.80085462331772
327,2398077239,-0.14291113615036,0.64891946315765,119.20832824707031,-0.13944876194000,-0.02679244428873,9.98298549652100,1.33916354179382,1.84519851207733,0.82846689224243
328,2398085572,-0.14297029376030,0.64968031644821,119.20774078369141,-0.11200194060802,-0.01970891840756,9.99808216094971,1.30227899551392,1.88151931762695,0.86348152160645
329,2398093905,-0.14276897907257,0.64991837739944,119.20725250244141,-0.13273276388645,-0.02344943955541,10.01161193847656,1.33824121952057,1.82350277900696,0.76509708166122
330,2398102238,-0.14290404319763,0.64984309673309,119.20574951171875,-0.12734749913216,-0.02235676907003,10.00313663482666,1.29444086551666,1.78026604652405,0.77114206552505
331,2398110571,-0.14359897375107,0.65143263339996,119.20571136474609,-0.10711260139942,-0.02215394750237,9.99413299560547,1.22915041446686,1.98512899875641,0.81922012567520
332,2398118904,-0.14333444833755,0.65169274806976,119.20484924316406,-0.11382501572371,-0.00293766800314,10.00366592407227,1.34236538410187,1.82155644893646,0.85899907350540
333,2398127237,-0.14360217750072,0.65208452939987,119.20453643798828,-0.12944591045380,-0.00094314973103,10.02461242675781,1.28019952774048,1.84191977977753,0.78827810287476
334,2398135570,-0.14414176344872,0.65248352289200,119.20413970947266,-0.11050371825695,-0.00860796216875,10.00500297546387,1.24487745761871,1.83782148361206,0.84273397922516
335,2398143903,-0.14458690583706,0.65285968780518,119.20382690429688,-0.12259949743748,-0.03903578594327,9.95288944244385,1.26057887077332,1.83897399902344,0.78587037324905
336,2398152236,-0.14362099766731,0.65244835615158,119.20376586914062,-0.11877563595772,-0.02026051469147,9.99097824096680,1.42589330673218,1.74048721790314,0.78989177942276
337,2398160569,-0.14344890415668,0.65244054794312,119.20319366455078,-0.12868647277355,-0.01094096247107,10.01377201080322,1.33327209949493,1.79386723041534,0.75613218545914
338,2398168902,-0.14370217919350,0.65220522880554,119.20246887207031,-0.10790420323610,-0.01290528476238,9.99764537811279,1.27889323234558,1.76218259334564,0.85656559467316
339,2398177235,-0.14380627870560,0.65102511644363,119.20193481445312,-0.13154730200768,-0.02881641685963,10.01908016204834,1.30063951015472,1.65347564220428,0.76092201471329
340,2398185568,-0.14287874102592,0.65292716026306,119.20148468017578,-0.11580485105515,-0.02521735802293,10.00394058227539,1.42087280750275,2.01681351661682,0.84795922040939
341,2398193901,-0.14249758422375,0.65382522344589,119.20133972167969,-0.10916433483362,-0.02250050194561,10.01946926116943,1.35960376262665,1.90339398384094,0.80625927448273
342,2398202234,-0.14214809238911,0.65262198448181,119.19938659667969,-0.12164723128080,-0.01467221323401,9.98686504364014,1.35099720954895,1.64622700214386,0.77009207010269
343,2398210567,-0.14190877974033,0.65201538801193,119.19935607910156,-0.10509561747313,-0.01890041492879,10.01843929290771,1.34203219413757,1.72038006782532,0.82139730453491
344,2398218900,-0.14147020876408,0.65117877721786,119.19889068603516,-0.12647250294685,-0.02834185957909,9.99908161163330,1.36137092113495,1.68982219696045,0.85123783349991
345,2398227233,-0.14160798490047,0.65047335624695,119.19905853271484,-0.12393922358751,-0.01815632730722,9.98787975311279,1.29651570320129,1.71059536933899,0.84268271923065
346,2398235566,-0.14170989394188,0.65089344978333,119.19831848144531,-0.11804950982332,-0.01669336482882,10.01627731323242,1.29777073860168,1.84066450595856,0.80387705564499
347,2398243899,-0.14227755367756,0.64998304843903,119.19743347167969,-0.12182085216045,-0.02278413623571,10.00382328033447,1.24592757225037,1.68444323539734,0.71643012762070
348,2398252232,-0.14158889651299,0.64955937862396,119.19726562500000,-0.11527387797832,-0.04948993772268,9.99553012847900,1.39144194126129,1.73936021327972,0.82803136110306
349,2398260565,-0.14106126129627,0.64971852302551,119.19792175292969,-0.09244298189878,-0.01685507595539,10.03253936767578,1.37466466426849,1.81297552585602,0.90525823831558
350,2398268898,-0.14114245772362,0.64935094118118,119.19645690917969,-0.12888617813587,-0.00087441795040,10.02477836608887,1.30148494243622,1.74696767330170,0.75303286314011
351,2398277231,-0.14114604890347,0.64788168668747,119.19638061523438,-0.11178867518902,-0.02149114385247,10.00232982635498,1.31234526634216,1.61746203899384,0.81378984451294
352,2398285564,-0.14094562828541,0.64887493848801,119.19638824462891,-0.10907711833715,-0.02605446614325,9.96633815765381,1.33199155330658,1.90954136848450,0.91478687524796
353,2398293897,-0.14041534066200,0.64922833442688,119.19612121582031,-0.10271251946688,-0.00476588355377,10.01373195648193,1.37717485427856,1.83710408210754,0.79291415214539
354,2398302230,-0.13989844918251,0.65014302730560,119.19572448730469,-0.12983179092407,-0.01448182389140,10.01411533355713,1.37189853191376,1.90137040615082,0.79539883136749
355,2398310563,-0.14012369513512,0.65027898550034,119.19572448730469,-0.11796420812607,-0.03523489832878,9.98572158813477,1.28475856781006,1.81069576740265,0.82562357187271
356,2398318896,-0.13993561267853,0.64966756105423,119.19490051269531,-0.11849620193243,-0.02410676702857,9.98707866668701,1.33319532871246,1.71643543243408,0.83612549304962
357,2398327229,-0.13952232897282,0.65063077211380,119.19382476806641,-0.10625212639570,0.00350460084155,9.99763584136963,1.36370193958282,1.91128289699554,0.69611811637878
358,2398335562,-0.14042316377163,0.65018111467361,119.19287872314453,-0.12463610619307,-0.02150598540902,9.99443054199219,1.20092332363129,1.73590219020844,0.79309350252151
359,2398343895,-0.13970361649990,0.65029090642929,119.19280242919922,-0.11804049462080,-0.01379294507205,9.98005485534668,1.39853715896606,1.80798077583313,0.81637686491013
360,2398352228,-0.13952837884426,0.65025335550308,119.19161224365234,-0.11573303490877,-0.03862200677395,9.99349594116211,1.33063387870789,1.78485107421875,0.81724774837494
361,2398360561,-0.13992588222027,0.65137487649918,119.19196319580078,-0.10662702471018,-0.02838267758489,9.99027729034424,1.26398575305939,1.92944347858429,0.86978256702423
362,2398368894,-0.13989020884037,0.65105098485947,119.19132232666016,-0.13536286354065,-0.01993021741509,10.01316356658936,1.31449687480927,1.75124514102936,0.83084893226624
363,2398377227,-0.14018270373344,0.65141379833221,119.19211578369141,-0.12307600677013,-0.01962361298501,9.97406864166260,1.27602422237396,1.83905088901520,0.92119032144547
364,2398385560,-0.13932389020920,0.65067654848099,119.19162750244141,-0.12259379029274,-0.04327751696110,9.95039558410645,1.41265058517456,1.70052897930145,0.85049498081207
365,2398393893,-0.13824138045311,0.65014666318893,119.19226837158203,-0.11738009750843,-0.03273406624794,10.02609348297119,1.44046783447266,1.73129189014435,0.90172362327576
366,2398402226,-0.13804779946804,0.64973670244217,119.19100952148438,-0.14098383486271,-0.00824518688023,10.04269695281982,1.33327209949493,1.74210119247437,0.81402039527893
367,2398410559,-0.13795058429241,0.65113812685013,119.19069671630859,-0.11976803094149,-0.00878981687129,10.02483844757080,1.32469141483307,1.96146106719971,0.78774011135101
368,2398418892,-0.13757649064064,0.65106236934662,119.19026184082031,-0.13039785623550,-0.02384591102600,9.98474693298340,1.35491621494293,1.78152120113373,0.82682752609253
369,2398427225,-0.13698166608810,0.65107709169388,119.19057464599609,-0.12903372943401,-0.02356598339975,9.96308135986328,1.38309180736542,1.79530155658722,0.86225193738937
370,2398435558,-0.13726170361042,0.65122878551483,119.18949127197266,-0.12648183107376,-0.01896588131785,10.00394344329834,1.27679276466370,1.80828809738159,0.79083955287933
371,2398443891,-0.13809902966022,0.65043216943741,119.18920898437500,-0.11990121006966,-0.02891591563821,9.99831771850586,1.21198856830597,1.69968378543854,0.78994292020798
372,2398452224,-0.13780604302883,0.65075272321701,119.18801879882812,-0.10075502842665,-0.01970857568085,9.98874759674072,1.34536218643188,1.82760131359100,0.77547097206116
373,2398460557,-0.13737818598747,0.65140551328659,119.18725585937500,-0.11117557436228,-0.01954029314220,10.01024150848389,1.36482882499695,1.87334847450256,0.73535907268524
374,2398468890,-0.13628031313419,0.65267902612686,119.18659973144531,-0.12961424887180,-0.01602455414832,10.02147674560547,1.44113373756409,1.94330084323883,0.85326135158539
375,2398477223,-0.13693098723888,0.65308606624603,119.18737792968750,-0.11829762160778,-0.02130215615034,10.00494003295898,1.23350477218628,1.84202218055725,0.91893631219864
376,2398485556,-0.13650442659855,0.65283638238907,119.18610382080078,-0.11808920651674,-0.02404061146080,9.99263668060303,1.36288225650787,1.76087617874146,0.75746417045593
377,2398493889,-0.13665451109409,0.65203064680099,119.18699645996094,-0.11489980667830,-0.02063827589154,9.99121475219727,1.29195618629456,1.69663560390472,0.93210196495056
378,2398502222,-0.13656772673130,0.65342801809311,119.18707275390625,-0.12624309957027,-0.00594235910103,10.01148319244385,1.32013213634491,1.95749104022980,0.85000836849213
379,2398510555,-0.13691447675228,0.65304166078568,119.18718719482422,-0.11497715115547,-0.01690602302551,9.99353122711182,1.27154195308685,1.74796652793884,0.83884066343307
380,2398518888,-0.13646817207336,0.65359562635422,119.18627166748047,-0.11145661771297,-0.01952734030783,9.98705863952637,1.36183202266693,1.85664796829224,0.85746216773987
381,2398527221,-0.13544796407223,0.65411794185638,119.18653106689453,-0.11255569010973,-0.02932971343398,10.00285530090332,1.43411540985107,1.85664796829224,0.85784643888474
382,2398535554,-0.13582070171833,0.65435343980789,119.18592834472656,-0.13028529286385,0.00017078506062,10.01585102081299,1.26547122001648,1.81845700740814,0.82941454648972
383,2398543887,-0.13496933877468,0.65406024456024,119.18531036376953,-0.13124816119671,-0.01805888302624,9.99169063568115,1.41610872745514,1.75931382179260,0.74719291925430
384,2398552220,-0.13465641438961,0.65429598093033,119.18445587158203,-0.13730779290199,-0.03497853130102,9.98170661926270,1.34741115570068,1.81927657127380,0.76942592859268
385,2398560553,-0.13399913907051,0.65332508087158,119.18395996093750,-0.11518418788910,-0.02964567579329,9.99313926696777,1.39200556278229,1.67678451538086,0.76389324665070
386,2398568886,-0.13315010070801,0.65286427736282,119.18276977539062,-0.12673194706440,-0.01075057312846,10.01673221588135,1.41247141361237,1.73515939712524,0.71181952953339
387,2398577219,-0.13336224853992,0.65281653404236,119.18259429931641,-0.10855554044247,-0.01778199709952,10.00842571258545,1.28749930858612,1.78917980194092,0.80367219448090
388,2398585552,-0.13299821317196,0.65297877788544,119.18262481689453,-0.14147588610649,-0.02769526280463,9.97670745849609,1.35317432880402,1.80897986888885,0.84570515155792
389,2398593885,-0.13170774281025,0.65201050043106,119.18286895751953,-0.11349489539862,-0.02532450109720,10.00190258026123,1.46638941764832,1.67847549915314,0.85315901041031
390,2398602218,-0.13148108124733,0.65233808755875,119.18224334716797,-0.13450449705124,-0.01525560487062,10.02336406707764,1.33683252334595,1.82780623435974,0.85400426387787
391,2398610551,-0.13130111992359,0.65393316745758,119.18257904052734,-0.11801628023386,-0.00730900047347,10.01926612854004,1.33340048789978,1.98612785339355,0.86588919162750
392,2398618884,-0.13108883798122,0.65523749589920,119.18255615234375,-0.10643269866705,-0.02432984672487,9.99636554718018,1.33365643024445,1.94488894939423,0.90528392791748
393,2398627217,-0.13179729878902,0.65602660179138,119.18267822265625,-0.11966662108898,-0.03503991663456,9.96673774719238,1.22735714912415,1.88910102844238,0.83945530653000
394,2398635550,-0.13166919350624,0.65631926059723,119.18243408203125,-0.13345466554165,-0.01283755339682,10.01012325286865,1.32581853866577,1.82447648048401,0.84378421306610
395,2398643883,-0.13170778751373,0.65568262338638,119.18221282958984,-0.11189448088408,-0.00911451503634,10.02537536621094,1.30763220787048,1.71799790859222,0.79762721061707
396,2398652216,-0.13110706210136,0.65673828125000,119.18177795410156,-0.11731187254190,-0.02091144397855,10.01320934295654,1.38160634040833,1.91609835624695,0.82511132955551
397,2398660549,-0.13056890666485,0.65693449974060,119.18140411376953,-0.11516483128071,-0.03197462484241,10.01289463043213,1.37830197811127,1.81919980049133,0.78102922439575
398,2398668882,-0.13097818195820,0.65676957368851,119.18121337890625,-0.12440945953131,-0.00688875280321,9.99741935729980,1.25998973846436,1.76943123340607,0.82111543416977
399,2398677215,-0.13101458549500,0.65695309638977,119.18125915527344,-0.12799072265625,-0.02131174691021,10.00042533874512,1.30824697017670,1.81638205051422,0.83171981573105
400,2398685548,-0.13106873631477,0.65643215179443,119.18055725097656,-0.10281185805798,-0.00901810266078,9.98585033416748,1.30325222015381,1.72570776939392,0.82183277606964
401,2398693881,-0.13044622540474,0.65507286787033,119.18131256103516,-0.12889464199543,-0.00163683819119,9.96812343597412,1.38480794429779,1.63206219673157,0.91524779796600
402,2398702214,-0.13010169565678,0.65434890985489,119.18105316162109,-0.11585906893015,-0.03231941163540,10.03331756591797,1.35089468955994,1.70201468467712,0.87457239627838
403,2398710547,-0.13072615861893,0.65299457311630,119.18074035644531,-0.12210126221180,-0.01759451068938,10.00417423248291,1.23698830604553,1.63249766826630,0.79071146249771
404,2398718880,-0.13122467696667,0.65306472778320,119.17996215820312,-0.12197010219097,-0.02160618267953,9.97901725769043,1.25007688999176,1.79714596271515,0.80636167526245
405,2398727213,-0.13131326436996,0.65268015861511,119.18017578125000,-0.11486772447824,-0.01737234927714,9.99274444580078,1.30248367786407,1.74824833869934,0.84885573387146
406,2398735546,-0.13118140399456,0.65149247646332,119.17960357666016,-0.09856191277504,-0.01102799363434,9.99065589904785,1.32545971870422,1.64730250835419,0.80315989255905
407,2398743879,-0.13175633549690,0.65142953395844,119.18002319335938,-0.10614229738712,-0.01166355051100,10.00322437286377,1.24287950992584,1.78697705268860,0.87539207935333
408,2398752212,-0.13204590976238,0.65182274580002,119.17989349365234,-0.12945197522640,-0.04828057065606,9.99122047424316,1.27425694465637,1.83723235130310,0.83563882112503
409,2398760545,-0.13162608444691,0.65209585428238,119.17989349365234,-0.10652326792479,-0.00790969748050,9.95933532714844,1.36324083805084,1.82647430896759,0.82611030340195
410,2398768878,-0.13119189441204,0.65301185846329,119.18028259277344,-0.12132107466459,0.00500913709402,9.97373771667480,1.36134529113770,1.89916741847992,0.83461415767670
411,2398777211,-0.13105416297913,0.65334951877594,119.18022155761719,-0.10728621482849,0.01105131395161,9.98995208740234,1.32789301872253,1.83520841598511,0.81563401222229
412,2398785544,-0.13097013533115,0.65320026874542,119.18084716796875,-0.11233030259609,-0.02313042432070,9.99636459350586,1.31992709636688,1.77283799648285,0.81276518106461
413,2398793877,-0.13064512610435,0.65247130393982,119.18088531494141,-0.13301172852516,-0.01903323456645,10.01084041595459,1.35207295417786,1.70688140392303,0.82703244686127
414,2398802210,-0.13034148514271,0.65313893556595,119.18055725097656,-0.10791214555502,-0.01997764781117,9.99370479583740,1.34559261798859,1.86996734142303,0.74947255849838
415,2398810543,-0.12976711988449,0.65426218509674,119.18067169189453,-0.10972981899977,-0.00599418580532,10.00753593444824,1.38170862197876,1.92852139472961,0.83784162998199
416,2398818876,-0.12916594743729,0.65366268157959,119.18053436279297,-0.12113074213266,-0.01960145309567,10.01159763336182,1.37983894348145,1.71804940700531,0.83476793766022
417,2398827209,-0.12955345213413,0.65356987714767,119.18045043945312,-0.13693907856941,-0.00466847885400,10.00349712371826,1.26595795154572,1.78426194190979,0.81430208683014
418,2398835542,-0.12954458594322,0.65341979265213,119.17996215820312,-0.12057080119848,-0.02629335410893,10.02230072021484,1.31006586551666,1.77073776721954,0.87321496009827
419,2398843875,-0.12943434715271,0.65275013446808,119.17975616455078,-0.12372452020645,0.00197102967650,10.00520133972168,1.32599759101868,1.71466803550720,0.79747360944748
420,2398852208,-0.12975922226906,0.65235447883606,119.17905426025391,-0.10666759312153,-0.01822974532843,10.01843070983887,1.26969766616821,1.74251091480255,0.75871932506561
421,2398860541,-0.12974308431149,0.65264105796814,119.17879486083984,-0.11624999344349,-0.04281568899751,10.00507736206055,1.31444573402405,1.82821607589722,0.79222273826599
422,2398868874,-0.12901189923286,0.65402334928513,119.17759704589844,-0.13014310598373,-0.00341795966960,10.00617408752441,1.39874219894409,1.95603108406067,0.75387823581696
423,2398877207,-0.13004340231419,0.65299302339554,119.17749786376953,-0.12162216007710,-0.00854516588151,10.01541614532471,1.18773198127747,1.67122614383698,0.81133085489273
424,2398885540,-0.13041806221008,0.65307861566544,119.17649078369141,-0.11515378206968,-0.01735772006214,9.98212909698486,1.26457476615906,1.79939985275269,0.81860530376434
425,2398893873,-0.12952221930027,0.65220016241074,119.17604827880859,-0.09559954702854,-0.03623239323497,9.99004650115967,1.42069339752197,1.68982219696045,0.76940035820007
426,2398902206,-0.12957920134068,0.65187966823578,119.17578887939453,-0.08981090784073,-0.01883415691555,10.00441455841064,1.30225336551666,1.75170624256134,0.79965072870255
427,2398910539,-0.12977527081966,0.65092325210571,119.17604827880859,-0.10728930681944,-0.01342207100242,9.99132728576660,1.28911328315735,1.68037068843842,0.85449081659317
428,2398918872,-0.12957151234150,0.65150856971741,119.17500305175781,-0.12096808850765,-0.04185311123729,9.99636554718018,1.33286225795746,1.86005437374115,0.77388286590576
429,2398927205,-0.12906566262245,0.65185290575027,119.17430114746094,-0.12292050570250,0.00975634250790,10.04205989837646,1.37358903884888,1.83623325824738,0.74104541540146
430,2398935538,-0.12942515313625,0.65161371231079,119.17389678955078,-0.11969687789679,-0.02765688113868,9.99064254760742,1.26626527309418,1.76059436798096,0.83015727996826
431,2398943871,-0.12890084087849,0.65145212411880,119.17474365234375,-0.16002133488655,-0.02100026234984,10.00074481964111,1.37476742267609,1.77488732337952,0.92452019453049
432,2398952204,-0.12877759337425,0.65103685855865,119.17555999755859,-0.10056634247303,-0.00502746552229,10.01201534271240,1.32300078868866,1.74092257022858,0.86545377969742
433,2398960537,-0.13104663789272,0.65096968412399,119.17539978027344,-0.10291457176208,-0.04668859019876,9.97515010833740,1.04001486301422,1.78695154190063,0.80462002754211
434,2398968870,-0.12968151271343,0.65247565507889,119.17528533935547,-0.12359894812107,-0.01746872998774,9.98543453216553,1.47389435768127,1.97124576568604,0.69022685289383
435,2398977203,-0.12928019464016,0.65273845195770,119.17526245117188,-0.11155837029219,-0.00869210250676,9.98650741577148,1.36060261726379,1.82527053356171,0.82139730453491
436,2398985536,-0.13191314041615,0.65139377117157,119.17428588867188,-0.12020649760962,-0.03215274587274,10.00842761993408,0.99501055479050,1.62862968444824,0.68538570404053
437,2398993869,-0.12996381521225,0.65008556842804,119.17424774169922,-0.12384873628616,-0.02866614796221,10.00803756713867,1.54645943641663,1.63785099983215,0.82039839029312
438,2399002202,-0.12930572032928,0.65080922842026,119.17533111572266,-0.10677583515644,0.00517473835498,10.02778625488281,1.38588380813599,1.87703692913055,0.89301472902298
439,2399010535,-0.13009355962276,0.65005350112915,119.17526245117188,-0.11686005443335,-0.00955203827471,10.01917171478271,1.21974980831146,1.70390999317169,0.81514739990234
440,2399018868,-0.12872344255447,0.65000867843628,119.17636871337891,-0.12041027098894,-0.03858286142349,10.00139522552490,1.47310030460358,1.78456938266754,0.82149976491928
441,2399027201,-0.12872925400734,0.64903342723846,119.17630767822266,-0.13485497236252,-0.01251723524183,9.97015380859375,1.31096196174622,1.67862880229950,0.81824672222137
442,2399035534,-0.12815767526627,0.65063977241516,119.17742919921875,-0.07937118411064,-0.06508779525757,10.06672859191895,1.37735426425934,1.98297727108002,0.86332774162292
443,2399043867,-0.12701059877872,0.64984774589539,119.17768859863281,-0.03623234853148,-0.05994353815913,9.86821460723877,1.44902288913727,1.69799315929413,0.85677039623260
444,2399052200,-0.12610532343388,0.65367245674133,119.17886352539062,-0.12198428064585,0.01005989126861,10.09858989715576,1.41841387748718,2.25049257278442,0.87557137012482
445,2399060533,-0.12501138448715,0.65607607364655,119.17960357666016,-0.15230987966061,0.04871345311403,10.03105258941650,1.44292676448822,2.08379459381104,0.91381335258484
446,2399068866,-0.12531983852386,0.65581315755844,119.17890930175781,0.11326460540295,-0.03673323616385,9.98682594299316,1.27136242389679,1.75887823104858,0.85861468315125
447,2399077199,-0.12459033727646,0.65559631586075,119.17901611328125,0.61107486486435,-0.03488440811634,10.03393840789795,1.39943373203278,1.76766383647919,0.83786725997925
448,2399085532,-0.12399967014790,0.65653896331787,119.17781066894531,0.60110259056091,-0.01803417876363,10.00966548919678,1.38019752502441,1.91133427619934,0.84035187959671
449,2399093865,-0.12607702612877,0.65879428386688,119.17820739746094,-0.59879434108734,-0.07072144001722,9.91382789611816,1.06191492080688,2.06614661216736,0.87229275703430
450,2399102198,-0.12329304218292,0.65819603204727,119.17607879638672,-1.02839231491089,0.04055928811431,9.99070835113525,1.64407527446747,1.72762882709503,0.82631516456604
451,2399110531,-0.12229335308075,0.65582072734833,119.17585754394531,-0.35795772075653,0.07533460110426,10.04240226745605,1.43262970447540,1.51024091243744,0.79857492446899
452,2399118864,-0.12710182368755,0.65618759393692,119.17288208007812,-0.22295299172401,-0.00914458744228,10.01453781127930,0.73251593112946,1.83433806896210,0.77549660205841
453,2399127197,-0.12745904922485,0.65663576126099,119.17326354980469,-0.19802360236645,-0.00918686576188,10.01781749725342,1.26831448078156,1.84837424755096,0.86939841508865
454,2399135530,-0.12634474039078,0.65744704008102,119.17108917236328,-0.10920137166977,-0.07996781170368,9.92045783996582,1.44259369373322,1.88807642459869,0.83369213342667
455,2399143863,-0.12625518441200,0.65779441595078,119.17139434814453,-0.13247022032738,0.00024691922590,10.08857440948486,1.32261669635773,1.83520889282227,0.86337906122208
456,2399152196,-0.12216416746378,0.65676176548004,119.16945648193359,-0.13561622798443,-0.05797003954649,9.91997718811035,1.79845225811005,1.66559112071991,0.85843539237976
457,2399160529,-0.12464017421007,0.65594273805618,119.16918182373047,0.00529863731936,-0.02287472784519,9.99512672424316,1.01552760601044,1.69758331775665,0.79334968328476
458,2399168862,-0.12773834168911,0.65651386976242,119.16645050048828,-0.19014625251293,-0.02239377424121,10.10556507110596,0.93888974189758,1.85856878757477,0.66645675897598
459,2399177195,-0.12567363679409,0.65594804286957,119.16617584228516,-0.17362684011459,-0.03482552617788,9.93315124511719,1.56077790260315,1.72683501243591,0.79224830865860
460,2399185528,-0.12589845061302,0.65499931573868,119.16576385498047,-0.15027524530888,-0.06911993026733,9.97667312622070,1.28117287158966,1.67596495151520,0.87785100936890
461,2399193861,-0.12290486693382,0.65386801958084,119.16726684570312,-0.05220378562808,0.00124418595806,10.03042602539062,1.67081654071808,1.65775334835052,1.00766408443451
462,2399202194,-0.12114794552326,0.65345835685730,119.16802978515625,0.00421826960519,-0.01790908910334,9.99320411682129,1.51953887939453,1.74079453945160,0.85656571388245
463,2399210527,-0.12405939400196,0.65425997972488,119.16757202148438,-0.06398205459118,0.02423133142292,9.98526477813721,0.96319788694382,1.89076602458954,0.77144962549210
464,2399218860,-0.12659403681755,0.65476143360138,119.16661071777344,-0.12967930734158,0.00191162992269,10.00582695007324,1.00658810138702,1.85298490524292,0.69027799367905
465,2399227193,-0.12651027739048,0.65492320060730,119.16567230224609,-0.14896933734417,-0.01055099349469,10.00139331817627,1.32348752021790,1.81366705894470,0.70823353528976
466,2399235526,-0.12239725887775,0.65510386228561,119.16455078125000,-0.25541082024574,0.04191372916102,10.04140949249268,1.80424118041992,1.81320631504059,0.78056824207306
467,2399243859,-0.12083756178617,0.65624713897705,119.16505432128906,-0.13898608088493,-0.02690192125738,10.00513267517090,1.49835586547852,1.93203067779541,0.88794308900833
468,2399252192,-0.12235793471336,0.65614861249924,119.16493225097656,-0.06036795303226,-0.03217238187790,9.99906826019287,1.12520778179169,1.77767908573151,0.84065914154053
469,2399260525,-0.12343987822533,0.65616226196289,119.16470336914062,-0.07756964117289,-0.05623545497656,10.03121948242188,1.18432557582855,1.79542982578278,0.79749929904938
470,2399268858,-0.12570278346539,0.65728509426117,119.16247558593750,-0.16286963224411,-0.08684701472521,9.94080448150635,1.03750455379486,1.92493534088135,0.73149126768112
471,2399277191,-0.12496842443943,0.65697467327118,119.16152954101562,-0.19194425642490,-0.09102909266949,10.00109672546387,1.40240502357483,1.75905776023865,0.71240872144699
472,2399285524,-0.12065305560827,0.65631890296936,119.16031646728516,-0.23706409335136,-0.02038083225489,10.01704883575439,1.82644879817963,1.71026265621185,0.88089919090271
473,2399293857,-0.12259779870510,0.65263229608536,119.16101074218750,-0.09625187516212,0.00768801895902,10.03038120269775,1.07917881011963,1.35135567188263,0.90828073024750
474,2399302190,-0.12483571469784,0.65087741613388,119.16043853759766,-0.10754707455635,0.00636801728979,9.97201919555664,1.03914391994476,1.57868218421936,0.89042770862579
475,2399310523,-0.12466225028038,0.65268063545227,119.16104888916016,-0.12742705643177,-0.03581577539444,10.04998970031738,1.33404052257538,2.01143479347229,0.89885485172272
476,2399318856,-0.13816471397877,0.65664863586426,119.15988922119141,-0.03031866066158,0.04132573679090,9.99206352233887,1.31283211708069,1.83843588829041,0.84299015998840
477,2399327189,-0.13644865155220,0.65662014484406,119.15888214111328,-0.09663119912148,-0.01368854567409,9.94703292846680,1.53557336330414,1.78779673576355,0.70472449064255
478,2399335522,-0.13330033421516,0.65502399206161,119.15815734863281,-0.13743062317371,0.01582419686019,9.99709033966064,1.68877232074738,1.59727811813354,0.77096295356750
479,2399343855,-0.13552367687225,0.65536952018738,119.15800476074219,-0.12715268135071,0.03122319094837,10.03073978424072,1.05184853076935,1.83459401130676,0.80687397718430
480,2399352188,-0.13962477445602,0.65526014566422,119.15862274169922,-0.13105602562428,-0.05322443321347,9.97591018676758,0.81829792261124,1.77632164955139,0.85735964775085
481,2399360521,-0.13821968436241,0.65593558549881,119.15911102294922,-0.16089312732220,-0.06266550719738,9.99943923950195,1.48567688465118,1.87498772144318,0.88520228862762
482,2399368854,-0.13664989173412,0.65538197755814,119.15956115722656,-0.03977306559682,-0.01908926106989,9.97379302978516,1.49925255775452,1.72212195396423,0.86033099889755
483,2399377187,-0.13598269224167,0.65447515249252,119.15890502929688,-0.09413509815931,-0.09665133804083,10.01221179962158,1.39679539203644,1.68362367153168,0.74703913927078
484,2399385520,-0.13424864411354,0.65387791395187,119.15751647949219,-0.13124339282513,-0.00711712986231,10.05856990814209,1.52204906940460,1.71843338012695,0.75999993085861
485,2399393853,-0.13661020994186,0.65614557266235,119.15763854980469,-0.27104067802429,0.04915638267994,10.01181507110596,1.03356003761292,2.06568574905396,0.84073609113693
486,2399402186,-0.13937383890152,0.65631490945816,119.15746307373047,-0.16555465757847,-0.05689511075616,9.95816707611084,0.97966760396957,1.80751967430115,0.84455239772797
487,2399410519,-0.13580782711506,0.65589356422424,119.15886688232422,-0.16157349944115,-0.03299050405622,10.00492668151855,1.74307417869568,1.74269020557404,0.99370425939560
488,2399418852,-0.13488914072514,0.65458679199219,119.15817260742188,-0.04100448638201,0.01966324076056,10.01555538177490,1.42161571979523,1.63149857521057,0.87631416320801
489,2399427185,-0.13579300045967,0.65414273738861,119.15811920166016,-0.05431147292256,-0.01730237342417,10.02545452117920,1.20814669132233,1.74038493633270,0.81791383028030
490,2399435518,-0.13552357256413,0.65564471483231,119.15670776367188,-0.03713599964976,-0.00640316121280,9.97879886627197,1.34520852565765,1.96776258945465,0.73694717884064
491,2399443851,-0.13813325762749,0.65717732906342,119.15643310546875,-0.10403440147638,0.00163942144718,9.96074867248535,1.00464141368866,1.97726511955261,0.79181271791458
492,2399452184,-0.13841220736504,0.65820187330246,119.15605163574219,-0.14500540494919,-0.04034121707082,9.98059654235840,1.27771496772766,1.91338336467743,0.86524891853333
493,2399460517,-0.13637332618237,0.65819859504700,119.15592956542969,-0.13045972585678,-0.03857030719519,9.99021434783936,1.56231474876404,1.79207456111908,0.81058812141418
494,2399468850,-0.13483218848705,0.65760743618011,119.15547943115234,-0.09350567311049,-0.01331367436796,10.00780487060547,1.49489796161652,1.71833109855652,0.87718516588211
495,2399477183,-0.13648010790348,0.65746396780014,119.15541076660156,-0.07474225759506,-0.00148732040543,9.98914909362793,1.12059724330902,1.77601408958435,0.81545472145081
496,2399485516,-0.13761064410210,0.65810072422028,119.15446472167969,-0.09766807407141,-0.02511503733695,10.02059268951416,1.17612886428833,1.86684250831604,0.78838056325912
497,2399493849,-0.13874901831150,0.65884864330292,119.15422058105469,-0.14574822783470,-0.01720039546490,9.97512912750244,1.18120038509369,1.88346588611603,0.79452782869339
498,2399502182,-0.13823428750038,0.65879917144775,119.15224456787109,-0.18094617128372,-0.03394579514861,9.98946857452393,1.37417817115784,1.78339123725891,0.71660947799683
499,2399510515,-0.13487032055855,0.65946447849274,119.15238952636719,-0.21908295154572,-0.02579388022423,10.01014709472656,1.72068738937378,1.87291276454926,0.84368163347244
500,2399518848,-0.13387802243233,0.65916073322296,119.15191650390625,-0.17553238570690,0.02186437509954,10.01339244842529,1.43140029907227,1.75196254253387,0.88315320014954
501,2399527181,-0.13771711289883,0.65944457054138,119.15225219726562,-0.11783757805824,-0.04145303368568,9.99073219299316,0.85548979043961,1.82798528671265,0.86778461933136
502,2399535514,-0.13890062272549,0.65999239683151,119.15138244628906,-0.04028175398707,-0.05807065218687,9.99370098114014,1.16844451427460,1.85388135910034,0.85100734233856
503,2399543847,-0.13765674829483,0.65944081544876,119.15109252929688,-0.13085879385471,-0.04854978993535,10.03154373168945,1.46815681457520,1.72655332088470,0.78989183902740
504,2399552180,-0.13689632713795,0.65968298912048,119.14920806884766,0.04726548492908,-0.02768354676664,9.94928264617920,1.40407001972198,1.81822669506073,0.80587506294250
505,2399560513,-0.13439416885376,0.65582841634750,119.14846801757812,-0.16847027838230,0.00870308559388,10.01994895935059,1.61759006977081,1.33106935024261,0.73699831962585
506,2399568846,-0.13408276438713,0.65829128026962,119.14787292480469,-0.14607940614223,0.04155944660306,9.97537612915039,1.34989595413208,2.08479404449463,0.80392837524414
507,2399577179,-0.13761731982231,0.65895891189575,119.14797973632812,-0.06832280755043,-0.00916542112827,9.98399162292480,0.89339888095856,1.87350189685822,0.83978825807571
508,2399585512,-0.13749618828297,0.65975838899612,119.14863586425781,-0.10270623862743,-0.01073538698256,10.02650070190430,1.32553672790527,1.88479781150818,0.90438741445541
509,2399593845,-0.13486284017563,0.66069066524506,119.14881134033203,-0.09595763683319,-0.00515877129510,9.97349262237549,1.63301002979279,1.90534067153931,0.84501367807388
510,2399602178,-0.13417127728462,0.65960115194321,119.14732360839844,-0.08788377791643,-0.04288351908326,9.98467540740967,1.39538669586182,1.66000723838806,0.69306993484497
511,2399610511,-0.13384456932545,0.66063219308853,119.14698028564453,-0.16064475476742,-0.04737114161253,10.02241134643555,1.35778498649597,1.91743028163910,0.78310400247574
512,2399618844,-0.13496074080467,0.66074138879776,119.14616394042969,-0.18378120660782,-0.01084301341325,10.02165222167969,1.17799854278564,1.80352389812469,0.76181858778000
513,2399627177,-0.13808947801590,0.66094338893890,119.14635467529297,-0.18411664664745,-0.06346984207630,9.99602413177490,0.94191235303879,1.81699705123901,0.85216003656387
514,2399635510,-0.13657024502754,0.66110152006149,119.14704895019531,-0.18117721378803,-0.08314751833677,9.98963260650635,1.49418079853058,1.80798077583313,0.88348627090454
515,2399643843,-0.13317833840847,0.66065740585327,119.14763641357422,-0.09659704566002,-0.02333310991526,9.99892330169678,1.72314643859863,1.73900163173676,0.89759957790375
516,2399652176,-0.13188351690769,0.66042810678482,119.14836120605469,-0.09375536441803,0.00945707131177,10.01131534576416,1.46654307842255,1.76277172565460,0.88223117589951
517,2399660509,-0.13353662192822,0.66052430868149,119.14758300781250,-0.08655165880919,0.00760147999972,9.97775173187256,1.12098145484924,1.80393385887146,0.73154258728027
518,2399668842,-0.13417954742908,0.66193592548370,119.14775085449219,-0.13948282599449,-0.00844099558890,10.02667331695557,1.23506724834442,1.95905363559723,0.84345120191574
519,2399677175,-0.13523456454277,0.66189748048782,119.14758300781250,-0.14229635894299,0.00404319912195,9.96422481536865,1.19103634357452,1.78912854194641,0.80784732103348
520,2399685508,-0.13477724790573,0.66138482093811,119.14823913574219,-0.12540087103844,-0.00370018789545,9.99382400512695,1.36608397960663,1.72739827632904,0.86742603778839
521,2399693841,-0.13149689137936,0.66051036119461,119.14818572998047,-0.06355877965689,0.01013106666505,9.99007511138916,1.71059536933899,1.68777310848236,0.81906634569168
522,2399702174,-0.13309691846371,0.66043770313263,119.14727020263672,-0.05797244608402,0.00344019290060,9.97915267944336,1.12126314640045,1.78203368186951,0.71942704916000
523,2399710507,-0.13535681366920,0.66203635931015,119.14714813232422,-0.05360267683864,-0.04825652763247,9.98760414123535,1.04554748535156,1.98507750034332,0.81253474950790
524,2399718840,-0.13482663035393,0.66141700744629,119.14658355712891,-0.16471728682518,-0.02571852691472,9.98922729492188,1.37761044502258,1.71594882011414,0.74381172657013
525,2399727173,-0.13441027700901,0.66346216201782,119.14651489257812,-0.17847768962383,-0.02605460770428,10.01575565338135,1.36621224880219,2.03784298896790,0.81881028413773
526,2399735506,-0.13355140388012,0.66345047950745,119.14714813232422,-0.18732909858227,-0.05585300922394,10.00531482696533,1.41526329517365,1.78777110576630,0.85146838426590
527,2399743839,-0.13054078817368,0.66260498762131,119.14799499511719,-0.17605370283127,-0.01037051528692,10.04338932037354,1.67706644535065,1.69266533851624,0.92559599876404
528,2399752172,-0.13282272219658,0.66262084245682,119.14841461181641,-0.15370655059814,0.00709113571793,10.02843379974365,1.03796565532684,1.79035818576813,0.85799998044968
529,2399760505,-0.13665939867496,0.66177177429199,119.14789581298828,-0.12847757339478,-0.05373061075807,10.01480197906494,0.85866594314575,1.69084680080414,0.76332986354828
530,2399768838,-0.13472561538219,0.66231185197830,119.14749908447266,-0.07390487939119,-0.03562685102224,9.96313190460205,1.54310393333435,1.85459852218628,0.82088488340378
531,2399777171,-0.13378718495369,0.66308152675629,119.14844512939453,-0.11259169876575,0.01656273752451,10.01409435272217,1.42876207828522,1.88420891761780,0.93978631496429
532,2399785504,-0.13404381275177,0.66237294673920,119.14870452880859,-0.12940637767315,0.01352768391371,10.04430484771729,1.28135216236115,1.70516514778137,0.82344645261765
533,2399793837,-0.13336710631847,0.66229224205017,119.14884185791016,-0.11503925919533,0.00568152545020,10.01418209075928,1.39956176280975,1.78295576572418,0.84091538190842
534,2399802170,-0.13563328981400,0.66329038143158,119.14860534667969,-0.08883296698332,0.00712959002703,10.03122806549072,1.03845226764679,1.90969491004944,0.83691948652267
535,2399810503,-0.13640266656876,0.66364842653275,119.14894866943359,-0.06611371785402,-0.04088494181633,9.97693061828613,1.22494947910309,1.83610510826111,0.86709308624268
536,2399818836,-0.13381160795689,0.66326779127121,119.14903259277344,-0.08955392241478,-0.04137467965484,9.99285888671875,1.62268745899200,1.74248528480530,0.83420449495316
537,2399827169,-0.13256816565990,0.66417223215103,119.14813232421875,-0.09065129607916,0.00134076329414,10.01095008850098,1.46823358535767,1.90283036231995,0.71778780221939
538,2399835502,-0.13307468593121,0.66414254903793,119.14729309082031,-0.12029390782118,-0.04003301635385,9.99895381927490,1.25248479843140,1.78608047962189,0.71189635992050
539,2399843835,-0.13279879093170,0.66517406702042,119.14666748046875,-0.18574793636799,-0.01049211900681,10.00938701629639,1.35120201110840,1.91663646697998,0.74995917081833
540,2399852168,-0.13303689658642,0.66561788320541,119.14706420898438,-0.20105956494808,0.00808122288436,10.00016975402832,1.28306829929352,1.84371244907379,0.88725143671036
541,2399860501,-0.13407683372498,0.66539210081100,119.14680480957031,-0.16508075594902,-0.03569599986076,9.99572086334229,1.19183039665222,1.76605021953583,0.79263246059418
542,2399868834,-0.13067114353180,0.66627895832062,119.14780426025391,-0.15385547280312,-0.04419085383415,10.01360416412354,1.71907365322113,1.89476168155670,0.93883854150772
543,2399877167,-0.12840147316456,0.66527307033539,119.14849853515625,-0.11045619100332,0.00174108520150,10.01899719238281,1.58895337581635,1.67178988456726,0.90669280290604
544,2399885500,-0.13015677034855,0.66403609514236,119.14837646484375,-0.11610637605190,-0.01681904494762,10.03017330169678,1.10233414173126,1.64084768295288,0.85858911275864
545,2399893833,-0.13119341433048,0.66443657875061,119.14867401123047,-0.11218588799238,-0.02596567384899,9.98384666442871,1.19124138355255,1.84056222438812,0.85938328504562
546,2399902166,-0.13212978839874,0.66516333818436,119.14836120605469,-0.11973749846220,-0.01017660740763,10.00948810577393,1.20176863670349,1.87614011764526,0.72980076074600
547,2399910499,-0.13165667653084,0.66504174470901,119.14888000488281,-0.09176526218653,-0.01589183509350,9.97555160522461,1.37312793731689,1.77852427959442,0.88901883363724
548,2399918832,-0.12884145975113,0.66469913721085,119.14884185791016,-0.07235445827246,-0.01449838839471,10.00290775299072,1.64866042137146,1.74899125099182,0.84626877307892
549,2399927165,-0.12832754850388,0.66515856981277,119.14918518066406,-0.06134073063731,0.02409784868360,10.02496433258057,1.37871193885803,1.84809279441833,0.86755418777466
550,2399935498,-0.13085173070431,0.66511684656143,119.14971160888672,-0.07794474065304,-0.00776336342096,9.99142265319824,1.00802254676819,1.78403139114380,0.88527911901474
551,2399943831,-0.13095751404762,0.66660702228546,119.14979553222656,-0.13532957434654,-0.03000099584460,9.98994636535645,1.30453300476074,1.97242414951324,0.83584374189377
552,2399952164,-0.12983843684196,0.66597485542297,119.14944458007812,-0.17029285430908,0.01472234725952,9.98607635498047,1.44653832912445,1.71392548084259,0.80239152908325
553,2399960497,-0.12918606400490,0.66538524627686,119.15050506591797,-0.17673319578171,-0.00821605324745,10.02737903594971,1.39469516277313,1.72212171554565,0.95300316810608
554,2399968830,-0.12838943302631,0.66552501916885,119.15069580078125,-0.16147911548615,-0.02254086174071,9.98892784118652,1.40681064128876,1.80459964275360,0.87042289972305
555,2399977163,-0.12791970372200,0.66687697172165,119.15122985839844,-0.12631163001060,-0.02583532780409,10.01913928985596,1.37264120578766,1.95669698715210,0.88937747478485
556,2399985496,-0.13074778020382,0.66683423519135,119.15045166015625,-0.11300692707300,-0.03652654588223,10.01548194885254,0.97395563125610,1.78282749652863,0.74437528848648
557,2399993829,-0.13108369708061,0.66618102788925,119.15038299560547,-0.12551468610764,-0.08165096491575,10.00256252288818,1.27617800235748,1.71548771858215,0.81468635797501
558,2400002162,-0.12969526648521,0.66574537754059,119.15010070800781,-0.07821743935347,-0.03922226279974,9.98462772369385,1.47883772850037,1.73674774169922,0.84657615423203
559,2400010495,-0.12869328260422,0.66565465927124,119.15042114257812,-0.17719623446465,-0.01339619886130,10.01819610595703,1.43777847290039,1.78203368186951,0.86581248044968
560,2400018828,-0.12857684493065,0.66501414775848,119.14991760253906,-0.11824233084917,-0.00679719587788,10.01727676391602,1.32474267482758,1.71249103546143,0.84811300039291
561,2400027161,-0.13038516044617,0.66503298282623,119.15007019042969,-0.11528610438108,0.00987403094769,9.98656082153320,1.10061800479889,1.79563450813293,0.84347671270370
562,2400035494,-0.13084003329277,0.66485077142715,119.14908599853516,-0.07604651898146,-0.00782953482121,9.97249126434326,1.25835037231445,1.76648569107056,0.76947718858719
563,2400043827,-0.12896387279034,0.66476100683212,119.14896392822266,-0.07230062037706,0.00279269530438,9.97236251831055,1.54271972179413,1.78359591960907,0.80779606103897
564,2400052160,-0.12685552239418,0.66517245769501,119.14772033691406,-0.11277012526989,0.02784583158791,9.98651218414307,1.56526041030884,1.83733475208282,0.83945536613464
565,2400060493,-0.12596519291401,0.66531318426132,119.14751434326172,-0.12163954973221,-0.00933905877173,10.01064014434814,1.42407464981079,1.81031179428101,0.79913854598999
566,2400068826,-0.12678310275078,0.66608601808548,119.14556121826172,-0.15390250086784,-0.02053064294159,10.00407600402832,1.21408903598785,1.88267183303833,0.75480031967163
567,2400077159,-0.12780807912350,0.66687148809433,119.14550781250000,-0.04735593870282,-0.03953753411770,10.00948524475098,1.19462227821350,1.88692390918732,0.81901520490646
568,2400085492,-0.12483335286379,0.67043435573578,119.14583587646484,0.58879357576370,-0.01737448945642,10.03438377380371,1.66694867610931,2.21701431274414,1.06521916389465
569,2400093825,-0.12358138710260,0.66969954967499,119.14566802978516,0.93284100294113,-0.09294821321964,10.04441642761230,1.46784949302673,1.70542156696320,0.80508106946945
570,2400102158,-0.12493298202753,0.66936242580414,119.14411163330078,0.42459532618523,-0.11860746890306,9.98989677429199,1.14838850498199,1.75731575489044,0.82762157917023
571,2400110491,-0.12215193361044,0.66990220546722,119.14408874511719,0.15965141355991,-0.06609144806862,10.01596450805664,1.65147793292999,1.85823607444763,0.82206320762634
572,2400118824,-0.12202558666468,0.67152273654938,119.14411163330078,-0.11321081221104,-0.00182512076572,9.95004081726074,1.32907140254974,1.99752593040466,0.81468635797501
573,2400127157,-0.12647376954556,0.67152798175812,119.14379882812500,0.13203831017017,-0.01982984505594,10.01538562774658,0.78359061479568,1.79266345500946,0.78815001249313
574,2400135490,-0.12408620864153,0.67199891805649,119.14616394042969,-0.83170211315155,0.06151368096471,9.97461795806885,1.59940385818481,1.86095082759857,0.83794397115707
575,2400143823,-0.12202350795269,0.67219132184982,119.14729309082031,-0.13901625573635,0.09074319154024,9.99107456207275,1.56367218494415,1.81648457050323,0.96294152736664
576,2400152156,-0.12285413593054,0.67163372039795,119.14898681640625,0.10357569158077,-0.01520110666752,10.00510501861572,1.21357679367065,1.73180401325226,0.76148557662964
577,2400160489,-0.12342206388712,0.67457669973373,119.15013885498047,0.22693938016891,-0.01072049327195,10.02172756195068,1.24720835685730,2.14575576782227,0.96493959426880
578,2400168822,-0.12375534325838,0.67395961284637,119.14827728271484,-0.69372761249542,0.02663249708712,9.95270061492920,1.27407753467560,1.72983169555664,0.61632972955704
579,2400177155,-0.12564148008823,0.67532563209534,119.14885711669922,-0.21328191459179,-0.06468297541142,9.97462368011475,1.09108960628510,1.95626163482666,0.89442354440689
580,2400185488,-0.12299000471830,0.67412620782852,119.14912414550781,-0.56118673086166,-0.02156833000481,9.96617317199707,1.63052523136139,1.65642130374908,0.70551854372025
581,2400193821,-0.12079104036093,0.67384409904480,119.15003967285156,-0.05262389779091,0.01777991652489,10.08526515960693,1.58032143115997,1.75851964950562,0.93484276533127
582,2400202154,-0.12320210039616,0.67522984743118,119.15304565429688,-0.12336695194244,-0.10246910899878,10.03181838989258,1.02262282371521,1.96345937252045,0.88863474130630
583,2400210487,-0.12521605193615,0.67514497041702,119.15290069580078,-0.81591117382050,-0.08204499632120,9.97180938720703,1.07543933391571,1.78390347957611,0.80567026138306
584,2400218820,-0.12184393405914,0.67462831735611,119.15632629394531,0.15895546972752,-0.00704045454040,10.00089359283447,1.71589779853821,1.73134315013885,0.91739952564240
585,2400227153,-0.12186052650213,0.67592966556549,119.15602874755859,0.04857798665762,-0.04665060713887,9.99524307250977,1.31641805171967,1.94931995868683,0.79178720712662
586,2400235486,-0.12273040413857,0.67530173063278,119.15810394287109,-0.15737104415894,-0.01840064488351,9.98547077178955,1.20958101749420,1.72068738937378,0.78991734981537
587,2400243819,-0.12070800364017,0.67490988969803,119.15881347656250,0.71667701005936,0.03877198323607,10.06933498382568,1.55860054492950,1.74660897254944,0.91276323795319
588,2400252152,-0.12470112740993,0.67429566383362,119.15961456298828,0.25614368915558,-0.00645316438749,9.96066379547119,0.83382016420364,1.72611761093140,0.79340094327927
589,2400260485,-0.12384783476591,0.67580831050873,119.16116333007812,-0.12758322060108,-0.01237110607326,10.02076911926270,1.41746616363525,1.97483181953430,1.01081454753876
590,2400268818,-0.11933693289757,0.67510634660721,119.16201019287109,-0.63565099239349,0.05091879144311,9.98635101318359,1.85421454906464,1.71561574935913,0.78612649440765
591,2400277151,-0.12300118058920,0.67407989501953,119.16136932373047,-0.53767049312592,0.01089375466108,9.94152355194092,0.87838900089264,1.67097032070160,0.74714165925980
592,2400285484,-0.12150598317385,0.67608487606049,119.16424560546875,-0.13472354412079,-0.03830876946449,10.01534843444824,1.49208033084869,2.03733062744141,0.82352328300476
593,2400293817,-0.12267700582743,0.67735612392426,119.16365051269531,-0.59157329797745,0.02476117014885,9.98286151885986,1.17779374122620,1.94581103324890,0.75474911928177
594,2400302150,-0.12850546836853,0.67808395624161,119.16696929931641,0.00942104682326,-0.05053617432714,10.03293991088867,0.61233389377594,1.88328659534454,0.91670775413513
595,2400310483,-0.12494184076786,0.67722684144974,119.16764068603516,0.05499187856913,-0.12100426852703,9.98565292358398,1.74343299865723,1.69025790691376,0.90635979175568
596,2400318816,-0.12033712863922,0.67700320482254,119.17143249511719,0.67466777563095,-0.05068254470825,10.00453758239746,1.86284661293030,1.76784336566925,0.95415586233139
597,2400327149,-0.12324236333370,0.67770254611969,119.17196655273438,0.96320891380310,-0.08756142109632,10.11635017395020,0.96873033046722,1.87726724147797,0.88883954286575
598,2400335482,-0.12445973604918,0.67766964435577,119.17350006103516,-0.14990501105785,-0.03306563198566,9.95829868316650,1.16798365116119,1.80080890655518,0.68979144096375
599,2400343815,-0.12237089872360,0.67777222394943,119.17247009277344,-0.97803026437759,-0.04210587590933,9.96750926971436,1.56933283805847,1.80680251121521,0.70311075448990
600,2400352148,-0.12141684442759,0.67657124996185,119.17536926269531,0.63947868347168,-0.00639182096347,10.06606864929199,1.42758369445801,1.65483307838440,0.86230319738388
601,2400360481,-0.12454337626696,0.67743009328842,119.17624664306641,-0.11259318888187,-0.04550443217158,9.92638683319092,0.94134873151779,1.89581191539764,0.93158966302872
602,2400368814,-0.12020725011826,0.67581635713577,119.17943572998047,-0.66109931468964,0.11653874814510,10.06579685211182,1.83359503746033,1.61031556129456,0.91873133182526
603,2400377147,-0.12173140794039,0.67377555370331,119.18065643310547,0.40771976113319,0.05326810106635,9.96880340576172,1.13176476955414,1.54832911491394,0.96867913007736
604,2400385480,-0.12943105399609,0.67553704977036,119.18299102783203,0.40742096304893,-0.11173254996538,9.95813846588135,0.38841423392296,2.01425194740295,0.83092576265335
605,2400393813,-0.12274286150932,0.67677032947540,119.18190002441406,0.05286881700158,-0.00688974931836,10.02103710174561,2.12267756462097,1.94245541095734,0.69350546598434
606,2400402146,-0.12021210789680,0.67740625143051,119.18364715576172,0.32887035608292,0.06372444331646,10.03007698059082,1.61607885360718,1.88241600990295,0.75544065237045
607,2400410479,-0.12810185551643,0.68010103702545,119.18211364746094,-1.09558796882629,-0.03087097220123,9.91543388366699,0.37255907058716,2.11619687080383,0.64358335733414
608,2400418812,-0.11982037127018,0.67796981334686,119.18515014648438,-0.38117292523384,-0.02733017131686,10.11039352416992,2.30556273460388,1.54835486412048,0.94616425037384
609,2400427145,-0.12037835270166,0.67972171306610,119.18532562255859,-0.03206304833293,0.03477491438389,9.96774578094482,1.25066637992859,2.00354552268982,0.84591019153595
610,2400435478,-0.13533444702625,0.68043595552444,119.18769073486328,-0.51796329021454,-0.08927248418331,10.01343727111816,-0.48309731483459,1.88984394073486,0.84808737039566
611,2400443811,-0.12948998808861,0.67901766300201,119.18857574462891,0.45575734972954,-0.18730099499226,9.99177455902100,2.01794075965881,1.62214946746826,0.92905396223068
612,2400452144,-0.11895558983088,0.67964041233063,119.19088745117188,-0.21752710640430,-0.07299147546291,9.91639900207520,2.57712507247925,1.87762606143951,0.86020296812057
613,2400460477,-0.12250271439552,0.67808210849762,119.18957519531250,0.29080215096474,0.08011275529861,10.15435409545898,0.89452600479126,1.60724210739136,0.66586774587631
614,2400468810,-0.12259753793478,0.67805796861649,119.19320678710938,0.42780184745789,-0.04476435109973,10.00935935974121,1.29859042167664,1.80073177814484,1.03829860687256
615,2400477143,-0.12417080998421,0.67914175987244,119.19326019287109,-0.11753872781992,-0.03000400401652,9.93247604370117,1.12864005565643,1.92339861392975,0.83251386880875
616,2400485476,-0.12388350814581,0.67737102508545,119.19436645507812,-0.11654545366764,0.17941881716251,10.06926727294922,1.34695029258728,1.59463977813721,0.95733201503754
617,2400493809,-0.12293832749128,0.67843955755234,119.19666290283203,0.19537827372551,-0.07030362635851,9.92905426025391,1.42681527137756,1.92170786857605,1.09928607940674
618,2400502142,-0.12434317916632,0.67759454250336,119.19845581054688,0.58471119403839,-0.00464383792132,10.03256034851074,1.14480257034302,1.70693254470825,0.85994666814804
619,2400510475,-0.12015596777201,0.68072789907455,119.19747161865234,0.49622082710266,0.04116473719478,9.99292659759521,1.82101833820343,2.16868019104004,0.70779806375504
620,2400518808,-0.12610569596291,0.68271392583847,119.19636535644531,-0.71911466121674,-0.06366010010242,9.89187049865723,0.60075628757477,2.05239176750183,0.69560575485229
621,2400527141,-0.12626841664314,0.68530738353729,119.19609069824219,-0.14162388443947,-0.07478593289852,10.02229213714600,1.29887223243713,2.10446572303772,0.79265815019608
622,2400535474,-0.11651543527842,0.68433928489685,119.19522094726562,-1.49645566940308,0.15071383118629,10.03345966339111,2.48447823524475,1.69448423385620,0.72534388303757
623,2400543807,-0.12324976176023,0.68673169612885,119.19635009765625,0.15384754538536,-0.17191593348980,10.01682090759277,0.50746911764145,2.08049058914185,0.96127659082413
624,2400552140,-0.12674254179001,0.68432241678238,119.19522094726562,-1.52125906944275,-0.02892651595175,9.92028903961182,0.89578104019165,1.51690042018890,0.69273692369461
625,2400560473,-0.11930436640978,0.68562704324722,119.19683074951172,-0.14100588858128,0.01198732294142,10.14680576324463,2.20787048339844,1.95024228096008,1.01893436908722
626,2400568806,-0.12739333510399,0.68379640579224,119.19560241699219,-0.82376986742020,-0.05507775396109,9.92361927032471,0.34379428625107,1.58157658576965,0.67762470245361
627,2400577139,-0.12768490612507,0.68362647294998,119.19676208496094,0.26902267336845,-0.01689138822258,9.97335243225098,1.28032767772675,1.77130115032196,0.96637380123138
628,2400585472,-0.11864156275988,0.68414604663849,119.19928741455078,0.61127698421478,-0.06609703600407,10.10188293457031,2.39541769027710,1.86207818984985,1.12433683872223
629,2400593805,-0.12391206622124,0.68179649114609,119.19757843017578,-0.13735333085060,0.10006213188171,9.91978454589844,0.68751168251038,1.51057410240173,0.61789220571518
630,2400602138,-0.12571676075459,0.68380540609360,119.20099639892578,0.71918004751205,-0.10606168955564,10.10187530517578,1.09139716625214,2.04286360740662,1.24072813987732
631,2400610471,-0.12258363515139,0.68066781759262,119.19956207275391,0.37229564785957,-0.08363756537437,9.92341327667236,1.69545733928680,1.41628789901733,0.65167731046677
632,2400618804,-0.12282896041870,0.68137121200562,119.19893646240234,-0.00308504560962,0.15359812974930,9.96446704864502,1.28496372699738,1.89168798923492,0.74988234043121
633,2400627137,-0.12396077066660,0.68345910310745,119.20110321044922,1.46118545532227,-0.10308051854372,10.11564636230469,1.17871594429016,2.04335021972656,1.08460915088654
634,2400635470,-0.12780715525150,0.68412888050079,119.19921875000000,0.97026288509369,-0.16743718087673,9.88363647460938,0.85446530580521,1.89381420612335,0.59496748447418
635,2400643803,-0.12462884932756,0.68684113025665,119.19693756103516,-0.46534043550491,0.02996728755534,9.99808025360107,1.70150244235992,2.12070512771606,0.55147451162338
636,2400652136,-0.12031842768192,0.68825668096542,119.19747161865234,-0.77025145292282,0.11205756664276,10.04057216644287,1.82952237129211,1.98492383956909,0.88901883363724
637,2400660469,-0.12714019417763,0.68931782245636,119.19638824462891,-0.60343837738037,-0.12818862497807,9.89824581146240,0.50073266029358,1.92050409317017,0.69529837369919
638,2400668802,-0.12102949619293,0.69062232971191,119.19553375244141,-1.32830238342285,0.09656427800655,10.08601474761963,2.04908776283264,1.96947848796844,0.72396075725555
639,2400677135,-0.12018160521984,0.69248551130295,119.19638061523438,-0.68289196491241,0.02760519087315,9.99853229522705,1.41690266132355,2.01658296585083,0.92662048339844
640,2400685468,-0.13276337087154,0.69167125225067,119.19550323486328,-0.30914899706841,-0.07279309630394,10.04827213287354,-0.19560308754444,1.70667636394501,0.71694236993790
641,2400693801,-0.13011874258518,0.69165694713593,119.19618988037109,-0.29999697208405,-0.13588427007198,9.98361206054688,1.63408577442169,1.79081928730011,0.90815275907516
642,2400702134,-0.12127716094255,0.68917512893677,119.19788360595703,0.31808066368103,-0.19792386889458,10.01906013488770,2.37187814712524,1.50539994239807,1.02487671375275
643,2400710467,-0.12794452905655,0.68695646524429,119.19724273681641,-0.63621991872787,-0.00728273484856,10.02428436279297,0.51894438266754,1.52763283252716,0.74878090620041
644,2400718800,-0.12611828744411,0.68478119373322,119.19795989990234,0.08372161537409,-0.02224267646670,10.00650310516357,1.53173124790192,1.54110610485077,0.91176444292068
645,2400727133,-0.12117708474398,0.68536657094955,119.19734954833984,-1.27873456478119,0.04383791610599,9.94634056091309,1.91120624542236,1.86428093910217,0.75067639350891
646,2400735466,-0.12748505175114,0.68430906534195,119.19702148437500,-0.25384959578514,0.11939849704504,10.03931903839111,0.55821096897125,1.67186677455902,0.78082436323166
647,2400743799,-0.12466911971569,0.68267560005188,119.19724273681641,-1.35461986064911,0.04077704250813,9.94221401214600,1.65473079681396,1.59681701660156,0.84967547655106
648,2400752132,-0.12157059460878,0.68341946601868,119.19712829589844,-0.66113150119781,0.13916212320328,9.93362522125244,1.68582642078400,1.88356828689575,0.81122845411301
649,2400760465,-0.12422781437635,0.68510180711746,119.19574737548828,-0.98364102840424,0.15060627460480,9.97202682495117,1.00059449672699,1.99499046802521,0.65795290470123
650,2400768798,-0.12579621374607,0.68364483118057,119.19443511962891,-0.12716466188431,0.03105297684669,10.05060100555420,1.12523329257965,1.61436271667480,0.66466373205185
651,2400777131,-0.12873435020447,0.68431866168976,119.19208526611328,-0.13069620728493,0.00933218654245,9.99542522430420,0.96942186355591,1.87524366378784,0.54402065277100
652,2400785464,-0.13088539242744,0.68664926290512,119.19049072265625,-0.76920127868652,-0.03648892417550,10.05149459838867,1.05522966384888,2.06896448135376,0.63326078653336
653,2400793797,-0.13050055503845,0.68607127666473,119.18389129638672,-6.32156658172607,-0.18246112763882,9.72817802429199,1.37369155883789,1.72481143474579,0.03578308969736
654,2400802130,-0.12180815637112,0.68858516216278,119.18599700927734,-1.34024417400360,0.35146465897560,10.33607673645020,2.35328197479248,2.06550621986389,1.07566976547241
655,2400810463,-0.11679530143738,0.68080389499664,119.18483734130859,-3.23389172554016,-0.04863111302257,9.97704696655273,1.92024791240692,0.85992103815079,0.68423306941986
656,2400818796,-0.12635317444801,0.68004435300827,119.18129730224609,-1.37367999553680,0.21606902778149,9.96157741546631,0.16823428869247,1.65724110603333,0.39899292588234
657,2400827129,-0.14034810662270,0.68067789077759,119.19019317626953,0.82725131511688,-0.27627804875374,9.92932987213135,-0.37385258078575,1.86812317371368,1.89286661148071
658,2400835462,-0.14873389899731,0.67315942049026,119.18722534179688,-0.05803816765547,-0.24706634879112,10.06336307525635,0.30975291132927,0.84588444232941,0.46971383690834
659,2400843795,-0.13761357963085,0.66690802574158,119.18981933593750,1.91357493400574,-0.21343536674976,9.78146457672119,2.64751315116882,1.04234576225281,1.13417279720306
660,2400852128,-0.11054923385382,0.67361754179001,119.19059753417969,0.50657594203949,-0.12503263354301,10.19772338867188,4.56051206588745,2.55927181243896,0.91837280988693
661,2400860461,-0.11495506018400,0.67068725824356,119.18916320800781,1.97723376750946,0.41663092374802,10.05827999114990,0.78981488943100,1.44259369373322,0.65113943815231
662,2400868794,-0.14543905854225,0.66621166467667,119.19028472900391,0.83362591266632,-0.09468962997198,10.10679340362549,-2.34794163703918,1.22850990295410,0.95669168233871
663,2400877127,-0.16027520596981,0.66870760917664,119.18934631347656,1.05105268955231,-0.08471453189850,9.84314346313477,-0.46173498034477,2.09250354766846,0.71310031414032
664,2400885460,-0.15943922102451,0.66514134407043,119.19222259521484,1.10945773124695,-0.27721202373505,9.73219490051270,1.40865492820740,1.34523403644562,1.17251729965210
665,2400893793,-0.12170587480068,0.66444331407547,119.19222259521484,1.46215820312500,0.01369641534984,10.12751579284668,5.84532260894775,1.70826470851898,0.82554686069489
666,2400902126,-0.10466917604208,0.66564780473709,119.19110870361328,0.41413792967796,0.40191471576691,10.08246898651123,3.36043381690979,1.92926394939423,0.69693762063980
667,2400910459,-0.13743615150452,0.67102408409119,119.18855285644531,0.64654272794724,0.13665445148945,9.97990417480469,-2.61071848869324,2.43834757804871,0.51794546842575
668,2400918792,-0.16788929700851,0.67307531833649,119.18655395507812,0.15856243669987,-0.23353973031044,10.02934741973877,-2.34100031852722,2.03587055206299,0.58766740560532
669,2400927125,-0.17323656380177,0.67367768287659,119.18490600585938,-0.66350680589676,-0.23604474961758,9.98701190948486,0.67721474170685,1.86645805835724,0.62754869461060
670,2400935458,-0.14331535995007,0.67602765560150,119.18521881103516,-1.08296263217926,-0.22146329283714,10.01621723175049,4.90361452102661,2.06768345832825,0.85641193389893
671,2400943791,-0.09902906417847,0.68157690763474,119.18653106689453,-3.82871174812317,0.13487461209297,9.86956596374512,6.62993812561035,2.45988893508911,0.98404777050018
672,2400952124,-0.11210200190544,0.68531739711761,119.18537902832031,-3.99341273307800,0.47138625383377,10.09022521972656,-0.25482323765755,2.21952486038208,0.69038051366806
673,2400960457,-0.14333833754063,0.68083608150482,119.18395996093750,-2.98333239555359,0.01655340753496,10.04417991638184,-2.42831873893738,1.25591719150543,0.65252262353897
674,2400968790,-0.14425238966942,0.67297405004501,119.18235015869141,-2.37560224533081,-0.24039274454117,10.01490974426270,1.20450925827026,0.80590069293976,0.63402915000916
675,2400977123,-0.11697719246149,0.67162060737610,119.18472290039062,-2.72165369987488,0.13353478908539,9.93473148345947,4.58622932434082,1.62975716590881,1.11106872558594
676,2400985456,-0.10565869510174,0.67726230621338,119.18752288818359,-1.68036568164825,-0.00786512158811,10.08307266235352,2.66549396514893,2.40881371498108,1.16583192348480
677,2400993789,-0.11670561879873,0.67424124479294,119.18660736083984,-1.73059463500977,0.20886301994324,10.13600730895996,-0.00680057890713,1.43063187599182,0.71402245759964
678,2401002122,-0.10994990170002,0.66474252939224,119.18849945068359,-1.63752067089081,0.04107986763120,9.79707908630371,2.12134504318237,0.58082836866379,0.81860530376434
679,2401010455,-0.10672413557768,0.66242796182632,119.18639373779297,-2.36790585517883,0.18797802925110,9.58458518981934,1.70795714855194,1.51608085632324,0.57452726364136
680,2401018788,-0.11991963535547,0.67410337924957,119.18677520751953,-2.66594243049622,0.09467536211014,10.32798385620117,-0.27144685387611,3.11092591285706,0.59025442600250
681,2401027121,-0.11529318243265,0.66870373487473,119.18630981445312,-2.11157226562500,0.17646488547325,9.80213260650635,1.87339949607849,1.14562225341797,0.76786351203918
682,2401035454,-0.10083466768265,0.66565781831741,119.18817901611328,-3.46384072303772,0.19477532804012,9.67008304595947,3.04589128494263,1.32973742485046,0.73907321691513
683,2401043787,-0.10394597053528,0.66352015733719,119.18886566162109,-0.16576161980629,0.21118216216564,10.02925491333008,0.94275748729706,1.53682839870453,0.90561681985855
684,2401052120,-0.11620682477951,0.65571719408035,119.18859100341797,0.41261163353920,-0.25025615096092,9.87247562408447,-0.16379022598267,0.74839669466019,0.74931883811951
685,2401060453,-0.12270554900169,0.65154641866684,119.18923187255859,2.60017299652100,-0.26130813360214,10.31765556335449,0.53682309389114,1.29249417781830,0.90180033445358
686,2401068786,-0.11971108615398,0.65307378768921,119.18769073486328,1.58924520015717,-0.06526063382626,10.30931758880615,1.66805016994476,1.87911140918732,0.82134604454041
687,2401077119,-0.11021301895380,0.65644711256027,119.18840026855469,2.71224474906921,-0.50213187932968,10.05238723754883,2.45730137825012,2.19749665260315,0.91284006834030
688,2401085452,-0.10071998834610,0.64622414112091,119.18598175048828,3.00716280937195,-0.41464254260063,10.09561920166016,2.44656920433044,0.48531290888786,1.02812969684601
689,2401093785,-0.10273999720812,0.63911586999893,119.18634033203125,3.22890067100525,0.23176641762257,9.99413776397705,1.07531106472015,0.94106698036194,0.86489009857178
690,2401102118,-0.11412053555250,0.64142328500748,119.18772125244141,4.15447473526001,-0.32137235999107,10.04080963134766,-0.05562131479383,2.01074314117432,0.99255168437958
691,2401110451,-0.12807120382786,0.63456809520721,119.19113159179688,9.57292270660400,-0.27190133929253,10.12645149230957,-0.36212125420570,0.96978044509888,1.23273622989655
692,2401118784,-0.14735512435436,0.64898961782455,119.19367218017578,2.59235167503357,-0.28185796737671,9.60504436492920,-1.00411629676819,3.50966238975525,1.13094532489777
