sep=,
DeviceTag:,left leg
FirmwareVersion:,2.2.1
AppVersion:,2023.6.0
StartTime: ,2025-04-02_17:16:50_000 PDT
© Movella Technologies B. V. 2005-2025

PacketCounter,SampleTimeFine,Euler_X,Euler_Y,Euler_Z,Acc_X,Acc_Y,Acc_Z,Gyr_X,Gyr_Y,Gyr_Z
0,2465342849,-0.04051605984569,0.70746439695358,118.46258544921875,0.00000000000000,0.00000000000000,0.00000000000000,0.00000000000000,0.00000000000000,0.00000000000000
1,2465351182,-0.02977423928678,0.72115367650986,118.46948242187500,-0.13800878822803,-0.01800573803484,10.03439998626709,1.27859854698181,1.64255118370056,0.82950425148010
2,2465359515,-0.02522271499038,0.74691230058670,118.46523284912109,-0.12023958563805,-0.02181307971478,10.02342891693115,1.26563775539398,1.92120862007141,0.80145663022995
3,2465367848,-0.01482820603997,0.76193308830261,118.47206115722656,-0.12668013572693,-0.01811165362597,9.99408626556396,1.23605322837830,1.80320370197296,0.82120507955551
4,2465376181,-0.01910931617022,0.77591568231583,118.48501586914062,-0.14390029013157,-0.00531781557947,9.99584293365479,1.24742603302002,1.80819845199585,0.91464602947235
5,2465384514,-0.00758071057498,0.79115861654282,118.49148559570312,-0.12822735309601,-0.03458626940846,9.99590492248535,1.37219285964966,1.82933020591736,0.77871114015579
6,2465392847,-0.01310119219124,0.80564010143280,118.49203491210938,-0.13091729581356,-0.00509492540732,9.99765491485596,1.26389586925507,1.76383459568024,0.81959146261215
7,2465401180,-0.00197655381635,0.82046121358871,118.49898529052734,-0.14092916250229,-0.02510780282319,10.04158878326416,1.32291114330292,1.77858829498291,0.83608698844910
8,2465409513,-0.00360231916420,0.83382230997086,118.50737762451172,-0.11413358151913,-0.01600177027285,10.01233768463135,1.32303929328918,1.86869919300079,0.79994529485703
9,2465417846,0.00816769152880,0.84827315807343,118.51434326171875,-0.12775382399559,-0.01947283744812,10.00130081176758,1.39993321895599,1.73425030708313,0.83626645803452
10,2465426179,0.00798446871340,0.85363340377808,118.52291107177734,-0.11749027669430,-0.03201211243868,9.99586486816406,1.37027180194855,1.60313105583191,0.83639442920685
11,2465434512,0.01864434219897,0.86940866708755,118.52963256835938,-0.12180881202221,-0.02464386634529,10.01963996887207,1.26737964153290,1.89172637462616,0.80465841293335
12,2465442845,0.01684172451496,0.87223553657532,118.53454589843750,-0.14276544749737,-0.00066374614835,10.01212406158447,1.30792689323425,1.64590680599213,0.87230557203293
13,2465451178,0.02757243439555,0.88688284158707,118.54183959960938,-0.12867943942547,-0.01720652543008,9.99940776824951,1.27360367774963,1.75737977027893,0.87532800436020
14,2465459511,0.02897857129574,0.89342695474625,118.55645751953125,-0.13308167457581,-0.02268939651549,10.00855159759521,1.33290076255798,1.91795551776886,0.84569245576859
15,2465467844,0.03918239474297,0.90775042772293,118.56327819824219,-0.11958234012127,-0.02246903628111,10.02141952514648,1.21143805980682,1.71967577934265,0.81623607873917
16,2465476177,0.04049604386091,0.91315412521362,118.57025146484375,-0.12176285684109,-0.03005380369723,9.98115730285645,1.32931482791901,1.82133865356445,0.91797584295273
17,2465484510,0.05192979052663,0.92804318666458,118.57666015625000,-0.12811246514320,-0.00786048825830,9.98835086822510,1.35920643806458,1.78819370269775,0.76733839511871
18,2465492843,0.05344313010573,0.93344855308533,118.58414459228516,-0.14361573755741,-0.02972045354545,9.99200439453125,1.27703619003296,1.86232149600983,0.87345826625824
19,2465501176,0.06446783244610,0.94757711887360,118.59072875976562,-0.13724584877491,-0.02036333270371,10.00297737121582,1.30982244014740,1.69654595851898,0.78867512941360
20,2465509509,0.06649672240019,0.95256412029266,118.59580230712891,-0.11585183441639,-0.02768986299634,9.99215888977051,1.35574865341187,1.67018890380859,0.76595526933670
21,2465517842,0.07770816236734,0.96690595149994,118.60391235351562,-0.13450536131859,-0.01855525374413,9.96818161010742,1.32895636558533,1.72315943241119,0.97227799892426
22,2465526175,0.07983905822039,0.97198724746704,118.61080932617188,-0.14464764297009,-0.02919098362327,10.00295639038086,1.34396612644196,1.72951149940491,0.89364224672318
23,2465534508,0.09040509909391,0.98593282699585,118.61837005615234,-0.12519608438015,-0.02365103922784,9.99757194519043,1.25370156764984,1.67559361457825,0.90327310562134
24,2465542841,0.09254021942616,0.99202734231949,118.63033294677734,-0.12578716874123,-0.00899340398610,10.00298690795898,1.34460628032684,1.80453562736511,0.75573509931564
25,2465551174,0.10370828956366,1.00678598880768,118.63773345947266,-0.13027465343475,-0.02902022004128,10.00122928619385,1.32606184482574,1.77215945720673,0.88529205322266
26,2465559507,0.10656949132681,1.01371347904205,118.64849090576172,-0.12534692883492,-0.02177680283785,9.98657894134521,1.37700843811035,1.92133653163910,0.91946142911911
27,2465567840,0.11794377118349,1.02922129631042,118.65634155273438,-0.12469781190157,-0.01592567935586,10.01403141021729,1.34890949726105,1.86244940757751,0.93920993804932
28,2465576173,0.12066230922937,1.03424870967865,118.66710662841797,-0.12007257342339,-0.00657697021961,10.00851535797119,1.31618750095367,1.71474492549896,0.86084318161011
29,2465584506,0.13078099489212,1.04889106750488,118.67410278320312,-0.11339835822582,-0.01951080374420,9.99034786224365,1.20000147819519,1.75916016101837,0.83561325073242
30,2465592839,0.13367150723934,1.05551087856293,118.67698669433594,-0.13094560801983,-0.02666481770575,10.03420162200928,1.27721548080444,1.95919430255890,0.89597320556641
31,2465601172,0.14464890956879,1.07105886936188,118.68475341796875,-0.14456276595592,-0.01197628676891,10.01749610900879,1.29980719089508,1.86908364295959,0.92914360761642
32,2465609505,0.14751653373241,1.07648408412933,118.69117736816406,-0.13292272388935,-0.02645081095397,10.03052330017090,1.25085842609406,1.76555073261261,0.82929927110672
33,2465617838,0.15867289900780,1.09140133857727,118.69796752929688,-0.14050728082657,-0.00834750756621,9.99371337890625,1.32480657100677,1.79318845272064,0.80988365411758
34,2465626171,0.16211578249931,1.09705293178558,118.70436096191406,-0.13597548007965,-0.02101483754814,10.00482940673828,1.29650294780731,1.76237475872040,0.87704426050186
35,2465634504,0.17247001826763,1.11143088340759,118.71143341064453,-0.09839928150177,-0.02843242324889,10.00895595550537,1.22611486911774,1.72800016403198,0.84569239616394
36,2465642837,0.17569096386433,1.11891865730286,118.71748352050781,-0.13567376136780,-0.01188294030726,10.02127456665039,1.27419281005859,2.02146267890930,0.88580423593521
37,2465651170,0.18635685741901,1.13329172134399,118.72467041015625,-0.11870102584362,-0.01902199722826,10.03068447113037,1.26376795768738,1.72792339324951,0.85737246274948
38,2465659503,0.18939276039600,1.13817179203033,118.72528839111328,-0.12099245190620,-0.02286312542856,10.00506877899170,1.22596120834351,1.70674049854279,0.85563069581985
39,2465667836,0.20065639913082,1.15392458438873,118.73201751708984,-0.13423228263855,-0.01383980643004,9.99387168884277,1.33664035797119,1.89474892616272,0.80299347639084
40,2465676169,0.20445238053799,1.15959775447845,118.73629760742188,-0.14577767252922,-0.01574024558067,9.96262741088867,1.30119037628174,1.80028378963470,0.92945098876953
41,2465684502,0.21525692939758,1.17474615573883,118.74289703369141,-0.12647275626659,-0.00107141048647,9.96823596954346,1.28246641159058,1.82269620895386,0.78496110439301
42,2465692835,0.21989721059799,1.17979693412781,118.75055694580078,-0.11854511499405,0.01035602297634,10.01220512390137,1.36845338344574,1.70151519775391,0.87781262397766
43,2465701168,0.23131139576435,1.19531869888306,118.75765991210938,-0.11195980757475,-0.00794245488942,10.01062679290771,1.35436546802521,1.86700880527496,0.84582042694092
44,2465709501,0.23629431426525,1.20139539241791,118.75979614257812,-0.13861660659313,-0.01858069561422,10.01408767700195,1.36430370807648,1.85048758983612,0.82302379608154
45,2465717834,0.24672025442123,1.21480321884155,118.76700592041016,-0.12821348011494,-0.01130695268512,9.98852157592773,1.23382496833801,1.61499023437500,0.86100965738297
46,2465726167,0.25150093436241,1.22051954269409,118.76911163330078,-0.14019250869751,-0.01280246954411,10.02869796752930,1.33423268795013,1.79185676574707,0.88211590051651
47,2465734500,0.26318964362144,1.23633503913879,118.77597808837891,-0.12598121166229,-0.00752584449947,10.00687503814697,1.38585793972015,1.90449512004852,0.81635123491287
48,2465742833,0.26830330491066,1.24094915390015,118.78050231933594,-0.12685570120811,-0.01831146329641,9.99418258666992,1.36180639266968,1.64904439449310,0.85846102237701
49,2465751166,0.27977195382118,1.25610196590424,118.78810882568359,-0.11662501096725,-0.02557181939483,10.00540542602539,1.35878384113312,1.82468116283417,0.90507894754410
50,2465759499,0.28335386514664,1.26246154308319,118.79674530029297,-0.13779379427433,-0.01978346891701,10.01423549652100,1.18674588203430,1.86629164218903,0.91346758604050
51,2465767832,0.29395708441734,1.27695679664612,118.80387115478516,-0.12761084735394,-0.00887004192919,10.01246738433838,1.25569939613342,1.74767220020294,0.84576928615570
52,2465776165,0.29800570011139,1.28359854221344,118.80379486083984,-0.13906262814999,-0.01274796202779,9.99221134185791,1.24015164375305,1.89006149768829,0.79407960176468
53,2465784498,0.30941712856293,1.29872095584869,118.81150817871094,-0.12177386134863,-0.00904576014727,10.00711917877197,1.35044658184052,1.82313179969788,0.91820633411407
54,2465792831,0.31475549936295,1.30379903316498,118.81719207763672,-0.13378356397152,-0.02148024179041,10.01258659362793,1.38494884967804,1.69803154468536,0.85030293464661
55,2465801164,0.32595366239548,1.31835210323334,118.82415008544922,-0.12332254648209,-0.00497311959043,10.00893688201904,1.32793164253235,1.75553560256958,0.82822346687317
56,2465809497,0.33055517077446,1.32341825962067,118.83243560791016,-0.12957087159157,-0.02321519516408,10.00175571441650,1.29276311397552,1.69705832004547,0.90040433406830
57,2465817830,0.34145992994308,1.33843016624451,118.83972167968750,-0.13920305669308,0.00433000130579,10.00313854217529,1.29184114933014,1.80996572971344,0.86367362737656
58,2465826163,0.34646457433701,1.34433472156525,118.84265899658203,-0.13441717624664,0.00613964349031,9.99956417083740,1.33410465717316,1.78868055343628,0.89694643020630
59,2465834496,0.35733279585838,1.35883557796478,118.84955596923828,-0.12453847378492,-0.01570058614016,10.00551700592041,1.28870332241058,1.75070726871490,0.81975793838501
60,2465842829,0.36219587922096,1.36456418037415,118.85257720947266,-0.10726007074118,-0.01005509030074,10.02593517303467,1.30858004093170,1.76528167724609,0.80180239677429
61,2465851162,0.37364324927330,1.37978160381317,118.85903167724609,-0.12651215493679,-0.01706961542368,10.03488063812256,1.36006474494934,1.83697593212128,0.76407265663147
62,2465859495,0.37785813212395,1.38481068611145,118.86018371582031,-0.14169271290302,-0.01705916039646,10.01267433166504,1.22874033451080,1.69573903083801,0.90156984329224
63,2465867828,0.38847661018372,1.40044796466827,118.86711883544922,-0.13271188735962,-0.02314176037908,9.98363685607910,1.25814557075500,1.88856339454651,0.82027035951614
64,2465876161,0.39276567101479,1.40454411506653,118.86930847167969,-0.13207337260246,-0.00252349860966,10.00540733337402,1.24871957302094,1.57209920883179,0.80746310949326
65,2465884494,0.40475004911423,1.41990947723389,118.87664031982422,-0.15767529606819,-0.03036597743630,9.97238540649414,1.42152619361877,1.85701942443848,0.86941123008728
66,2465892827,0.40926510095596,1.42465078830719,118.87743377685547,-0.11308923363686,-0.01002523489296,9.99311637878418,1.27644693851471,1.63619887828827,0.84991872310638
67,2465901160,0.42045938968658,1.43841731548309,118.88451385498047,-0.11436486989260,-0.02050326764584,10.02807998657227,1.32749605178833,1.66545033454895,0.84036463499069
68,2465909493,0.42487078905106,1.44425499439240,118.88816070556641,-0.14985257387161,-0.00722958706319,10.03825950622559,1.26509976387024,1.78258419036865,0.90785807371140
69,2465917826,0.43541416525841,1.45854234695435,118.89585113525391,-0.13943575322628,-0.02959433943033,10.01500892639160,1.24842488765717,1.72861504554749,0.91134160757065
70,2465926159,0.44031894207001,1.46416056156158,118.89727020263672,-0.14527529478073,-0.02607427909970,10.00022888183594,1.32916092872620,1.74439346790314,0.88086056709290
71,2465934492,0.45051094889641,1.47818267345428,118.90437316894531,-0.12991856038570,-0.00378673058003,10.02590084075928,1.20798003673553,1.69880008697510,0.84064632654190
72,2465942825,0.45510581135750,1.48564314842224,118.90653228759766,-0.13570302724838,-0.03733624517918,9.99518203735352,1.29640042781830,1.95881032943726,0.81175345182419
73,2465951158,0.46698248386383,1.49992668628693,118.91416931152344,-0.14654725790024,-0.01806805469096,10.04052257537842,1.40748929977417,1.73109960556030,0.90473306179047
74,2465959491,0.47229504585266,1.50459873676300,118.91674041748047,-0.14836904406548,-0.02752087451518,10.00038051605225,1.38868868350983,1.61988270282745,0.92829841375351
75,2465967824,0.48392719030380,1.51980972290039,118.92433166503906,-0.13885723054409,-0.00845256447792,10.05345630645752,1.38027417659760,1.84268796443939,0.89867544174194
76,2465976157,0.48798933625221,1.52456557750702,118.92657470703125,-0.12079605460167,0.00033027003519,10.02076625823975,1.24574828147888,1.62294352054596,0.80385148525238
77,2465984490,0.49924713373184,1.53987145423889,118.93357849121094,-0.12345340102911,-0.02352044545114,10.02663612365723,1.33685827255249,1.85549521446228,0.82926082611084
78,2465992823,0.50317162275314,1.54616630077362,118.93599700927734,-0.13262936472893,-0.02401974238455,9.98254966735840,1.22840750217438,1.81668972969055,0.83005493879318
79,2466001156,0.51434844732285,1.56119108200073,118.94281768798828,-0.14295276999474,-0.00335396919399,10.00952720642090,1.32709896564484,1.82091569900513,0.80487608909607
80,2466009489,0.51825451850891,1.56717276573181,118.94337463378906,-0.12227984517813,-0.02163677848876,10.02130603790283,1.22589707374573,1.77788400650024,0.89099115133286
81,2466017822,0.53014677762985,1.58264839649200,118.95094299316406,-0.12244525551796,-0.01653731428087,10.00113296508789,1.41167724132538,1.87857353687286,0.89388555288315
82,2466026155,0.53592395782471,1.58911466598511,118.95377349853516,-0.11464256793261,-0.01236826367676,10.02328777313232,1.45405602455139,1.84559524059296,0.89953356981277
83,2466034488,0.54722344875336,1.60432469844818,118.96124267578125,-0.11678978055716,0.00035960285459,10.00111198425293,1.34116148948669,1.84773421287537,0.88184696435928
84,2466042821,0.55161947011948,1.60995471477509,118.96028900146484,-0.12109440565109,-0.00148320547305,9.98828506469727,1.28682076931000,1.75599682331085,0.85739809274673
85,2466051154,0.56260448694229,1.62491190433502,118.96734619140625,-0.11615025997162,-0.01090285554528,9.97580432891846,1.30382859706879,1.81800878047943,0.83414030075073
86,2466059487,0.56688684225082,1.63121545314789,118.97048950195312,-0.12728279829025,-0.03579638525844,10.01084709167480,1.27339887619019,1.84400701522827,0.78765046596527
87,2466067820,0.57807195186615,1.64567136764526,118.97801971435547,-0.12373993545771,-0.01782739907503,9.99052715301514,1.32914817333221,1.76097857952118,0.88740515708923
88,2466076153,0.58235782384872,1.65108692646027,118.97909545898438,-0.12716063857079,-0.00419164402410,10.03057193756104,1.27800953388214,1.74498271942139,0.90165960788727
89,2466084486,0.59327125549316,1.66592454910278,118.98695373535156,-0.13187642395496,-0.01078128721565,9.96652698516846,1.29611873626709,1.80740451812744,0.92594176530838
90,2466092819,0.59815180301666,1.67111444473267,118.98876953125000,-0.13248233497143,-0.01869517378509,10.02900981903076,1.35016477108002,1.72151982784271,0.88805830478668
91,2466101152,0.60946774482727,1.68573796749115,118.99608612060547,-0.11968364566565,-0.00633257627487,10.00718498229980,1.34595108032227,1.78198230266571,0.86286681890488
92,2466109485,0.61449712514877,1.69108319282532,118.99685668945312,-0.12181873619556,-0.00651474343613,9.98887538909912,1.36977243423462,1.74783849716187,0.90938228368759
93,2466117818,0.62518972158432,1.70594537258148,119.00456237792969,-0.12255838513374,0.00092361262068,9.99061775207520,1.27015876770020,1.81236088275909,0.90912604331970
94,2466126151,0.62956380844116,1.71142864227295,119.00551605224609,-0.13297292590141,-0.02076279371977,9.99633216857910,1.29234051704407,1.77045583724976,0.82129478454590
95,2466134484,0.64111167192459,1.72600162029266,119.01277160644531,-0.11770431697369,-0.00391064677387,10.02395153045654,1.37392199039459,1.78011262416840,0.85666805505753
96,2466142817,0.64596575498581,1.73218476772308,119.01462554931641,-0.12917962670326,-0.01312997657806,10.00742721557617,1.35332810878754,1.86043870449066,0.84091538190842
97,2466151150,0.65665918588638,1.74618208408356,119.02184295654297,-0.11864961683750,-0.01159997284412,9.98943042755127,1.27356541156769,1.71182501316071,0.85113537311554
98,2466159483,0.66124075651169,1.75352621078491,119.02346801757812,-0.11083500087261,-0.02241167426109,10.01190853118896,1.32105422019958,2.00690102577209,0.87513601779938
99,2466167816,0.67123007774353,1.76802551746368,119.03064727783203,-0.13147871196270,-0.01142838690430,9.98924255371094,1.19037044048309,1.77301728725433,0.84780550003052
100,2466176149,0.67586511373520,1.77327239513397,119.03059387207031,-0.11281456053257,-0.00562280742452,10.02085304260254,1.33665311336517,1.76354002952576,0.81706845760345
101,2466184482,0.68751257658005,1.78846955299377,119.03849029541016,-0.13132397830486,-0.01495522167534,9.99862289428711,1.38660109043121,1.86113047599792,0.92989921569824
102,2466192815,0.69169670343399,1.79306018352509,119.03800201416016,-0.13345043361187,-0.03972872346640,10.02847194671631,1.28063488006592,1.69287025928497,0.92195868492126
103,2466201148,0.70336544513702,1.80674195289612,119.04567718505859,-0.14468999207020,-0.02127535268664,10.02420043945312,1.39067375659943,1.68049895763397,0.90395206212997
104,2466209481,0.70788210630417,1.81233906745911,119.04718017578125,-0.14321106672287,-0.01773085258901,10.01507949829102,1.33383560180664,1.81556248664856,0.92961734533310
105,2466217814,0.71928101778030,1.82815670967102,119.05481719970703,-0.13594788312912,-0.00356613215990,9.99491596221924,1.35974442958832,1.93967616558075,0.89756125211716
106,2466226147,0.72384011745453,1.83261024951935,119.05615234375000,-0.10581544786692,-0.00929678790271,9.99049186706543,1.34405589103699,1.68011462688446,0.83776479959488
107,2466234480,0.73443609476089,1.84748530387878,119.06370544433594,-0.14894181489944,-0.01955858804286,9.99688243865967,1.26394724845886,1.82715284824371,0.89241272211075
108,2466242813,0.73838776350021,1.85129094123840,119.06316375732422,-0.13093800842762,-0.00344751658849,9.98431587219238,1.27859866619110,1.60792088508606,0.79331129789352
109,2466251146,0.74929618835449,1.86598277091980,119.06941986083984,-0.11553949862719,0.00590810505673,10.00846385955811,1.30709433555603,1.80549609661102,0.73423200845718
110,2466259479,0.75401151180267,1.87093520164490,119.07196044921875,-0.11043099313974,0.00192183523905,9.99413013458252,1.36723649501801,1.75559961795807,0.85702663660049
111,2466267812,0.76488900184631,1.88677489757538,119.07942962646484,-0.11354841291904,-0.02353842929006,10.00018978118896,1.30112624168396,1.94650280475616,0.87687778472900
112,2466276145,0.76847535371780,1.89093089103699,119.08004760742188,-0.13119480013847,-0.00824707001448,10.00857830047607,1.23739814758301,1.67435133457184,0.83960896730423
113,2466284478,0.77994936704636,1.90651881694794,119.08691406250000,-0.12599529325962,-0.01421509124339,9.99796485900879,1.37579178810120,1.91730237007141,0.80620807409286
114,2466292811,0.78482002019882,1.91148030757904,119.08792877197266,-0.13250838220119,-0.02497214451432,9.99444770812988,1.39688503742218,1.77833223342896,0.85890930891037
115,2466301144,0.79535341262817,1.92556631565094,119.09496307373047,-0.11131848394871,-0.02518406324089,9.99153614044189,1.26261520385742,1.73970592021942,0.82940173149109
116,2466309477,0.79963409900665,1.92863154411316,119.09461975097656,-0.11632445454597,-0.00229514087550,10.02392959594727,1.33377158641815,1.55974042415619,0.91126471757889
117,2466317810,0.81026095151901,1.94406092166901,119.10227203369141,-0.12764637172222,-0.03014519996941,10.00599098205566,1.27264332771301,1.90441858768463,0.89975130558014
118,2466326143,0.81450563669205,1.94913709163666,119.10294342041016,-0.12324921041727,-0.04299526289105,10.00470542907715,1.33778035640717,1.81189978122711,0.88384485244751
119,2466334476,0.82589977979660,1.96380710601807,119.11075592041016,-0.13251468539238,-0.01735816523433,9.99473857879639,1.36505949497223,1.81543457508087,0.92198443412781
120,2466342809,0.83041787147522,1.96950721740723,119.11103057861328,-0.12689797580242,-0.02967890724540,10.01547718048096,1.38292539119720,1.89503085613251,0.87048703432083
121,2466351142,0.84077662229538,1.98398709297180,119.11822509765625,-0.11611507833004,-0.01732495054603,9.99547767639160,1.24477493762970,1.79417455196381,0.84813851118088
122,2466359475,0.84500855207443,1.98913300037384,119.11903381347656,-0.11748876422644,-0.02799359522760,10.01046371459961,1.35558223724365,1.84002411365509,0.91337805986404
123,2466367808,0.85610234737396,2.00478959083557,119.12698364257812,-0.12876872718334,-0.01150809600949,10.00061893463135,1.33137691020966,1.93889522552490,0.93635404109955
124,2466376141,0.85984855890274,2.00892972946167,119.12684631347656,-0.10648688673973,-0.00206457637250,10.01774215698242,1.31087243556976,1.72733426094055,0.78611361980438
125,2466384474,0.87048685550690,2.02252244949341,119.13431549072266,-0.10422744601965,-0.01216988451779,9.97969150543213,1.27948224544525,1.69266533851624,0.88112962245941
126,2466392807,0.87459301948547,2.02592873573303,119.13479614257812,-0.10256689041853,-0.03521511703730,10.00975036621094,1.35647869110107,1.65583217144012,0.86811763048172
127,2466401140,0.88583111763000,2.04038500785828,119.14177703857422,-0.13478150963783,-0.02134712040424,10.02857780456543,1.35519802570343,1.79952824115753,0.82039839029312
128,2466409473,0.88996815681458,2.04642248153687,119.14362335205078,-0.16186393797398,-0.00319348601624,10.00346755981445,1.36997723579407,1.98420667648315,0.90851122140884
129,2466417806,0.90070706605911,2.06046414375305,119.15119171142578,-0.11722268164158,-0.00743322540075,10.00155735015869,1.29456901550293,1.75339674949646,0.89211815595627
130,2466426139,0.90377008914948,2.06438636779785,119.15295410156250,-0.10898156464100,-0.01857236772776,10.00042057037354,1.24701631069183,1.73729848861694,0.88329416513443
131,2466434472,0.91414856910706,2.07818293571472,119.15991973876953,-0.13098983466625,-0.02244939096272,9.97785758972168,1.25455951690674,1.72499060630798,0.82126915454865
132,2466442805,0.91772705316544,2.08244681358337,119.16007995605469,-0.12949679791927,-0.01586661301553,10.02366447448730,1.32015776634216,1.78879582881927,0.85438847541809
133,2466451138,0.92893123626709,2.09698748588562,119.16717529296875,-0.12980061769485,0.00424397317693,10.01957798004150,1.35517239570618,1.81776559352875,0.83494722843170
134,2466459471,0.93171590566635,2.10094738006592,119.16911315917969,-0.13178072869778,-0.02400399371982,9.98553848266602,1.22909903526306,1.76384723186493,0.89081186056137
135,2466467804,0.94216728210449,2.11551451683044,119.17630767822266,-0.12829191982746,-0.00602817768231,9.97796535491943,1.26652157306671,1.82524490356445,0.84475755691528
136,2466476137,0.94614535570145,2.12037634849548,119.17685699462891,-0.12846861779690,-0.01812559925020,10.00589752197266,1.38365542888641,1.88146805763245,0.83466547727585
137,2466484470,0.95584785938263,2.13496923446655,119.18399047851562,-0.15086565911770,-0.01993974484503,9.98692321777344,1.17812669277191,1.82921516895294,0.83817464113235
138,2466492803,0.95894157886505,2.13974237442017,119.18489074707031,-0.12455354630947,-0.02029137872159,9.99717807769775,1.28524553775787,1.87908601760864,0.83617675304413
139,2466501136,0.96922826766968,2.15347409248352,119.19230651855469,-0.10522047430277,-0.02253554016352,9.99257469177246,1.25035881996155,1.73072826862335,0.87526398897171
140,2466509469,0.97206741571426,2.15587091445923,119.19230651855469,-0.11309938132763,-0.00021022441797,9.99911689758301,1.26308906078339,1.60995697975159,0.92638999223709
141,2466517802,0.98200756311417,2.16996383666992,119.19957733154297,-0.12187350541353,-0.03852803260088,10.00364589691162,1.21014440059662,1.77675676345825,0.85748773813248
142,2466526135,0.98491626977921,2.17296886444092,119.19854736328125,-0.12480376660824,-0.01175016630441,9.97723484039307,1.28311944007874,1.69748091697693,0.86327654123306
143,2466534468,0.99602389335632,2.18662643432617,119.20533752441406,-0.12153237313032,-0.01620349846780,10.01609706878662,1.35512113571167,1.72545182704926,0.79865187406540
144,2466542801,0.99894559383392,2.19141530990601,119.20628356933594,-0.11941447854042,-0.02629002742469,9.98542690277100,1.29656708240509,1.92419254779816,0.78489702939987
145,2466551134,1.00941658020020,2.20498156547546,119.21331787109375,-0.12069354206324,-0.00925655104220,9.99968624114990,1.27897000312805,1.71843338012695,0.83171981573105
146,2466559467,1.01211595535278,2.20837831497192,119.21363067626953,-0.13364969193935,-0.01130472496152,9.98470020294189,1.27927720546722,1.77268421649933,0.84247773885727
147,2466567800,1.02338385581970,2.22265481948853,119.22122955322266,-0.13592822849751,-0.01384459715337,10.02330780029297,1.37369155883789,1.80867254734039,0.89626777172089
148,2466576133,1.02592658996582,2.22617483139038,119.22339630126953,-0.12125506252050,-0.01098087988794,10.00194072723389,1.26608610153198,1.79893910884857,0.94350033998489
149,2466584466,1.03635966777802,2.24022245407104,119.23020172119141,-0.13449591398239,-0.02587088942528,9.98364353179932,1.27861130237579,1.78359591960907,0.80129009485245
150,2466592799,1.03903329372406,2.24319720268250,119.23185729980469,-0.12263957411051,-0.03896052762866,9.98281097412109,1.29492759704590,1.74673712253571,0.86942398548126
151,2466601132,1.04945182800293,2.25773262977600,119.23973846435547,-0.11079183220863,-0.03403995931149,10.03643798828125,1.27497410774231,1.84788763523102,0.93148720264435
152,2466609465,1.05179941654205,2.26100516319275,119.23939514160156,-0.10358215868473,-0.01430835761130,10.02526950836182,1.27356529235840,1.79535281658173,0.81578767299652
153,2466617798,1.06219673156738,2.27555394172668,119.24665069580078,-0.12735210359097,-0.01079039927572,10.00600337982178,1.27656221389771,1.85170447826385,0.85600215196609
154,2466626131,1.06456136703491,2.27866125106812,119.24656677246094,-0.12129803746939,-0.00637261336669,9.97323703765869,1.28209471702576,1.79458439350128,0.87828636169434
155,2466634464,1.07626116275787,2.29228663444519,119.25377655029297,-0.12501102685928,-0.03565249219537,10.03097057342529,1.43795764446259,1.74507236480713,0.85116112232208
156,2466642797,1.07829701900482,2.29489850997925,119.25379180908203,-0.12657594680786,-0.01766953803599,10.01215362548828,1.25658309459686,1.74975955486298,0.82267796993256
157,2466651130,1.08920848369598,2.31053805351257,119.26116943359375,-0.11516479402781,-0.00823071040213,10.03446674346924,1.34333872795105,1.99066162109375,0.86837387084961
158,2466659463,1.09187102317810,2.31254768371582,119.26058197021484,-0.14385440945625,0.00063947984017,9.99647331237793,1.34260845184326,1.69336986541748,0.83849477767944
159,2466667796,1.10259521007538,2.32639527320862,119.26811218261719,-0.14192688465118,-0.01718630827963,10.01374816894531,1.32273197174072,1.77961313724518,0.88921099901199
160,2466676129,1.10443162918091,2.32877111434937,119.26846313476562,-0.13667985796928,-0.01955083198845,9.99768447875977,1.25386810302734,1.74776160717010,0.79642343521118
161,2466684462,1.11568272113800,2.34304690361023,119.27573394775391,-0.13393378257751,0.00469438591972,10.01548767089844,1.38959789276123,1.83423554897308,0.85702675580978
162,2466692795,1.11726033687592,2.34512519836426,119.27507781982422,-0.13808545470238,-0.04189968481660,9.98212718963623,1.23171174526215,1.72716772556305,0.82580286264420
163,2466701128,1.12900304794312,2.35883498191833,119.28280639648438,-0.13107492029667,-0.01995988562703,9.98735809326172,1.44999623298645,1.77224886417389,0.91673350334167
164,2466709461,1.13137507438660,2.36191916465759,119.28216552734375,-0.10869338363409,0.00616902112961,10.01328659057617,1.33765232563019,1.86374306678772,0.92267608642578
165,2466717794,1.14203453063965,2.37470364570618,119.28942108154297,-0.13544261455536,-0.01526095718145,10.00566196441650,1.32382059097290,1.66443872451782,0.85999786853790
166,2466726127,1.14405608177185,2.37724900245667,119.28814697265625,-0.13382856547832,-0.01005169376731,9.99834918975830,1.31239664554596,1.81415402889252,0.78184890747070
167,2466734460,1.15414738655090,2.39051628112793,119.29526519775391,-0.12535554170609,-0.01218325272202,9.99344348907471,1.25917017459869,1.72557973861694,0.84608936309814
168,2466742793,1.15676796436310,2.39283466339111,119.29466247558594,-0.12692040205002,-0.01283697597682,9.97336769104004,1.39482319355011,1.80267858505249,0.83310300111771
169,2466751126,1.16736900806427,2.40682649612427,119.30201721191406,-0.12656424939632,-0.00669973297045,9.98983001708984,1.32031130790710,1.81720173358917,0.87055093050003
170,2466759459,1.17000186443329,2.40764117240906,119.30183410644531,-0.14695703983307,-0.02004395052791,10.01153850555420,1.40394175052643,1.64348602294922,0.93274235725403
171,2466767792,1.18005573749542,2.42240786552429,119.30854034423828,-0.12320528179407,-0.00801817514002,10.00317096710205,1.26086080074310,1.91169297695160,0.79214590787888
172,2466776125,1.18153083324432,2.42466259002686,119.30967712402344,-0.13956139981747,-0.01641427539289,10.01570224761963,1.27625489234924,1.83039343357086,0.93986308574677
173,2466784458,1.19139087200165,2.43765425682068,119.31755828857422,-0.12037000060081,-0.00933067314327,10.02016639709473,1.23557937145233,1.70777809619904,0.93773716688156
174,2466792791,1.19320440292358,2.43823957443237,119.31854248046875,-0.13883177936077,-0.01299459673464,10.00674533843994,1.33334898948669,1.64648294448853,0.86558181047440
175,2466801124,1.20407426357269,2.45158600807190,119.32545471191406,-0.13258178532124,-0.01090094633400,10.01813411712646,1.36516189575195,1.75191104412079,0.81860530376434
176,2466809457,1.20640361309052,2.45351457595825,119.32569122314453,-0.12760055065155,-0.03158294036984,10.00456142425537,1.40542745590210,1.82309317588806,0.88392156362534
177,2466817790,1.21730625629425,2.46606588363647,119.33235168457031,-0.10777710378170,-0.00798082165420,10.00298786163330,1.37297427654266,1.66116011142731,0.79081398248672
178,2466826123,1.21876239776611,2.46683907508850,119.33165740966797,-0.12768360972404,-0.02724866569042,10.01390266418457,1.31764745712280,1.70408940315247,0.86422425508499
179,2466834456,1.22943329811096,2.47977113723755,119.33930969238281,-0.13871870934963,-0.01623340509832,10.00581932067871,1.34280061721802,1.71282386779785,0.91222536563873
180,2466842789,1.23021388053894,2.48160839080811,119.33957672119141,-0.12732589244843,-0.03145987540483,10.05108261108398,1.24982094764709,1.84962952136993,0.88958245515823
181,2466851122,1.24058532714844,2.49439334869385,119.34653472900391,-0.14477050304413,0.00736961327493,9.99398326873779,1.31349790096283,1.69858229160309,0.82818502187729
182,2466859455,1.24153017997742,2.49427580833435,119.34586334228516,-0.11858683824539,-0.00764995161444,9.99960994720459,1.28655171394348,1.63162660598755,0.82708364725113
183,2466867788,1.25208914279938,2.50846385955811,119.35287475585938,-0.13197071850300,-0.02794706821442,9.99067783355713,1.33842062950134,1.87227272987366,0.83389705419540
184,2466876121,1.25301134586334,2.50867366790771,119.35300445556641,-0.13375897705555,-0.01597192138433,10.01235485076904,1.29720747470856,1.68882358074188,0.82142293453217
185,2466884454,1.26311397552490,2.52189016342163,119.36038208007812,-0.11652850359678,-0.00255157286301,9.99083232879639,1.28673088550568,1.76056873798370,0.88056612014771
186,2466892787,1.26373600959778,2.52157068252563,119.35980987548828,-0.12104106694460,-0.01909207180142,9.98405265808105,1.27535843849182,1.64481794834137,0.82170468568802
187,2466901120,1.27386319637299,2.53658294677734,119.36791229248047,-0.14322967827320,-0.01903979294002,9.97762012481689,1.28742277622223,1.98346412181854,0.96181452274323
188,2466909453,1.27501106262207,2.53752994537354,119.36865234375000,-0.15057432651520,-0.01632717624307,9.99383449554443,1.34853827953339,1.81653594970703,0.93028342723846
189,2466917786,1.28511130809784,2.55069708824158,119.37487792968750,-0.12676398456097,-0.01986142434180,10.01000785827637,1.29841113090515,1.76287412643433,0.74470824003220
190,2466926119,1.28512287139893,2.55122756958008,119.37368774414062,-0.11230401694775,-0.01697240024805,9.99977588653564,1.23383760452271,1.78236651420593,0.77882647514343
191,2466934452,1.29497873783112,2.56418132781982,119.38104248046875,-0.12312228232622,-0.02492349408567,9.97769641876221,1.26685440540314,1.74448311328888,0.88202613592148
192,2466942785,1.29588341712952,2.56413912773132,119.38018035888672,-0.10839372873306,-0.02584261819720,9.96214008331299,1.35860478878021,1.73275184631348,0.75172662734985
193,2466951118,1.30635809898376,2.57758665084839,119.38764953613281,-0.11961073428392,-0.02883178368211,10.02240085601807,1.34282624721527,1.81105458736420,0.89257931709290
194,2466959451,1.30672931671143,2.57911539077759,119.38636779785156,-0.13496822118759,-0.01870079338551,9.98838615417480,1.30565989017487,1.94568276405334,0.87429064512253
195,2466967784,1.31705343723297,2.59197902679443,119.39433288574219,-0.13491499423981,-0.01111785601825,10.04149723052979,1.32735526561737,1.74683952331543,0.95410466194153
196,2466976117,1.31795048713684,2.59187293052673,119.39412689208984,-0.13148000836372,-0.02270221337676,10.02578258514404,1.38455188274384,1.76866304874420,0.84693479537964
197,2466984450,1.32810056209564,2.60462331771851,119.40151977539062,-0.12095946818590,-0.01937317289412,10.02087783813477,1.31260144710541,1.73590219020844,0.88668793439865
198,2466992783,1.32777237892151,2.60438156127930,119.40119171142578,-0.13390167057514,-0.01953262276947,10.00755500793457,1.25325322151184,1.77370893955231,0.85159641504288
199,2467001116,1.33734869956970,2.61751151084900,119.40767669677734,-0.14121776819229,-0.01813329383731,9.99261283874512,1.25210058689117,1.78544044494629,0.77752012014389
200,2467009449,1.33800256252289,2.61607956886292,119.40808868408203,-0.12840275466442,0.00906245037913,9.99237537384033,1.38980269432068,1.64709758758545,0.83799529075623
201,2467017782,1.34848678112030,2.62984967231750,119.41495513916016,-0.13784907758236,-0.01385737676173,10.00947952270508,1.36188316345215,1.86866080760956,0.82472711801529
202,2467026115,1.34818053245544,2.63041687011719,119.41382598876953,-0.11619064211845,-0.01298533380032,9.99795055389404,1.29034268856049,1.90764558315277,0.75810450315475
203,2467034448,1.35824406147003,2.64208984375000,119.42066955566406,-0.13199381530285,-0.01602485403419,9.99925994873047,1.31593132019043,1.62158584594727,0.82677626609802
204,2467042781,1.35773396492004,2.64139437675476,119.42008209228516,-0.13714909553528,0.00016248284373,9.98931503295898,1.28153133392334,1.77696192264557,0.78013271093369
205,2467051114,1.36753320693970,2.65584778785706,119.42739105224609,-0.12815402448177,0.00255141546950,10.01374244689941,1.28629565238953,1.96251142024994,0.87495660781860
206,2467059447,1.36669528484344,2.65472459793091,119.42620086669922,-0.13772022724152,-0.02241030894220,10.02178287506104,1.25271534919739,1.74658334255219,0.79965072870255
207,2467067780,1.37720537185669,2.66818571090698,119.43378448486328,-0.12288857996464,-0.03605883568525,9.96826934814453,1.37407565116882,1.85060310363770,0.91079097986221
208,2467076113,1.37634730339050,2.66704916954041,119.43347930908203,-0.11297552287579,-0.00438626483083,9.98423099517822,1.26903152465820,1.76469266414642,0.81284213066101
209,2467084446,1.38646197319031,2.67983341217041,119.44054412841797,-0.12192700058222,0.00019535032334,10.00208377838135,1.33373332023621,1.77442634105682,0.85054636001587
210,2467092779,1.38582110404968,2.67903399467468,119.43999481201172,-0.13252480328083,-0.01717727445066,9.97305774688721,1.30476355552673,1.83200705051422,0.91745078563690
211,2467101112,1.39552319049835,2.69054627418518,119.44669342041016,-0.12682369351387,-0.02228310145438,9.98295783996582,1.28852415084839,1.62504386901855,0.81299579143524
212,2467109445,1.39537417888641,2.68911576271057,119.44640350341797,-0.13904984295368,-0.00096366624348,10.00542926788330,1.38468003273010,1.77537393569946,0.84870213270187
213,2467117778,1.40499579906464,2.70202159881592,119.45319366455078,-0.13288506865501,-0.01762768812478,10.00300693511963,1.28255593776703,1.79909253120422,0.81745266914368
214,2467126111,1.40430212020874,2.69945859909058,119.45349121093750,-0.13748575747013,-0.01920525915921,10.00483703613281,1.33283662796021,1.66041719913483,0.88571459054947
215,2467134444,1.41395831108093,2.71142864227295,119.45995330810547,-0.12133633345366,-0.02359763532877,9.99695777893066,1.29354441165924,1.69164109230042,0.78389811515808
216,2467142777,1.41350698471069,2.70943498611450,119.45870971679688,-0.13441747426987,-0.01658876240253,10.02547359466553,1.38186252117157,1.74863266944885,0.82129490375519
217,2467151110,1.42426431179047,2.72269225120544,119.46561431884766,-0.15426805615425,-0.01110213156790,10.00962066650391,1.42719960212708,1.85334372520447,0.83517771959305
218,2467159443,1.42262172698975,2.72124624252319,119.46554565429688,-0.14546969532967,-0.05145287141204,10.01207733154297,1.25148594379425,1.83556747436523,0.88955688476562
219,2467167776,1.43199062347412,2.73366999626160,119.47271728515625,-0.12281451374292,-0.01774795725942,10.00109958648682,1.26413953304291,1.76123499870300,0.87183177471161
220,2467176109,1.43108975887299,2.73292255401611,119.47156524658203,-0.12272761017084,-0.03021251596510,10.01286506652832,1.36318957805634,1.93927919864655,0.82334399223328
221,2467184442,1.44118332862854,2.74573516845703,119.47857666015625,-0.11303043365479,-0.02641410380602,10.01899147033691,1.35737526416779,1.81192541122437,0.84885579347610
222,2467192775,1.43903386592865,2.74333858489990,119.47914886474609,-0.14288921654224,-0.01589844189584,9.98579502105713,1.22656321525574,1.76786875724792,0.92472499608994
223,2467201108,1.45003032684326,2.75721716880798,119.48573303222656,-0.13771006464958,-0.01695117354393,10.01021003723145,1.47238302230835,1.94537532329559,0.79691004753113
224,2467209441,1.44887661933899,2.75499343872070,119.48526763916016,-0.13527932763100,-0.00916531309485,10.01573085784912,1.36741590499878,1.80506086349487,0.83950650691986
225,2467217774,1.45938515663147,2.76754832267761,119.49250793457031,-0.12981498241425,-0.01539949793369,10.00002479553223,1.41375231742859,1.79709494113922,0.87882441282272
226,2467226107,1.45792198181152,2.76500630378723,119.49268341064453,-0.15015935897827,-0.03010095655918,9.98133182525635,1.34807717800140,1.78859090805054,0.82124364376068
227,2467234440,1.46684062480927,2.77713084220886,119.50011444091797,-0.13082630932331,-0.01571800000966,9.98756408691406,1.22694754600525,1.75114274024963,0.90374708175659
228,2467242773,1.46454203128815,2.77362728118896,119.50040435791016,-0.11962914466858,-0.02723872102797,10.02752208709717,1.25911903381348,1.69602096080780,0.95351547002792
229,2467251106,1.47473919391632,2.78578948974609,119.50766754150391,-0.12116403132677,-0.00733845122159,10.02121162414551,1.38516652584076,1.76156771183014,0.88533037900925
230,2467259439,1.47247850894928,2.78227448463440,119.50705718994141,-0.12597848474979,-0.00069228769280,9.99880695343018,1.28752517700195,1.71599996089935,0.83743178844452
231,2467267772,1.48265087604523,2.79498600959778,119.51293182373047,-0.13482137024403,-0.02792095392942,9.99972343444824,1.39456701278687,1.82988107204437,0.71840244531631
232,2467276105,1.48028242588043,2.79112815856934,119.51291656494141,-0.14812971651554,-0.01083375141025,10.00019264221191,1.29162359237671,1.69835197925568,0.85602778196335
233,2467284438,1.48976993560791,2.80487418174744,119.52005004882812,-0.13662782311440,-0.01648851111531,10.00869941711426,1.30998873710632,1.96415090560913,0.86699068546295
234,2467292771,1.48652386665344,2.80164575576782,119.51892852783203,-0.14051891863346,-0.02260220050812,9.99061012268066,1.20371544361115,1.79256117343903,0.82659703493118
235,2467301104,1.49548494815826,2.81335306167603,119.52511596679688,-0.13171494007111,-0.00643412861973,9.99061489105225,1.25719785690308,1.72299265861511,0.76094764471054
236,2467309437,-0.10229717195034,0.71333694458008,118.58928680419922,-0.13190627098083,-0.00677844882011,9.98348522186279,1.34766745567322,1.70111811161041,0.79708939790726
237,2467317770,-0.12109465152025,0.68847405910492,118.57582855224609,-0.12604801356792,-0.00697945244610,10.02447223663330,1.28206908702850,1.79501986503601,0.84045416116714
238,2467326103,-0.12124375998974,0.68868273496628,118.57548522949219,-0.12935692071915,-0.00965853035450,10.00440025329590,1.29415929317474,1.81932806968689,0.83371782302856
239,2467334436,-0.12198945134878,0.68843042850494,118.57451629638672,-0.12570147216320,-0.01097784936428,10.01779174804688,1.22387385368347,1.75260293483734,0.74114787578583
240,2467342769,-0.12188408523798,0.68884342908859,118.57769775390625,-0.13985285162926,-0.00593018718064,10.00216865539551,1.32166886329651,1.84483969211578,0.96201932430267
241,2467351102,-0.12203746289015,0.68683719635010,118.57753753662109,-0.13674776256084,-0.02857280708849,9.98531913757324,1.29479956626892,1.54041445255280,0.83538264036179
242,2467359435,-0.12278208136559,0.68636697530746,118.57890319824219,-0.11761374771595,-0.01397932879627,10.00072479248047,1.22167086601257,1.73731100559235,0.85628384351730
243,2467367768,-0.12270660698414,0.68665111064911,118.57839965820312,-0.12586490809917,-0.00993240624666,10.00574016571045,1.32164335250854,1.81640768051147,0.79527074098587
244,2467376101,-0.12236345559359,0.68831181526184,118.57925415039062,-0.13366347551346,-0.02126205153763,9.99498844146729,1.35245728492737,1.99301779270172,0.79045528173447
245,2467384434,-0.12188036739826,0.68809503316879,118.57899475097656,-0.14492809772491,-0.01812328211963,10.01089382171631,1.36892700195312,1.75739264488220,0.82777518033981
246,2467392767,-0.12172175198793,0.68898099660873,118.58049011230469,-0.15538114309311,-0.02250828593969,9.98862075805664,1.33009600639343,1.89706718921661,0.87897807359695
247,2467401100,-0.12165415287018,0.68903559446335,118.58049774169922,-0.12569507956505,-0.01928282342851,9.99797248840332,1.31928670406342,1.79005074501038,0.85659122467041
248,2467409433,-0.12136212736368,0.68919104337692,118.58374023437500,-0.14921382069588,-0.00487829511985,10.01433563232422,1.34669411182404,1.80869817733765,0.83077216148376
249,2467417766,-0.12063208222389,0.68859159946442,118.58303833007812,-0.12419837713242,-0.01826976425946,9.97828960418701,1.39953613281250,1.71133816242218,0.77416455745697
250,2467426099,-0.12102331966162,0.68887645006180,118.58309936523438,-0.12155819684267,-0.02807371504605,10.00489807128906,1.26511263847351,1.82345175743103,0.77526599168777
251,2467434432,-0.12089953571558,0.68920129537582,118.58331298828125,-0.11585649847984,-0.00469466112554,10.00066852569580,1.32545983791351,1.82186377048492,0.88392156362534
252,2467442765,-0.12090714275837,0.68828439712524,118.58465576171875,-0.12367856502533,0.00474320771173,9.99809074401855,1.30957901477814,1.67898738384247,0.79995810985565
253,2467451098,-0.12063605338335,0.68826258182526,118.58515930175781,-0.12506440281868,-0.00408693077043,10.00601768493652,1.34341514110565,1.77977943420410,0.91673350334167
254,2467459431,-0.12119418382645,0.68808072805405,118.58694458007812,-0.11540077626705,-0.01903915964067,10.00581836700439,1.24290513992310,1.76763844490051,0.82506012916565
255,2467467764,-0.12035220116377,0.68833118677139,118.58745574951172,-0.11193120479584,-0.01450865529478,10.02811050415039,1.41129302978516,1.81148993968964,0.91501730680466
256,2467476097,-0.12009853869677,0.68995708227158,118.58999633789062,-0.11814488470554,-0.00259934784845,10.00345230102539,1.34162247180939,1.98436057567596,0.82631522417068
257,2467484430,-0.11953333765268,0.69042217731476,118.58996582031250,-0.12845274806023,-0.01147770509124,9.99979591369629,1.37935221195221,1.84007561206818,0.85415798425674
258,2467492763,-0.11955727636814,0.69063389301300,118.59204101562500,-0.13915613293648,0.00120355666149,9.98764801025391,1.30379021167755,1.81392323970795,0.94086211919785
259,2467501096,-0.11978535354137,0.69080179929733,118.59186553955078,-0.13158732652664,-0.01355070527643,9.99100303649902,1.28422081470490,1.80178213119507,0.83548510074615
260,2467509429,-0.12040238827467,0.69034928083420,118.59133148193359,-0.13968952000141,-0.00211580004543,9.99378299713135,1.23540008068085,1.73459589481354,0.74360680580139
261,2467517762,-0.12043806165457,0.69028908014297,118.59044647216797,-0.14171727001667,-0.02557702548802,10.00244045257568,1.30809354782104,1.77624487876892,0.75001049041748
262,2467526095,-0.12069512903690,0.69000464677811,118.59100341796875,-0.14821767807007,-0.01584999449551,10.00908279418945,1.27789425849915,1.75237238407135,0.75777161121368
263,2467534428,-0.11946765333414,0.69044101238251,118.59070587158203,-0.12242031097412,-0.01789893396199,10.02407360076904,1.45926856994629,1.83631026744843,0.82098752260208
264,2467542761,-0.11967922747135,0.68966627120972,118.59219360351562,-0.13779978454113,-0.00178690266330,10.00037956237793,1.28224849700928,1.69207632541656,0.83989071846008
265,2467551094,-0.11902964115143,0.69099640846252,118.59201812744141,-0.11600266396999,-0.01049934793264,9.99154853820801,1.39000785350800,1.94286549091339,0.83556199073792
266,2467559427,-0.11968894302845,0.69122695922852,118.59404754638672,-0.13400083780289,-0.01754622906446,10.01852035522461,1.22830486297607,1.81461477279663,0.84634548425674
267,2467567760,-0.11939333379269,0.69074302911758,118.59387207031250,-0.12496595829725,-0.01893857307732,10.03417110443115,1.34689903259277,1.72373545169830,0.83645838499069
268,2467576093,-0.12028032541275,0.69008314609528,118.59549713134766,-0.12234818935394,-0.02150831185281,9.98511886596680,1.20141005516052,1.70713734626770,0.85966491699219
269,2467584426,-0.12023165076971,0.69045329093933,118.59556579589844,-0.12296622991562,-0.03161740675569,10.00607776641846,1.31646919250488,1.82678151130676,0.86553061008453
270,2467592759,-0.12058628350496,0.68916213512421,118.59689331054688,-0.12327610701323,-0.00942663662136,10.00697040557861,1.26552259922028,1.63124275207520,0.82129490375519
271,2467601092,-0.12058705836535,0.68952834606171,118.59622192382812,-0.13011859357357,-0.01629365049303,10.01445102691650,1.31308794021606,1.82621800899506,0.77682846784592
272,2467609425,-0.12066983431578,0.68992912769318,118.59667205810547,-0.12373325228691,-0.00333779212087,10.02181148529053,1.29672062397003,1.83387672901154,0.87121695280075
273,2467617758,-0.12062803655863,0.68924582004547,118.59660339355469,-0.14468526840210,-0.00450140191242,10.01881313323975,1.31657159328461,1.70006811618805,0.84923988580704
274,2467626091,-0.12049552053213,0.68815743923187,118.59817504882812,-0.14283534884453,-0.02758219838142,9.99838542938232,1.32307779788971,1.65391111373901,0.78341132402420
275,2467634424,-0.12030345946550,0.68821501731873,118.59822845458984,-0.11995483934879,-0.01694764569402,10.00888824462891,1.33570539951324,1.79035818576813,0.86230319738388
276,2467642757,-0.12066154927015,0.68701499700546,118.60076904296875,-0.13273777067661,-0.02324842289090,10.01777744293213,1.26357579231262,1.63943898677826,0.87846577167511
277,2467651090,-0.12028575688601,0.68602108955383,118.60014343261719,-0.12870638072491,-0.01473453268409,10.00865077972412,1.35781049728394,1.66477155685425,0.78277093172073
278,2467659423,-0.11998756229877,0.68560934066772,118.60043334960938,-0.13476404547691,-0.01455873064697,10.00662517547607,1.34477293491364,1.73487770557404,0.63436210155487
279,2467667756,-0.12029493600130,0.68537050485611,118.59959411621094,-0.13555520772934,-0.00270797079429,9.98777389526367,1.27497422695160,1.75421643257141,0.75764352083206
280,2467676089,-0.11994604766369,0.68582504987717,118.60078430175781,-0.12629784643650,-0.00481946999207,10.02559661865234,1.34974217414856,1.83661758899689,0.81724780797958
281,2467684422,-0.12013571709394,0.68526065349579,118.60168457031250,-0.12916038930416,-0.00078614597442,10.02911376953125,1.28796052932739,1.71533405780792,0.96437585353851
282,2467692755,-0.11989487707615,0.68508195877075,118.60382843017578,-0.12832778692245,-0.01326164975762,10.00254917144775,1.33450162410736,1.76195192337036,0.83843070268631
283,2467701088,-0.11951559782028,0.68468952178955,118.60382080078125,-0.12323729693890,-0.00990385282785,9.99932384490967,1.35814356803894,1.73569726943970,0.85318452119827
284,2467709421,-0.12002036720514,0.68479591608047,118.60444641113281,-0.13514029979706,-0.03009647503495,9.99066638946533,1.24623513221741,1.79583966732025,0.75871932506561
285,2467717754,-0.11912401020527,0.68469512462616,118.60429382324219,-0.14829210937023,-0.00982444081455,10.01822566986084,1.41846513748169,1.77030229568481,0.83645850419998
286,2467726087,-0.11862616986036,0.68525749444962,118.60469055175781,-0.12511268258095,-0.01957788318396,9.98768615722656,1.36767220497131,1.84904038906097,0.74209570884705
287,2467734420,-0.11761654913425,0.68609595298767,118.60475921630859,-0.11698463559151,-0.02347549423575,9.98879051208496,1.43257856369019,1.88413202762604,0.86501836776733
288,2467742753,-0.11744961142540,0.68679732084274,118.60668945312500,-0.13198670744896,-0.01761732809246,9.98210525512695,1.32476806640625,1.86535644531250,0.88612443208694
289,2467751086,-0.11747121065855,0.68703067302704,118.60659027099609,-0.14514352381229,-0.00493006175384,10.00275325775146,1.31052660942078,1.81033718585968,0.84608924388885
290,2467759419,-0.11760585010052,0.68783760070801,118.60906219482422,-0.13167431950569,-0.02274439856410,10.02345752716064,1.28811442852020,1.87813830375671,0.90735870599747
291,2467767752,-0.11720165610313,0.68843048810959,118.60910797119141,-0.10065597295761,0.00050855323207,10.00084114074707,1.36001348495483,1.85421454906464,0.86156040430069
292,2467776085,-0.11718462407589,0.68782079219818,118.60981750488281,-0.13635122776031,-0.00937543157488,9.99348545074463,1.30870807170868,1.70741927623749,0.80300629138947
293,2467784418,-0.11665251851082,0.68775552511215,118.61013031005859,-0.13431815803051,-0.00879021361470,10.00674057006836,1.37540769577026,1.77606558799744,0.89388567209244
294,2467792751,-0.11636652052402,0.68717372417450,118.61170196533203,-0.13913758099079,-0.00315415509976,10.03576374053955,1.33957326412201,1.71092832088470,0.77129578590393
295,2467801084,-0.11650826036930,0.68489468097687,118.61142730712891,-0.13464128971100,-0.00378083507530,9.99227523803711,1.29608023166656,1.50965189933777,0.82295978069305
296,2467809417,-0.11677911877632,0.68392193317413,118.61224365234375,-0.11939415335655,-0.01653284020722,9.97421073913574,1.27330923080444,1.66228711605072,0.80618238449097
297,2467817750,-0.11674423515797,0.68444186449051,118.61237335205078,-0.12996520102024,-0.02190160937607,10.00526046752930,1.31529092788696,1.84553122520447,0.86988508701324
298,2467826083,-0.11749778687954,0.68420761823654,118.61296844482422,-0.12932886183262,-0.01290848664939,10.03450012207031,1.21411490440369,1.75219309329987,0.81117731332779
299,2467834416,-0.11710991710424,0.68444204330444,118.61358642578125,-0.11782394349575,-0.01757477223873,9.99546337127686,1.35824596881866,1.81038844585419,0.93005275726318
300,2467842749,-0.11714057624340,0.68386638164520,118.61493682861328,-0.11962321400642,-0.00680979853496,9.98762893676758,1.30127990245819,1.71213233470917,0.78786814212799
301,2467851082,-0.11762650310993,0.68285876512527,118.61455535888672,-0.10647024959326,-0.00356719829142,10.02186965942383,1.25507187843323,1.66121125221252,0.81212496757507
302,2467859415,-0.11802824586630,0.68302732706070,118.61638641357422,-0.12919780611992,-0.01354222930968,9.99518680572510,1.25545597076416,1.80121839046478,0.82777518033981
303,2467867748,-0.11845959722996,0.68408441543579,118.61638641357422,-0.13211776316166,-0.02522653900087,10.01618194580078,1.26129627227783,1.91033542156219,0.85764151811600
304,2467876081,-0.11871904134750,0.68539339303970,118.61656188964844,-0.12334364652634,-0.02182989008725,9.98752880096436,1.27272021770477,1.93728160858154,0.83102828264236
305,2467884414,-0.11804482340813,0.68459093570709,118.61638641357422,-0.15023019909859,-0.01162079628557,10.01637363433838,1.39264583587646,1.68549346923828,0.83182221651077
306,2467892747,-0.11767803877592,0.68524271249771,118.61788940429688,-0.13401319086552,-0.02687343582511,10.05015373229980,1.35017776489258,1.85815918445587,0.86932158470154
307,2467901080,-0.11770883947611,0.68698400259018,118.61794281005859,-0.11901725828648,-0.02224744856358,10.01457500457764,1.30699205398560,1.99181425571442,0.86360961198807
308,2467909413,-0.11802247166634,0.68666326999664,118.61914825439453,-0.10147821158171,-0.00940021686256,9.99343872070312,1.26810944080353,1.74156308174133,0.81371307373047
309,2467917746,-0.11749446392059,0.68606466054916,118.61892700195312,-0.12504048645496,-0.02480593509972,9.99646472930908,1.37527942657471,1.71205544471741,0.82877415418625
310,2467926079,-0.11789532005787,0.68603181838989,118.62072753906250,-0.11694728583097,-0.00796509906650,10.00741863250732,1.25806879997253,1.77568113803864,0.79419499635696
311,2467934412,-0.11794006824493,0.68542563915253,118.62051391601562,-0.12405335903168,-0.03485161438584,9.98304557800293,1.30627465248108,1.71016001701355,0.82933771610260
312,2467942745,-0.11779835075140,0.68580031394958,118.62359619140625,-0.10295423865318,-0.03188074380159,9.98852825164795,1.32067000865936,1.82381057739258,1.01365780830383
313,2467951078,-0.11844994127750,0.68595302104950,118.62392425537109,-0.11820931732655,0.00238772062585,9.99835777282715,1.23309481143951,1.80232000350952,0.89744585752487
314,2467959411,-0.11926188319921,0.68707752227783,118.62430572509766,-0.11911503225565,-0.01283484697342,9.99216556549072,1.20707082748413,1.91515064239502,0.86504399776459
315,2467967744,-0.11918734759092,0.68692463636398,118.62411499023438,-0.12106214463711,-0.00265740882605,10.00823402404785,1.32192492485046,1.76423156261444,0.83499848842621
316,2467976077,-0.11937149614096,0.68517190217972,118.62403869628906,-0.10785083472729,-0.01905959844589,9.98674392700195,1.28329873085022,1.57028055191040,0.80318552255630
317,2467984410,-0.11917147785425,0.68571287393570,118.62390136718750,-0.13038654625416,0.00000588502735,10.01708984375000,1.33486020565033,1.84791326522827,0.84119701385498
318,2467992743,-0.11884142458439,0.68696671724319,118.62592315673828,-0.14774104952812,-0.00823521800339,9.99070167541504,1.34536206722260,1.93057072162628,0.86537694931030
319,2468001076,-0.11861968040466,0.68813204765320,118.62594604492188,-0.12783192098141,-0.01448885537684,10.02252769470215,1.33721685409546,1.92237389087677,0.86033087968826
320,2468009409,-0.11822569370270,0.68734413385391,118.62784576416016,-0.12567006051540,-0.03372663632035,9.97640800476074,1.35207295417786,1.68577527999878,0.86337900161743
321,2468017742,-0.11785233765841,0.68733239173889,118.62723541259766,-0.13809183239937,-0.03401360660791,9.96280765533447,1.35737526416779,1.78167498111725,0.78346264362335
322,2468026075,-0.11782845109701,0.68839442729950,118.62812042236328,-0.12970592081547,-0.01237241085619,9.99372863769531,1.30914342403412,1.90651857852936,0.85799998044968
323,2468034408,-0.11716803908348,0.68909305334091,118.62815093994141,-0.13243480026722,0.00223616557196,10.02050209045410,1.39034068584442,1.86720108985901,0.86104816198349
324,2468042741,-0.11654578894377,0.68847244977951,118.62846374511719,-0.13196818530560,-0.01617033407092,10.01653957366943,1.38078653812408,1.70552372932434,0.77703344821930
325,2468051074,-0.11639549583197,0.68840199708939,118.62806701660156,-0.12816205620766,-0.01318392995745,10.00776290893555,1.32989108562469,1.77496421337128,0.81046003103256
326,2468059407,-0.11545174568892,0.68856197595596,118.62917327880859,-0.13947950303555,-0.00224736751989,10.02850723266602,1.41687703132629,1.79732549190521,0.89885485172272
327,2468067740,-0.11542832851410,0.68922001123428,118.62895202636719,-0.10734504461288,0.00829741451889,10.01245689392090,1.31611061096191,1.86292326450348,0.83008044958115
328,2468076073,-0.11497446894646,0.68876248598099,118.63024902343750,-0.11896835267544,-0.02155898325145,9.99534034729004,1.35822033882141,1.72365868091583,0.81499367952347
329,2468084406,-0.11500087380409,0.68891209363937,118.63036346435547,-0.12880942225456,-0.01045255735517,10.01986598968506,1.30822157859802,1.80034780502319,0.86950081586838
330,2468092739,-0.11520478874445,0.68982219696045,118.63153839111328,-0.10982229560614,-0.02244774065912,10.01892375946045,1.28109598159790,1.88915240764618,0.85564357042313
331,2468101072,-0.11588621884584,0.68947833776474,118.63166046142578,-0.11822873353958,-0.00886023603380,10.02501583099365,1.22817683219910,1.74130678176880,0.86957764625549
332,2468109405,-0.11600240319967,0.68873554468155,118.63233947753906,-0.14763827621937,-0.00948539469391,9.99519252777100,1.29108560085297,1.69123101234436,0.83451169729233
333,2468117738,-0.11573431640863,0.68866872787476,118.63178253173828,-0.11316813528538,-0.02883946709335,10.00528526306152,1.34569513797760,1.77409327030182,0.78991740942001
334,2468126071,-0.11662082374096,0.69041919708252,118.63306427001953,-0.12355807423592,-0.03450233861804,10.02719211578369,1.19797790050507,1.98943221569061,0.85367131233215
335,2468134404,-0.11689198017120,0.69126993417740,118.63243865966797,-0.11066610366106,-0.01714960299432,10.02197074890137,1.27935409545898,1.88531005382538,0.78346258401871
336,2468142737,-0.11684881150723,0.69100332260132,118.63396453857422,-0.14978732168674,-0.01946638897061,10.01537132263184,1.31062912940979,1.74858152866364,0.79094201326370
337,2468151070,-0.11759003251791,0.69259023666382,118.63385772705078,-0.12770706415176,-0.02371044084430,10.02526855468750,1.22272121906281,1.97221922874451,0.84380978345871
338,2468159403,-0.11810587346554,0.69268292188644,118.63417053222656,-0.11597371101379,-0.01694821193814,9.96723651885986,1.24380171298981,1.79143416881561,0.80136692523956
339,2468167736,-0.11801154166460,0.69320845603943,118.63387298583984,-0.13630032539368,-0.01210096105933,10.00229930877686,1.32448661327362,1.84458374977112,0.82134610414505
340,2468176069,-0.11799561232328,0.69416946172714,118.63516998291016,-0.12328055500984,-0.01975362934172,10.00797939300537,1.30560863018036,1.89478731155396,0.93707114458084
341,2468184402,-0.11825475841761,0.69382452964783,118.63491058349609,-0.14310936629772,-0.00471860077232,9.99817466735840,1.28117275238037,1.74217772483826,0.82441979646683
342,2468192735,-0.11837442219257,0.69318860769272,118.63577270507812,-0.14970661699772,-0.01857522130013,10.03571414947510,1.29090619087219,1.70157921314240,0.84427076578140
343,2468201068,-0.11799690872431,0.69355112314224,118.63567352294922,-0.12368670850992,-0.00112929195166,10.01319217681885,1.35601758956909,1.82667899131775,0.84470617771149
344,2468209401,-0.11800796538591,0.69298470020294,118.63519287109375,-0.12591101229191,-0.01778733357787,9.97947978973389,1.30478906631470,1.71167111396790,0.76081955432892
345,2468217734,-0.11712197959423,0.69393092393875,118.63477325439453,-0.14416211843491,-0.01060879230499,9.99424266815186,1.41833698749542,1.89640116691589,0.80746310949326
346,2468226067,-0.11721605062485,0.69305378198624,118.63636779785156,-0.14414243400097,-0.00665593892336,10.02382564544678,1.29403114318848,1.67294263839722,0.87003868818283
347,2468234400,-0.11743361502886,0.69384771585464,118.63571166992188,-0.13246396183968,-0.01588335447013,10.00554466247559,1.28616774082184,1.87703692913055,0.78072196245193
348,2468242733,-0.11826071143150,0.69304084777832,118.63631439208984,-0.12793433666229,-0.02124804817140,9.98273468017578,1.20566201210022,1.68226599693298,0.79675632715225
349,2468251066,-0.11799047887325,0.69326400756836,118.63638305664062,-0.11888903379440,-0.01576941832900,10.02033329010010,1.34487557411194,1.80967140197754,0.86617106199265
350,2468259399,-0.11795447021723,0.69289672374725,118.63729858398438,-0.14000922441483,-0.01850413344800,10.01896381378174,1.30855429172516,1.73300778865814,0.90487402677536
351,2468267732,-0.11823666095734,0.69234621524811,118.63790130615234,-0.13824601471424,-0.02101501263678,10.01041793823242,1.27597308158875,1.71641004085541,0.92695349454880
352,2468276065,-0.11808883398771,0.69268888235092,118.63864135742188,-0.13386115431786,-0.01860093697906,9.99622535705566,1.32376933097839,1.82009649276733,0.86650401353836
353,2468284398,-0.11785957217216,0.69283115863800,118.63800048828125,-0.12194865196943,-0.00966396462172,10.00072765350342,1.33890736103058,1.80032193660736,0.77923631668091
354,2468292731,-0.11776909977198,0.69453543424606,118.63838958740234,-0.11607065051794,-0.01280898880213,9.98707962036133,1.31716084480286,1.98192715644836,0.83932733535767
355,2468301064,-0.11725474894047,0.69546335935593,118.63779449462891,-0.13192294538021,-0.02014017663896,10.00310039520264,1.37364029884338,1.89343011379242,0.78425669670105
356,2468309397,-0.11748241633177,0.69591432809830,118.63884735107422,-0.12805001437664,-0.01984849199653,10.00934410095215,1.27907228469849,1.83280086517334,0.77536839246750
357,2468317730,-0.11712631583214,0.69607388973236,118.63822937011719,-0.12882651388645,-0.00290025118738,10.01578807830811,1.35522377490997,1.80185925960541,0.78325778245926
358,2468326063,-0.11590241640806,0.69635099172592,118.63884735107422,-0.13881021738052,-0.00862395484000,10.03220367431641,1.45171248912811,1.81123387813568,0.83187353610992
359,2468334396,-0.11593044549227,0.69596886634827,118.63880157470703,-0.12175289541483,-0.00977378990501,9.99737834930420,1.30791413784027,1.73628652095795,0.85067433118820
360,2468342729,-0.11521540582180,0.69504714012146,118.64009857177734,-0.12260365486145,-0.00337276607752,9.98242759704590,1.39023828506470,1.66705131530762,0.84880447387695
361,2468351062,-0.11504774540663,0.69506597518921,118.63996124267578,-0.12354441732168,-0.01753178611398,10.01690006256104,1.33270871639252,1.78620874881744,0.83694517612457
362,2468359395,-0.11500340700150,0.69631999731064,118.63964843750000,-0.14783681929111,-0.02302102185786,10.02827548980713,1.31047558784485,1.92782986164093,0.78494822978973
363,2468367728,-0.11536504328251,0.69628369808197,118.63916015625000,-0.12615171074867,-0.00696235755458,10.00924873352051,1.26869857311249,1.77814006805420,0.79808831214905
364,2468376061,-0.11502684652805,0.69627135992050,118.64035797119141,-0.12233944982290,-0.00278760213405,10.02071094512939,1.34610486030579,1.77701330184937,0.86263626813889
365,2468384394,-0.11607775837183,0.69674116373062,118.64045715332031,-0.13692267239094,-0.01992923207581,10.00249767303467,1.18455576896667,1.83846151828766,0.86916780471802
366,2468392727,-0.11545493453741,0.69807720184326,118.64105987548828,-0.13100609183311,-0.01940809935331,9.99044704437256,1.37963402271271,1.93748652935028,0.82247316837311
367,2468401060,-0.11548618972301,0.69962078332901,118.64099884033203,-0.12566508352757,-0.00329280178994,9.98830795288086,1.30834960937500,1.96806991100311,0.85082811117172
368,2468409393,-0.11532067507505,0.70043134689331,118.64254760742188,-0.12948204576969,0.00510295573622,10.00062274932861,1.32528066635132,1.87498748302460,0.83031100034714
369,2468417726,-0.11559718102217,0.69974130392075,118.64362335205078,-0.12831029295921,-0.00651260139421,9.99274158477783,1.27597308158875,1.69935071468353,0.98530274629593
370,2468426059,-0.11542182415724,0.70108467340469,118.64486694335938,-0.14128869771957,-0.02901722677052,10.03224086761475,1.32581841945648,1.93817782402039,0.85108417272568
371,2468434392,-0.11514867842197,0.70098376274109,118.64478302001953,-0.13724032044411,-0.01315667945892,10.02445697784424,1.34525966644287,1.77158284187317,0.84488552808762
372,2468442725,-0.11579667776823,0.70110690593719,118.64519500732422,-0.13469679653645,-0.02393657155335,10.00374221801758,1.22661447525024,1.79235601425171,0.79560363292694
373,2468451058,-0.11668520420790,0.70262295007706,118.64447021484375,-0.13175404071808,-0.02444142661989,10.00257015228271,1.20555973052979,1.96438145637512,0.77034819126129
374,2468459391,-0.11647423356771,0.70328718423843,118.64543914794922,-0.10962674021721,-0.02457857690752,9.99219512939453,1.33048021793365,1.85723686218262,0.88548409938812
375,2468467724,-0.11532960087061,0.70383834838867,118.64490509033203,-0.14765876531601,-0.01476885750890,9.99920082092285,1.44984257221222,1.84786224365234,0.79319602251053
376,2468476057,-0.11591176688671,0.70319783687592,118.64600372314453,-0.13365210592747,-0.01483126357198,10.03234004974365,1.23391437530518,1.69965815544128,0.87003868818283
377,2468484390,-0.11638657003641,0.70353460311890,118.64566040039062,-0.14307188987732,-0.00295767234638,10.01426315307617,1.25435459613800,1.82373356819153,0.81560844182968
378,2468492723,-0.11462888866663,0.70317167043686,118.64647674560547,-0.14583463966846,-0.02031721547246,10.02673244476318,1.51597857475281,1.73264920711517,0.83031111955643
379,2468501056,-0.11369498074055,0.70439320802689,118.64581298828125,-0.12348850071430,-0.00885205809027,10.02106857299805,1.42466378211975,1.93010950088501,0.77908253669739
380,2468509389,-0.11363147199154,0.70511186122894,118.64617919921875,-0.12405981123447,-0.02616973035038,10.00797939300537,1.31390786170959,1.86310279369354,0.76125508546829
381,2468517722,-0.11336093395948,0.70592921972275,118.64600372314453,-0.14024084806442,-0.01857456378639,10.05230998992920,1.34510612487793,1.88157045841217,0.83609992265701
382,2468526055,-0.11325295269489,0.70630896091461,118.64751434326172,-0.14010851085186,-0.00742937624454,10.02787494659424,1.31831347942352,1.82247853279114,0.81883591413498
383,2468534388,-0.11330273002386,0.70615470409393,118.64768218994141,-0.13057683408260,-0.00446238042787,9.99943637847900,1.30425119400024,1.76407790184021,0.87452113628387
384,2468542721,-0.11318261176348,0.70599234104156,118.64802551269531,-0.12063912302256,-0.00802945718169,9.98262691497803,1.32077240943909,1.75703394412994,0.73925238847733
385,2468551054,-0.11321518570185,0.70658636093140,118.64773559570312,-0.12654782831669,-0.01552801951766,10.02912139892578,1.30906665325165,1.85408627986908,0.82211446762085
386,2468559387,-0.11352963000536,0.70621234178543,118.64877319335938,-0.12492596358061,-0.02184304594994,10.01909351348877,1.26635491847992,1.73166334629059,0.86070239543915
387,2468567720,-0.11311054974794,0.70506751537323,118.64881896972656,-0.12475657463074,-0.01361371390522,10.03177642822266,1.36126840114594,1.64563775062561,0.86053580045700
388,2468576053,-0.11315476894379,0.70429420471191,118.64847564697266,-0.13343404233456,-0.01079875882715,10.03843307495117,1.30176663398743,1.68308568000793,0.72467792034149
389,2468584386,-0.11332293599844,0.70428192615509,118.64891052246094,-0.12608811259270,-0.02071528509259,10.01076889038086,1.28985607624054,1.78065049648285,0.90769171714783
390,2468592719,-0.11348375678062,0.70431596040726,118.64958190917969,-0.12291049957275,-0.01931279338896,10.00767803192139,1.28703844547272,1.78211033344269,0.77114212512970
391,2468601052,-0.11284641176462,0.70272272825241,118.64908599853516,-0.15243534743786,-0.00679105985910,10.00592899322510,1.38790714740753,1.59171962738037,0.79667955636978
392,2468609385,-0.11300607025623,0.70294201374054,118.65008544921875,-0.13947902619839,-0.00237115519121,10.00172328948975,1.28698718547821,1.80142354965210,0.84596133232117
393,2468617718,-0.11291705071926,0.70225912332535,118.64949798583984,-0.11218465119600,-0.01488974876702,10.02619075775146,1.32215547561646,1.70137429237366,0.78589588403702
394,2468626051,-0.11331997811794,0.70205122232437,118.65034484863281,-0.12305855005980,-0.02075267583132,10.01484680175781,1.25763320922852,1.75188553333282,0.81845158338547
395,2468634384,-0.11286184936762,0.70142900943756,118.65003204345703,-0.12206020951271,-0.02780598402023,9.99556922912598,1.36672425270081,1.70811080932617,0.81755518913269
396,2468642717,-0.11280052363873,0.70093971490860,118.65165710449219,-0.12606754899025,-0.01708156988025,10.01317024230957,1.31226849555969,1.71848452091217,0.79624408483505
397,2468651050,-0.11263530701399,0.70177304744720,118.65079498291016,-0.11033418774605,-0.02501017786562,9.99363327026367,1.33334910869598,1.88233911991119,0.75328904390335
398,2468659383,-0.11205557733774,0.70203304290771,118.65202331542969,-0.12387330085039,0.00020241370657,10.00170516967773,1.37348663806915,1.80785274505615,0.89298915863037
399,2468667716,-0.11169780045748,0.70262718200684,118.65186309814453,-0.12745916843414,-0.00525493687019,10.02434349060059,1.35465991497040,1.85380446910858,0.83602303266525
400,2468676049,-0.11176147311926,0.70302999019623,118.65326690673828,-0.13421820104122,-0.01361416000873,10.00623416900635,1.29654121398926,1.82596182823181,0.92774760723114
401,2468684382,-0.11158546060324,0.70301556587219,118.65336608886719,-0.12326776236296,-0.01558198034763,9.96360969543457,1.33301591873169,1.78003561496735,0.86898857355118
402,2468692715,-0.11046354472637,0.70365852117538,118.65440368652344,-0.13217519223690,-0.02580140717328,10.01746463775635,1.43990421295166,1.85564887523651,0.81092107295990
403,2468701048,-0.11003420501947,0.70351922512054,118.65352630615234,-0.13132219016552,-0.01504288148135,9.98755550384521,1.36357367038727,1.76489758491516,0.75123989582062
404,2468709381,-0.10937472432852,0.70319026708603,118.65455627441406,-0.13019610941410,-0.01322906930000,9.98792266845703,1.38480782508850,1.73764395713806,0.86522316932678
405,2468717714,-0.11016958951950,0.70335727930069,118.65348815917969,-0.14079333841801,-0.04518782347441,9.99536132812500,1.21798253059387,1.80385684967041,0.72718811035156
406,2468726047,-0.10955728590488,0.70416182279587,118.65407562255859,-0.14025560021400,-0.02222254127264,10.01055335998535,1.37914717197418,1.87196516990662,0.84982919692993
407,2468734380,-0.10912181437016,0.70416772365570,118.65364837646484,-0.12039938569069,-0.00978412572294,9.99358749389648,1.36436784267426,1.78362154960632,0.80812913179398
408,2468742713,-0.10836835205555,0.70337361097336,118.65456390380859,-0.11431525647640,-0.02359373681247,10.00871181488037,1.39518177509308,1.68177938461304,0.82859486341476
409,2468751046,-0.10835298150778,0.70364397764206,118.65475463867188,-0.14471526443958,-0.01418198458850,10.01434230804443,1.31370270252228,1.81574177742004,0.87974643707275
410,2468759379,-0.10831511765718,0.70477288961411,118.65521240234375,-0.11261852085590,-0.00267321919091,10.02091026306152,1.30950224399567,1.91215395927429,0.82147419452667
411,2468767712,-0.10871390998363,0.70567041635513,118.65482330322266,-0.13744735717773,-0.01039746776223,9.99900627136230,1.26506149768829,1.88992083072662,0.81176626682281
412,2468776045,-0.10922057926655,0.70621311664581,118.65604400634766,-0.14282761514187,-0.02302220836282,9.99987792968750,1.24416017532349,1.84238076210022,0.84211915731430
413,2468784378,-0.10933218896389,0.70520633459091,118.65592193603516,-0.12391337007284,-0.00803684256971,9.99368667602539,1.29874420166016,1.66177463531494,0.84078723192215
414,2468792711,-0.10900604724884,0.70433217287064,118.65673828125000,-0.11762785166502,-0.03212098777294,10.02078533172607,1.34495246410370,1.67219984531403,0.84288769960403
415,2468801044,-0.10806007683277,0.70518958568573,118.65651702880859,-0.14797364175320,-0.00880908407271,10.01595020294189,1.42499673366547,1.88505411148071,0.83218097686768
416,2468809377,-0.10786508768797,0.70660382509232,118.65668487548828,-0.13382971286774,-0.00421106023714,10.01382732391357,1.33027529716492,1.94711744785309,0.76040983200073
417,2468817710,-0.10770786553621,0.70707774162292,118.65690612792969,-0.12846036255360,-0.03295420855284,10.02649879455566,1.33071088790894,1.84028053283691,0.88307642936707
418,2468826043,-0.10750342905521,0.70750123262405,118.65746307373047,-0.15239474177361,-0.01650226488709,10.00816059112549,1.33009600639343,1.82611572742462,0.85733401775360
419,2468834376,-0.10709848254919,0.70777130126953,118.65801239013672,-0.15883500874043,-0.01041790004820,10.01106548309326,1.35911679267883,1.81487119197845,0.92185634374619
420,2468842709,-0.10757325589657,0.70706278085709,118.65810394287109,-0.12581788003445,-0.02048318460584,9.99930191040039,1.24874508380890,1.69199919700623,0.77941554784775
421,2468851042,-0.10714737325907,0.70701116323471,118.65860748291016,-0.13532760739326,-0.03044531680644,10.00873947143555,1.36170387268066,1.77685940265656,0.91698962450027
422,2468859375,-0.10715901106596,0.70735144615173,118.65810394287109,-0.11253137141466,0.00193283078261,9.99228477478027,1.30653095245361,1.81694555282593,0.77590632438660
423,2468867708,-0.10761579126120,0.70855224132538,118.65789794921875,-0.12402740865946,0.00533250253648,10.00592422485352,1.25701856613159,1.92575502395630,0.83115631341934
424,2468876041,-0.10812692344189,0.70887720584869,118.65834045410156,-0.13119292259216,-0.03772242367268,9.99262046813965,1.24351990222931,1.81656157970428,0.84473180770874
425,2468884374,-0.10842600464821,0.70906543731689,118.65788269042969,-0.14331285655499,0.01114653330296,9.99861717224121,1.27684390544891,1.80575215816498,0.80269885063171
426,2468892707,-0.10864060372114,0.70772939920425,118.65853881835938,-0.10708042979240,-0.00888754613698,10.00474643707275,1.27868831157684,1.61469566822052,0.91424888372421
427,2468901040,-0.10840839892626,0.70720463991165,118.65820312500000,-0.13271519541740,-0.03148135542870,10.00424575805664,1.33962464332581,1.72081565856934,0.81630015373230
428,2468909373,-0.10768529772758,0.70706415176392,118.65770721435547,-0.13579021394253,-0.02275383844972,9.99617576599121,1.39423406124115,1.75857102870941,0.77014327049255
429,2468917706,-0.10855618119240,0.70707309246063,118.65853881835938,-0.12385565787554,-0.02403556369245,10.01282882690430,1.20517539978027,1.78456938266754,0.95733201503754
430,2468926039,-0.10852845758200,0.70707195997238,118.66038513183594,-0.14153274893761,-0.02368414215744,9.98350048065186,1.30852878093719,1.77524566650391,0.95699906349182
431,2468934372,-0.10831145942211,0.70707392692566,118.66057586669922,-0.12071260809898,-0.01760567165911,10.00607013702393,1.33780574798584,1.78275072574615,0.87943911552429
432,2468942705,-0.10817238688469,0.70746099948883,118.66126251220703,-0.12674151360989,-0.01184170786291,10.00532531738281,1.32202756404877,1.82342636585236,0.85876852273941
433,2468951038,-0.10723684728146,0.70734292268753,118.66175079345703,-0.13694384694099,-0.02637634053826,10.00033187866211,1.42430520057678,1.76871407032013,0.91291701793671
434,2468959371,-0.10652155429125,0.70768523216248,118.66225433349609,-0.11896470934153,-0.02444764226675,10.01372432708740,1.39036631584167,1.81668972969055,0.89747148752213
435,2468967704,-0.10719580203295,0.70891028642654,118.66262817382812,-0.11377946287394,-0.02469546161592,9.99258804321289,1.23053359985352,1.92964839935303,0.90003305673599
436,2468976037,-0.10590308159590,0.71032607555389,118.66335296630859,-0.14192187786102,-0.04882485419512,9.99381065368652,1.46113836765289,1.94734776020050,0.84345108270645
437,2468984370,-0.10612820088863,0.71098041534424,118.66351318359375,-0.10601685941219,-0.02243769541383,10.00344657897949,1.28442585468292,1.86141228675842,0.87475180625916
438,2468992703,-0.10703653842211,0.70986300706863,118.66460418701172,-0.14340947568417,-0.02569293789566,9.98145294189453,1.19815695285797,1.64207732677460,0.84127390384674
439,2469001036,-0.10734375566244,0.71108651161194,118.66456604003906,-0.13875204324722,-0.00573385320604,10.00834846496582,1.27441060543060,1.92987895011902,0.85321009159088
440,2469009369,-0.10698490589857,0.71123313903809,118.66572570800781,-0.11616929620504,0.00073215120938,10.01448822021484,1.34846150875092,1.79345762729645,0.90113449096680
441,2469017702,-0.10730060935020,0.71121394634247,118.66564178466797,-0.13971291482449,-0.01086566504091,10.01329040527344,1.27402639389038,1.78003561496735,0.84644794464111
442,2469026035,-0.10708373039961,0.71157771348953,118.66676330566406,-0.13436464965343,-0.00984933786094,10.00868511199951,1.33316969871521,1.82037818431854,0.86624789237976
443,2469034368,-0.10813035815954,0.71100300550461,118.66651916503906,-0.14742818474770,0.00043223064858,9.99006938934326,1.18629765510559,1.71423256397247,0.82608461380005
444,2469042701,-0.10800738632679,0.71056991815567,118.66757202148438,-0.14464405179024,-0.00035629572812,10.00751686096191,1.32146406173706,1.72437584400177,0.88120645284653
445,2469051034,-0.10775985568762,0.70980560779572,118.66703796386719,-0.13015560805798,0.01554752141237,10.01004219055176,1.34052097797394,1.69051373004913,0.79337537288666
446,2469059367,-0.10740499198437,0.70984572172165,118.66758728027344,-0.14326667785645,-0.03119136020541,9.97058296203613,1.34984469413757,1.78221285343170,0.78996866941452
447,2469067700,-0.10729513317347,0.71096539497375,118.66736602783203,-0.12822982668877,-0.03155533969402,10.02276325225830,1.32492184638977,1.91622626781464,0.83041340112686
448,2469076033,-0.10654821246862,0.71075499057770,118.66727447509766,-0.11820913106203,-0.01508780010045,9.98404502868652,1.39710283279419,1.75178325176239,0.83850759267807
449,2469084366,-0.10688801854849,0.71143174171448,118.66803741455078,-0.15539553761482,-0.00544882519171,10.02927494049072,1.26874983310699,1.86381971836090,0.94941735267639
450,2469092699,-0.10774733126163,0.71014016866684,118.66866302490234,-0.13299641013145,-0.02497945539653,10.01006698608398,1.20330536365509,1.62158596515656,0.85741090774536
451,2469101032,-0.10812666267157,0.71049171686172,118.66866302490234,-0.13733424246311,-0.02686258777976,10.01012420654297,1.26664948463440,1.82365667819977,0.85569471120834
452,2469109365,-0.10744430124760,0.71005713939667,118.66852569580078,-0.13653929531574,-0.02872473187745,10.01083374023438,1.38957214355469,1.72476005554199,0.81632560491562
453,2469117698,-0.10755322873592,0.71045714616776,118.66860961914062,-0.10826939344406,-0.00676290830597,10.00888824462891,1.29756593704224,1.83146917819977,0.86537694931030
454,2469126031,-0.10730239748955,0.70920920372009,118.66862487792969,-0.11642900109291,-0.01202038954943,10.00518989562988,1.33839511871338,1.62568438053131,0.77326816320419
455,2469134364,-0.10737083852291,0.70830285549164,118.66806030273438,-0.11198512464762,-0.01337827369571,9.99330902099609,1.30422544479370,1.67350602149963,0.79050642251968
456,2469142697,-0.10775557160378,0.70872074365616,118.66819763183594,-0.13186508417130,-0.02192746102810,10.01069450378418,1.25965690612793,1.82819044589996,0.83858442306519
457,2469151030,-0.10712578892708,0.70900839567184,118.66831207275391,-0.12274652719498,-0.00081297068391,10.02878570556641,1.38739502429962,1.81610035896301,0.86980813741684
458,2469159363,-0.10725196450949,0.70980650186539,118.66777801513672,-0.13586175441742,-0.01640991866589,10.03099632263184,1.29141855239868,1.87355315685272,0.87961852550507
459,2469167696,-0.10700342804193,0.70947664976120,118.66758728027344,-0.12779158353806,-0.01945378445089,10.00122642517090,1.34162223339081,1.74174237251282,0.83092576265335
460,2469176029,-0.10611186176538,0.71056610345840,118.66728210449219,-0.15258383750916,-0.01086902990937,10.02015018463135,1.41382896900177,1.90861928462982,0.85748779773712
461,2469184362,-0.10601611435413,0.71096909046173,118.66746520996094,-0.11281487345695,-0.04410339146852,10.00440597534180,1.32318019866943,1.82995796203613,0.87856829166412
462,2469192695,-0.10548877716064,0.71105623245239,118.66713714599609,-0.07330709695816,-0.01921528764069,10.00173282623291,1.36887598037720,1.78733587265015,0.83717572689056
463,2469201028,-0.10504880547523,0.71004748344421,118.66672515869141,-0.11025547236204,-0.01675261184573,9.98089218139648,1.36554610729218,1.66269671916962,0.80638736486435
464,2469209361,-0.10516863316298,0.71115154027939,118.66807556152344,-0.06024070084095,0.00800381135195,10.02946567535400,1.29159796237946,1.90859377384186,0.92244553565979
465,2469217694,-0.10541164875031,0.71047276258469,118.66869354248047,0.40284574031830,-0.04682812467217,10.03347206115723,1.28168499469757,1.70211708545685,0.93276798725128
466,2469226027,-0.10667715221643,0.70823502540588,118.66973114013672,1.20167243480682,-0.09297966957092,10.00330638885498,1.15648257732391,1.51321208477020,0.82014214992523
467,2469234360,-0.10832383483648,0.71239513158798,118.66919708251953,-0.66099971532822,0.00577255990356,9.95285797119141,1.11465466022491,2.28140878677368,0.79445111751556
468,2469242693,-0.10516399145126,0.71027129888535,118.67079162597656,-1.33939671516418,0.06167636066675,10.01023674011230,1.68700468540192,1.53298628330231,0.76151120662689
469,2469251026,-0.10306998342276,0.70912933349609,118.66992187500000,-0.26273554563522,0.01000971719623,9.99043178558350,1.56426131725311,1.64635491371155,0.75211077928543
470,2469259359,-0.10756279528141,0.70975297689438,118.67234039306641,-0.19945403933525,-0.01135102380067,9.98391246795654,0.76893931627274,1.85157620906830,0.81045997142792
471,2469267692,-0.10854443162680,0.70931816101074,118.67292785644531,-0.20709489285946,-0.00073564337799,10.04350757598877,1.19249629974365,1.73093318939209,0.92605710029602
472,2469276025,-0.11036283522844,0.70948600769043,118.67578125000000,-0.13226686418056,-0.03229246661067,9.97270488739014,1.08886110782623,1.79722273349762,0.79819077253342
473,2469284358,-0.11038537323475,0.70911705493927,118.67597198486328,-0.08368655294180,-0.05836377292871,9.96675968170166,1.30916917324066,1.73856604099274,0.87872195243835
474,2469292691,-0.10460668802261,0.70708429813385,118.67830657958984,-0.08584995567799,-0.02300256118178,10.00989151000977,2.00139403343201,1.53301203250885,0.78651070594788
475,2469301024,-0.10682185739279,0.70741546154022,118.67743682861328,-0.15755224227905,0.00871793925762,9.99676132202148,1.04654633998871,1.82119762897491,0.75154721736908
476,2469309357,-0.11189011484385,0.70680737495422,118.67650604248047,-0.31456935405731,-0.00563540682197,10.03854751586914,0.70472449064255,1.71103084087372,0.74673181772232
477,2469317690,-0.11860939860344,0.69858407974243,118.69684600830078,-0.10671921074390,-0.06091429665685,9.94937419891357,1.21726524829865,1.75480556488037,0.88379353284836
478,2469326023,-0.11937311291695,0.69654721021652,118.69890594482422,-0.15846687555313,0.00119647081010,9.96896171569824,1.21495997905731,1.53285825252533,0.92021709680557
479,2469334356,-0.11669706553221,0.69638991355896,118.70024871826172,-0.04171447455883,-0.06460032612085,9.98088550567627,1.63413691520691,1.76630640029907,1.00981557369232
480,2469342689,-0.11561582982540,0.69515281915665,118.70111083984375,-0.01943147368729,0.01331183128059,10.01930522918701,1.43749642372131,1.62927019596100,0.90674388408661
481,2469351022,-0.11797876656055,0.69560503959656,118.70021820068359,-0.00908140838146,0.08228573203087,9.97546195983887,1.03153645992279,1.84104871749878,0.74132716655731
482,2469359355,-0.12125453352928,0.69710594415665,118.69964599609375,-0.09873861074448,-0.10232049226761,9.91228675842285,0.91599071025848,1.95854139328003,0.75157296657562
483,2469367688,-0.12036387622356,0.69751375913620,118.69966125488281,-0.25633794069290,0.04081739112735,10.08303451538086,1.42092394828796,1.83446586132050,0.85026448965073
484,2469376021,-0.11902783066034,0.69723063707352,118.70046234130859,-0.17742125689983,-0.01767368242145,10.04163455963135,1.46943747997284,1.74537968635559,0.77034813165665
485,2469384354,-0.11804591864347,0.69669079780579,118.70043945312500,-0.15196883678436,-0.01704504713416,10.02484226226807,1.43114423751831,1.72038030624390,0.84314388036728
486,2469392687,-0.11776408553123,0.69575917720795,118.70154571533203,-0.07456614822149,0.00412061717361,10.02927875518799,1.34315931797028,1.66651332378387,0.83018296957016
487,2469401020,-0.12135311961174,0.69618904590607,118.70111083984375,-0.05556318163872,-0.01330951135606,9.99679183959961,0.88338381052017,1.83674550056458,0.79439991712570
488,2469409353,-0.12344377487898,0.69647330045700,118.70225524902344,-0.11229623109102,-0.11883740872145,9.95598602294922,1.05761170387268,1.81343662738800,0.76064026355743
489,2469417686,-0.11984280496836,0.69654762744904,118.70168304443359,-0.21127267181873,-0.04356840252876,10.00509929656982,1.74699330329895,1.79494321346283,0.77782750129700
490,2469426019,-0.11781844496727,0.69656878709793,118.70469665527344,-0.22549614310265,0.01057556737214,10.05782985687256,1.55076253414154,1.78067588806152,0.90574491024017
491,2469434352,-0.11875811219215,0.69572567939758,118.70496368408203,-0.22935472428799,-0.00237465417013,10.03132343292236,1.20092332363129,1.68467402458191,0.87621176242828
492,2469442685,-0.12006533890963,0.69356149435043,118.70789337158203,-0.10768261551857,0.02474045008421,9.91470241546631,1.15123176574707,1.51769459247589,0.93030899763107
493,2469451018,-0.12334264069796,0.69361531734467,118.70871734619141,-0.04080045223236,-0.00052672490710,10.03742122650146,0.91996085643768,1.79048621654510,0.94677895307541
494,2469459351,-0.12549245357513,0.69372820854187,118.70989227294922,-0.06770360469818,-0.04126055166125,10.02182865142822,1.04997861385345,1.79115223884583,0.87129378318787
495,2469467684,-0.12097435444593,0.69402879476547,118.70897674560547,0.00026376207825,-0.01777643337846,9.94883441925049,1.85769808292389,1.82237601280212,0.73638367652893
496,2469476017,-0.11800308525562,0.69512408971786,118.70925140380859,-0.17356459796429,0.04293581470847,9.99345684051514,1.66448986530304,1.91110360622406,0.81499373912811
497,2469484350,-0.12108018994331,0.69503909349442,118.70883941650391,-0.12835438549519,0.02830640785396,10.02543735504150,0.94565188884735,1.77455413341522,0.79770410060883
498,2469492683,-0.12175378948450,0.69653809070587,118.70954895019531,-0.17865295708179,-0.02127286046743,10.01694202423096,1.22597420215607,1.95971965789795,0.92723530530930
499,2469501016,-0.12316188961267,0.69817018508911,118.70946502685547,-0.06379450112581,-0.06383133679628,10.00314712524414,1.14534056186676,1.98095381259918,0.83707332611084
500,2469509349,-0.12268061935902,0.69926893711090,118.71006774902344,-0.12338569015265,-0.01742052473128,10.04510307312012,1.36536693572998,1.91110384464264,0.86145800352097
501,2469517682,-0.11826607584953,0.69851136207581,118.71013641357422,-0.08785452693701,-0.10579407960176,9.93113899230957,1.84279060363770,1.69361329078674,0.85566908121109
502,2469526015,-0.11718831956387,0.69806283712387,118.71024322509766,-0.13731117546558,0.02526187151670,10.02894401550293,1.43977618217468,1.72547733783722,0.74365806579590
503,2469534348,-0.12197094410658,0.69727015495300,118.70906829833984,-0.24046340584755,0.00890301167965,10.03629112243652,0.74196749925613,1.69110298156738,0.70416092872620
504,2469542681,-0.12260041385889,0.69957458972931,118.71030426025391,-0.25426700711250,-0.08330690860748,9.97555065155029,1.23219859600067,2.05574727058411,0.90482294559479
505,2469551014,-0.12135244160891,0.69999808073044,118.71096801757812,-0.18840625882149,-0.00532158929855,9.99154090881348,1.46239352226257,1.83577215671539,0.92756831645966
506,2469559347,-0.12028899788857,0.69931471347809,118.71292114257812,-0.08518456667662,0.04136070236564,9.99335861206055,1.43590843677521,1.69479143619537,0.88825052976608
507,2469567680,-0.11822833120823,0.69860422611237,118.71258544921875,-0.04427187517285,-0.03882388025522,9.95363044738770,1.56159746646881,1.70009374618530,0.80748879909515
508,2469576013,-0.11770898848772,0.69861340522766,118.71395874023438,-0.07685873657465,0.01701302081347,9.99242401123047,1.37184727191925,1.78080415725708,0.85344076156616
509,2469584346,-0.12103568762541,0.70045119524002,118.71371459960938,-0.08978961408138,0.04249252006412,10.02204036712646,0.91396713256836,2.00590205192566,0.81837481260300
510,2469592679,-0.12343632429838,0.70185315608978,118.71475219726562,-0.13806401193142,-0.04285751283169,10.00641918182373,1.02039420604706,1.94686114788055,0.82349753379822
511,2469601012,-0.11998189240694,0.70138180255890,118.71553039550781,-0.15254767239094,-0.03510125726461,10.00232315063477,1.72652769088745,1.72770583629608,0.93929970264435
512,2469609345,-0.11846783012152,0.70113718509674,118.71734619140625,-0.10446058958769,0.00152835040353,10.01102638244629,1.49041569232941,1.75037455558777,0.91245597600937
513,2469617678,-0.12029945850372,0.70105010271072,118.71732330322266,-0.08211828768253,-0.01556496601552,10.02190971374512,1.09418880939484,1.77452850341797,0.84506481885910
514,2469626011,-0.12161310762167,0.70130747556686,118.71782684326172,-0.09259936213493,0.00355089432560,10.00601959228516,1.15105235576630,1.81090068817139,0.75162404775620
515,2469634344,-0.12435877323151,0.70200169086456,118.71726989746094,-0.13776256144047,-0.01043419074267,9.98524188995361,0.98463678359985,1.86878883838654,0.78195130825043
516,2469642677,-0.12351556867361,0.70154184103012,118.71833038330078,-0.20743171870708,-0.05140485987067,9.97142219543457,1.41116499900818,1.72301840782166,0.80664348602295
517,2469651010,-0.11900942027569,0.70247346162796,118.71807098388672,-0.21023368835449,-0.03348691016436,10.02165126800537,1.85400938987732,1.89857852458954,0.81645375490189
518,2469659343,-0.11798320710659,0.70137900114059,118.72052001953125,-0.20911747217178,0.03977587074041,10.04817199707031,1.43083655834198,1.64691829681396,0.94178414344788
519,2469667676,-0.12152112275362,0.70114022493362,118.72103881835938,-0.12510341405869,-0.04776769876480,10.02643203735352,0.88837850093842,1.75672662258148,0.91084212064743
520,2469676009,-0.12290158122778,0.70082211494446,118.72299194335938,-0.09335611015558,-0.05341698601842,9.97788619995117,1.14201068878174,1.73859167098999,0.87639105319977
521,2469684342,-0.12279289215803,0.70143634080887,118.72335052490234,-0.06445211172104,-0.01101304125041,10.02236366271973,1.32773947715759,1.86000311374664,0.88958245515823
522,2469692675,-0.12239959090948,0.70132201910019,118.72546386718750,-0.07861829549074,-0.04065624997020,9.97212314605713,1.35519778728485,1.76394987106323,0.82885092496872
523,2469701008,-0.11943425238132,0.70106303691864,118.72510528564453,-0.18122355639935,-0.01802019774914,10.03442668914795,1.67094480991364,1.75411415100098,0.80497854948044
524,2469709341,-0.11984055489302,0.70152848958969,118.72637939453125,-0.04472772404552,0.04769648984075,9.99262523651123,1.26047646999359,1.83497810363770,0.80390268564224
525,2469717674,-0.12423034012318,0.70312458276749,118.72615814208984,-0.16647723317146,0.01371414773166,10.03229427337646,0.78656184673309,1.97813618183136,0.82160216569901
526,2469726007,-0.12380532920361,0.70447766780853,118.72774505615234,-0.07743944972754,0.00752407312393,9.98417758941650,1.36016702651978,1.94017565250397,0.86483889818192
527,2469734340,-0.12286726385355,0.70488137006760,118.72727966308594,-0.08635562658310,-0.01007258798927,9.96684741973877,1.42591881752014,1.83397948741913,0.79250448942184
528,2469742673,-0.12160455435514,0.70458453893661,118.72767639160156,-0.10323747992516,-0.03214885294437,9.99163246154785,1.46034431457520,1.74476480484009,0.77639299631119
529,2469751006,-0.11793006211519,0.70552390813828,118.72804260253906,-0.17903222143650,0.00961189530790,10.00333881378174,1.75375556945801,1.89740014076233,0.89109373092651
530,2469759339,-0.12012351304293,0.70731729269028,118.72846984863281,-0.19768670201302,-0.01509138755500,10.03567028045654,1.04626476764679,1.99458062648773,0.78912341594696
531,2469767672,-0.12392076104879,0.70721673965454,118.72838592529297,-0.20819874107838,-0.05591828003526,9.99268627166748,0.85774385929108,1.77286350727081,0.83835393190384
532,2469776005,-0.12215271592140,0.70565432310104,118.73004150390625,-0.15294827520847,-0.08943093568087,9.97831726074219,1.52071702480316,1.59161722660065,0.87756931781769
533,2469784338,-0.11938879638910,0.70489764213562,118.73110961914062,-0.09930710494518,-0.01090887933969,10.04650878906250,1.64415216445923,1.69463789463043,0.97477525472641
534,2469792671,-0.11979951709509,0.70354688167572,118.73189544677734,-0.08179686218500,-0.00873797480017,10.02142524719238,1.25942623615265,1.61636066436768,0.83653527498245
535,2469801004,-0.12032202631235,0.70265281200409,118.73226928710938,-0.10530447959900,-0.01315783709288,9.99869537353516,1.24951362609863,1.67875707149506,0.89029961824417
536,2469809337,-0.12116461247206,0.70366019010544,118.73318481445312,-0.15295894443989,0.01367514021695,10.01385784149170,1.20868456363678,1.89911639690399,0.82664823532104
537,2469817670,-0.12378058582544,0.70339804887772,118.73274230957031,-0.16431814432144,-0.01140705309808,9.99696731567383,1.00031268596649,1.75465178489685,0.79475849866867
538,2469826003,-0.12256856262684,0.70308643579483,118.73371124267578,-0.10573706030846,0.01337991282344,10.03446674346924,1.45242965221405,1.74128139019012,0.89158034324646
539,2469834336,-0.11887989938259,0.70246797800064,118.73474121093750,-0.10219760239124,0.01921514049172,9.98278141021729,1.75544595718384,1.71046733856201,0.96901208162308
540,2469842669,-0.11977146565914,0.70343202352524,118.73480987548828,-0.06379977613688,-0.01005983352661,9.99198436737061,1.20243465900421,1.89514589309692,0.77531725168228
541,2469851002,-0.12111054360867,0.70462512969971,118.73390960693359,-0.03043233603239,-0.05010679736733,10.04438781738281,1.15512514114380,1.92944324016571,0.73886817693710
542,2469859335,-0.12183185666800,0.70643204450607,118.73442840576172,-0.15485221147537,-0.01775900460780,10.00165081024170,1.22187590599060,1.99534904956818,0.78136223554611
543,2469867668,-0.12279623746872,0.70678216218948,118.73346710205078,-0.16683802008629,-0.02960159629583,9.93118000030518,1.19987320899963,1.82895886898041,0.73418074846268
544,2469876001,-0.11964395642281,0.70677417516708,118.73468780517578,-0.22689652442932,-0.05154573172331,10.07446670532227,1.68528866767883,1.77801227569580,0.92303466796875
545,2469884334,-0.11777485907078,0.70667481422424,118.73460388183594,-0.16617491841316,-0.01739853993058,9.95892810821533,1.53816044330597,1.77355527877808,0.83702200651169
546,2469892667,-0.11985386908054,0.70634764432907,118.73548889160156,-0.15677945315838,-0.01554040517658,10.03877830505371,1.05996823310852,1.74053835868835,0.80774486064911
547,2469901000,-0.12268343567848,0.70647686719894,118.73561096191406,-0.09307685494423,-0.03312397748232,10.00929927825928,0.97408372163773,1.80070614814758,0.86263614892960
548,2469909333,-0.12120891362429,0.70715487003326,118.73607635498047,-0.10540942102671,-0.03608885779977,9.97487258911133,1.48613810539246,1.86031067371368,0.82395875453949
549,2469917666,-0.12060231715441,0.70711022615433,118.73545074462891,-0.09845212846994,-0.02150740660727,9.97671604156494,1.38675475120544,1.78026628494263,0.77160322666168
550,2469925999,-0.11798675358295,0.70664155483246,118.73666381835938,-0.16869486868382,0.01820281520486,10.02425289154053,1.62278985977173,1.72289037704468,0.89708739519119
551,2469934332,-0.11653242260218,0.70712673664093,118.73702239990234,-0.10864356905222,0.02281841635704,10.00309371948242,1.48749554157257,1.84240615367889,0.88924932479858
552,2469942665,-0.12093578279018,0.70677137374878,118.73815155029297,-0.12461429089308,-0.00888046249747,10.02546310424805,0.78033757209778,1.73774647712708,0.84844589233398
553,2469950998,-0.12287283688784,0.70703977346420,118.73841094970703,-0.06245863437653,-0.05419254675508,9.99707984924316,1.08066451549530,1.81799590587616,0.87915736436844
554,2469959331,-0.12046732753515,0.70600050687790,118.73840332031250,-0.06846244633198,-0.05475566163659,9.97078227996826,1.59709882736206,1.65498709678650,0.81186884641647
555,2469967664,-0.11927001923323,0.70602416992188,118.73812866210938,-0.07923223823309,-0.00887672882527,9.99442291259766,1.45811581611633,1.78853952884674,0.81601828336716
556,2469975997,-0.11848334968090,0.70792508125305,118.73925781250000,-0.13658036291599,-0.01907936111093,10.03261089324951,1.40363454818726,2.00702905654907,0.83161741495132
557,2469984330,-0.11960554122925,0.70909899473190,118.73899841308594,-0.17426635324955,0.00781194493175,10.05082893371582,1.17963802814484,1.92670285701752,0.81624889373779
558,2469992663,-0.12312602251768,0.71139913797379,118.74054718017578,-0.19315597414970,0.00881448481232,10.03364372253418,0.88673919439316,2.05651545524597,0.89652383327484
559,2470000996,-0.12441468238831,0.71168112754822,118.74072265625000,-0.18034780025482,-0.04161256551743,10.00640678405762,1.15735363960266,1.81996834278107,0.86819458007812
560,2470009329,-0.12156389653683,0.71067839860916,118.74122619628906,-0.14793865382671,-0.03385594487190,9.99955463409424,1.65242540836334,1.65872657299042,0.82441979646683
561,2470017662,-0.11988153308630,0.70989817380905,118.74150085449219,-0.13179093599319,0.00620132125914,10.03889179229736,1.51428782939911,1.69138479232788,0.88166755437851
562,2470025995,-0.12171632051468,0.71021556854248,118.74245452880859,-0.07280404865742,-0.00745083531365,10.00491523742676,1.08939898014069,1.81702244281769,0.82869732379913
563,2470034328,-0.12268163263798,0.70989894866943,118.74282836914062,-0.15609772503376,-0.01520177815109,10.03147792816162,1.19754230976105,1.74763357639313,0.89314281940460
564,2470042661,-0.12438995391130,0.70896828174591,118.74440765380859,-0.13944874703884,-0.01488464698195,10.01394081115723,1.10343551635742,1.66792201995850,0.88064301013947
565,2470050994,-0.12457189708948,0.70728003978729,118.74457550048828,-0.12329518049955,-0.02684999257326,9.98465442657471,1.29095745086670,1.58313894271851,0.86627340316772
566,2470059327,-0.12175676971674,0.70752567052841,118.74642944335938,-0.09006626904011,-0.01129586528987,9.96585464477539,1.64622688293457,1.80839073657990,0.93640530109406
567,2470067660,-0.12133703380823,0.70879960060120,118.74626922607422,-0.07526012510061,0.04808499291539,9.99534797668457,1.36393249034882,1.93771696090698,0.82923531532288
568,2470075993,-0.12289565056562,0.70985460281372,118.74677276611328,-0.07506901770830,-0.00059461354977,9.99044990539551,1.12136554718018,1.90797853469849,0.82103860378265
569,2470084326,-0.12359026074409,0.71098482608795,118.74663543701172,-0.12062841653824,-0.00162299443036,10.03847026824951,1.23150682449341,1.92109334468842,0.83023422956467
570,2470092659,-0.12397425621748,0.71149742603302,118.74708557128906,-0.16563400626183,-0.00571146840230,9.98449611663818,1.26334524154663,1.84150993824005,0.72001618146896
571,2470100992,-0.12197060883045,0.71107208728790,118.74696350097656,-0.16942225396633,-0.01806657202542,10.02318286895752,1.55434870719910,1.73513400554657,0.83177113533020
572,2470109325,-0.11934462934732,0.71048069000244,118.74874114990234,-0.17764146625996,-0.01526507269591,9.98868465423584,1.62271296977997,1.70864868164062,0.96191692352295
573,2470117658,-0.11996965855360,0.70953208208084,118.75027465820312,-0.12861740589142,-0.00478327553719,10.01769161224365,1.23563063144684,1.67025303840637,1.03046047687531
574,2470125991,-0.12293688207865,0.71177297830582,118.75093078613281,-0.11961181461811,-0.03031814470887,9.97969436645508,0.95238858461380,2.04906201362610,0.81514745950699
575,2470134324,-0.12247055023909,0.71302074193954,118.75021362304688,-0.10844445973635,-0.06327237933874,9.99511051177979,1.37079715728760,1.93564236164093,0.76248455047607
576,2470142657,-0.11985570937395,0.71273779869080,118.75088500976562,-0.14620089530945,-0.02414626255631,10.05636119842529,1.62409603595734,1.74555885791779,0.76583999395370
577,2470150990,-0.11855585128069,0.71227568387985,118.75154113769531,-0.14626406133175,-0.03028135560453,10.01297187805176,1.46969377994537,1.73039531707764,0.92636448144913
578,2470159323,-0.11696696281433,0.71223241090775,118.75308227539062,-0.14733512699604,0.00670025218278,9.99413394927979,1.49863767623901,1.77404212951660,0.87011563777924
579,2470167656,-0.11801255494356,0.71288800239563,118.75373840332031,-0.12501576542854,0.03627013787627,10.01136493682861,1.18778324127197,1.86428070068359,0.92713278532028
580,2470175989,-0.12120444327593,0.71443021297455,118.75534057617188,-0.07436961680651,0.00271182134748,9.99925613403320,0.92405909299850,1.96486783027649,0.84701150655746
581,2470184322,-0.12060230225325,0.71295535564423,118.75563812255859,-0.06650831550360,-0.02431615069509,9.97998428344727,1.38634479045868,1.60908615589142,0.88251280784607
582,2470192655,-0.11793816834688,0.71326667070389,118.75729370117188,-0.07338342070580,0.00380306690931,9.99666786193848,1.62793815135956,1.81704807281494,0.83825141191483
583,2470200988,-0.11741739511490,0.71345365047455,118.75718688964844,-0.11115602403879,-0.00145810423419,9.96805095672607,1.37748241424561,1.80782711505890,0.83440929651260
584,2470209321,-0.11854916810989,0.71589320898056,118.75856018066406,-0.15406416356564,-0.00179989030585,9.98645591735840,1.17228674888611,2.07377982139587,0.80041933059692
585,2470217654,-0.11872700601816,0.71801769733429,118.75955963134766,0.01210156455636,-0.06075507029891,9.99682712554932,1.29170024394989,2.04101896286011,0.96798753738403
586,2470225987,-0.11719157546759,0.71901822090149,118.76300048828125,0.60029429197311,-0.02230073325336,10.08008575439453,1.49064600467682,1.90008974075317,0.99296140670776
587,2470234320,-0.11830848455429,0.71790212392807,118.76363372802734,1.20460748672485,-0.14859050512314,10.01805019378662,1.17892074584961,1.65206694602966,0.92198431491852
588,2470242653,-0.11861529201269,0.71938234567642,118.76638031005859,0.39755427837372,-0.08332226425409,9.99851799011230,1.27184927463531,1.96760892868042,0.85034143924713
589,2470250986,-0.11384802311659,0.71911400556564,118.76605987548828,-0.81054109334946,0.03660251945257,9.98570728302002,1.88669312000275,1.75334572792053,0.81127971410751
590,2470259319,-0.11456850171089,0.71974253654480,118.76827239990234,0.57270824909210,-0.02377350442111,9.99542617797852,1.22318220138550,1.86574089527130,0.79296547174454
591,2470267652,-0.11927081644535,0.72335201501846,118.76776885986328,-0.09389518946409,-0.03012104518712,9.98283863067627,0.75034338235855,2.21911478042603,0.78873908519745
592,2470275985,-0.11597584187984,0.72479057312012,118.76953125000000,-0.27764460444450,0.08675290644169,10.05685329437256,1.70321869850159,1.96617436408997,0.89890605211258
593,2470284318,-0.11473602801561,0.72431111335754,118.76995849609375,-0.74655652046204,0.04915758967400,9.90998458862305,1.46203482151031,1.72788488864899,0.89867544174194
594,2470292651,-0.11522310227156,0.72260475158691,118.77108764648438,0.44430986046791,-0.05199275538325,10.00480937957764,1.24930858612061,1.58354878425598,0.91668212413788
595,2470300984,-0.11217035353184,0.72405028343201,118.77139282226562,-0.29014024138451,-0.00477564614266,10.00059509277344,1.67965352535248,1.95961713790894,0.88266658782959
596,2470309317,-0.11602441221476,0.72502136230469,118.77305603027344,0.25543817877769,0.00612355349585,10.05788993835449,0.84701162576675,1.90705668926239,0.77752012014389
597,2470317650,-0.12185140699148,0.72793751955032,118.77169036865234,-0.67434966564178,-0.02800213359296,9.99382972717285,0.61720061302185,2.13609910011292,0.68533444404602
598,2470325983,-0.11700498312712,0.72873824834824,118.77433013916016,-0.89987140893936,-0.04126789420843,9.97591972351074,1.89050996303558,1.88771808147430,0.82956832647324
599,2470334316,-0.11219032853842,0.72911810874939,118.77413940429688,-0.46384000778198,0.04381714388728,10.03169059753418,1.89204657077789,1.82975280284882,0.82482957839966
600,2470342649,-0.11477092653513,0.72815853357315,118.77749633789062,0.13353408873081,-0.04918947443366,10.07299327850342,0.99757200479507,1.67066264152527,0.97267484664917
601,2470350982,-0.11565486341715,0.72920250892639,118.77844238281250,0.46981477737427,-0.10032272338867,10.00517272949219,1.20548284053802,1.91097569465637,0.95876646041870
602,2470359315,-0.11741111427546,0.73103386163712,118.77984619140625,-0.49222555756569,-0.01906859129667,9.97875118255615,1.09869706630707,2.00959038734436,0.85556674003601
603,2470367648,-0.11828804761171,0.72932022809982,118.77913665771484,-0.46776032447815,-0.00693311123177,9.97416591644287,1.20865905284882,1.57975804805756,0.76240777969360
604,2470375981,-0.11150756478310,0.72852724790573,118.78020477294922,0.28767827153206,-0.04055923596025,10.01452541351318,2.12457251548767,1.69194817543030,0.76115250587463
605,2470384314,-0.11102683097124,0.72881704568863,118.77960205078125,0.04150328785181,0.07964696735144,9.96950054168701,1.37335848808289,1.81996822357178,0.77462571859360
606,2470392647,-0.11581610143185,0.73074418306351,118.78345489501953,0.65175205469131,0.00236652465537,10.07719898223877,0.73208045959473,2.02019453048706,0.99365293979645
607,2470400980,-0.11697360873222,0.73287010192871,118.78469848632812,0.18854832649231,-0.07039876282215,9.97509860992432,1.17264533042908,2.04012274742126,0.99803310632706
608,2470409313,-0.11738127470016,0.73467248678207,118.78672027587891,-1.17459762096405,0.03140045702457,9.95053386688232,1.26103997230530,2.01002597808838,0.76619869470596
609,2470417646,-0.11139413714409,0.73400044441223,118.78665161132812,-0.67819029092789,0.01665605977178,9.99730110168457,2.03161883354187,1.70485806465149,0.83940416574478
610,2470425979,-0.10841899365187,0.73352414369583,118.78757476806641,-0.12026272714138,-0.02051955647767,9.99906253814697,1.66951036453247,1.72993433475494,0.63902395963669
611,2470434312,-0.11296501010656,0.73529088497162,118.78648376464844,0.11898931860924,0.01635191217065,10.06656455993652,0.76986134052277,1.99808943271637,0.71894031763077
612,2470442645,-0.11701615154743,0.73803395032883,118.79035186767578,0.19405390322208,-0.06608819961548,10.05762195587158,0.81991165876389,2.11658120155334,1.05397450923920
613,2470450978,-0.12150883674622,0.73834252357483,118.79168701171875,-0.28265428543091,-0.07341260462999,9.94817161560059,0.77283263206482,1.82222211360931,1.00822746753693
614,2470459311,-0.11631795018911,0.73620390892029,118.79643249511719,0.72997438907623,-0.13056096434593,10.02136611938477,1.92680537700653,1.53101408481598,1.17825484275818
615,2470467644,-0.10739356279373,0.73527234792709,118.79676818847656,0.57729697227478,-0.09785296767950,10.01655578613281,2.38460850715637,1.67427444458008,0.88704663515091
616,2470475977,-0.11252814531326,0.73522305488586,118.79865264892578,0.39924746751785,0.03394652158022,10.08262157440186,0.69534963369370,1.78825771808624,0.76950281858444
617,2470484310,-0.11790850013494,0.73549962043762,118.79558563232422,-0.86291760206223,0.07297846674919,9.92919731140137,0.67239934206009,1.81963515281677,0.47890934348106
618,2470492643,-0.11554547399282,0.73516935110092,118.79950714111328,-0.29868286848068,-0.05730729922652,9.91842746734619,1.59005498886108,1.75467765331268,1.00433421134949
619,2470500976,-0.11410924792290,0.73337203264236,118.79932403564453,0.10649746656418,-0.03763838857412,10.05622768402100,1.48703420162201,1.56992197036743,0.82562357187271
620,2470509309,-0.11131412535906,0.73207610845566,118.80397033691406,-0.42585381865501,0.06086539477110,9.99452495574951,1.64125752449036,1.63754355907440,1.08978319168091
621,2470517642,-0.11013510823250,0.73214775323868,118.80576324462891,0.29361361265182,0.02726451121271,10.03635692596436,1.45337736606598,1.79317593574524,1.06178700923920
622,2470525975,-0.11613849550486,0.73302495479584,118.80770111083984,0.71039819717407,-0.00703300256282,10.02633285522461,0.58925545215607,1.90119087696075,0.79155665636063
623,2470534308,-0.11981775611639,0.73471617698669,118.80548858642578,-0.39063453674316,0.01313623413444,9.96864509582520,0.87549453973770,1.98797178268433,0.58064901828766
624,2470542641,-0.11576797068119,0.73574221134186,118.80739593505859,0.16874395310879,-0.04351782426238,10.00305843353271,1.79599332809448,1.92119586467743,0.80549091100693
625,2470550974,-0.11222638934851,0.73563736677170,118.80585479736328,-0.52323937416077,0.01556150428951,9.98360729217529,1.74097383022308,1.77299189567566,0.66317820549011
626,2470559307,-0.11153246462345,0.73655098676682,118.80626678466797,-0.88351082801819,0.01935383118689,10.02824783325195,1.39254355430603,1.90592968463898,0.89188772439957
627,2470567640,-0.11176142096519,0.73900711536407,118.80780792236328,0.08446396142244,-0.09123356640339,10.03346729278564,1.28368318080902,2.07882571220398,1.03407227993011
628,2470575973,-0.11898618936539,0.74138730764389,118.81052398681641,-0.08110313862562,-0.07536441832781,10.01838970184326,0.43997573852539,2.08069562911987,0.92782455682755
629,2470584306,-0.12680211663246,0.73983275890350,118.80906677246094,-0.23412257432938,-0.09787596762180,9.95776557922363,0.37952613830566,1.59927594661713,0.67329579591751
630,2470592639,-0.12124374508858,0.73621344566345,118.81039428710938,0.72555887699127,-0.16938368976116,9.98343658447266,1.97698330879211,1.35827159881592,0.80579817295074
631,2470600972,-0.10856065899134,0.73682731389999,118.81036376953125,0.02213877625763,-0.05761682614684,9.99925994873047,2.83636689186096,1.85951685905457,0.84352803230286
632,2470609305,-0.10994117707014,0.73700565099716,118.81022644042969,-0.15825587511063,0.22441367805004,10.17908287048340,1.14375245571136,1.81986570358276,0.83031100034714
633,2470617638,-0.11758898198605,0.73623800277710,118.81066131591797,-0.25208404660225,0.04671784862876,9.95357704162598,0.39591920375824,1.69348514080048,0.89767640829086
634,2470625971,-0.11952185630798,0.73964971303940,118.81036376953125,-0.48148545622826,-0.11543791741133,9.85701084136963,1.07761645317078,2.20600032806396,0.81775999069214
635,2470634304,-0.11441785097122,0.73801529407501,118.81200408935547,0.77323788404465,0.04186659306288,10.05811405181885,1.92327046394348,1.58941459655762,1.04511213302612
636,2470642637,-0.11704821884632,0.73763179779053,118.81186676025391,0.83856964111328,-0.04314738512039,9.99492073059082,0.99501055479050,1.75288450717926,0.82367688417435
637,2470650970,-0.11620063334703,0.73917883634567,118.81033325195312,0.20752796530724,-0.02726551704109,10.01689910888672,1.41769659519196,1.97055423259735,0.66602128744125
638,2470659303,-0.10996657609940,0.74008721113205,118.80939483642578,-0.71058326959610,0.09359244257212,10.05265617370605,2.05874419212341,1.91369080543518,0.74491316080093
639,2470667636,-0.11703773587942,0.74229145050049,118.80854797363281,-0.12545482814312,-0.02052356675267,9.99076366424561,0.46587169170380,2.04967665672302,0.74417036771774
640,2470675969,-0.12285059690475,0.74348366260529,118.80764770507812,-1.12794888019562,-0.13368122279644,9.97118568420410,0.61394757032394,1.94445323944092,0.73843270540237
641,2470684302,-0.11192941665649,0.74597263336182,118.80928039550781,-0.32901975512505,-0.04691279679537,10.04594516754150,2.62097668647766,2.08456325531006,1.04467654228210
642,2470692635,-0.11243047565222,0.74536156654358,118.80962371826172,-1.52541697025299,-0.00210153078660,9.90756511688232,1.24935996532440,1.72204494476318,0.88330686092377
643,2470700968,-0.11748106777668,0.74232119321823,118.80967712402344,0.17553450167179,-0.05809659510851,10.05049514770508,0.70864343643188,1.42184627056122,0.85441410541534
644,2470709301,-0.11438933014870,0.74414163827896,118.81010437011719,-0.64412486553192,0.04279973357916,9.98523139953613,1.68037080764771,2.01089692115784,0.89875239133835
645,2470717634,-0.11983324587345,0.74238139390945,118.80939483642578,-0.03620310872793,-0.00672416342422,10.07901477813721,0.66169250011444,1.57309818267822,0.76015365123749
646,2470725967,-0.12196054309607,0.74338239431381,118.80915069580078,0.56156915426254,-0.09632349014282,10.02460670471191,1.05338537693024,1.91215372085571,0.81532669067383
647,2470734300,-0.11689834296703,0.74356043338776,118.80963897705078,0.16380025446415,-0.06703082472086,9.95303249359131,1.92081165313721,1.80698180198669,0.90582185983658
648,2470742633,-0.11399621516466,0.74213105440140,118.81110382080078,-0.19097417593002,0.10920826345682,10.02077960968018,1.65585768222809,1.62217509746552,1.02344238758087
649,2470750966,-0.11549867689610,0.74155616760254,118.81183624267578,0.63915330171585,0.01961424760520,10.06041622161865,1.13240540027618,1.71556472778320,0.93814700841904
650,2470759299,-0.12073606997728,0.74393969774246,118.81186676025391,0.81187236309052,-0.21711191534996,9.89152240753174,0.68133872747421,2.08307743072510,0.85008519887924
651,2470767632,-0.11981821060181,0.74649280309677,118.81098175048828,0.82841575145721,-0.00957375671715,10.02285289764404,1.42525279521942,2.09235024452209,0.74181383848190
652,2470775965,-0.11967957764864,0.74772882461548,118.81078338623047,0.23823186755180,0.01849820464849,10.02172088623047,1.32848227024078,1.95293164253235,0.82306224107742
653,2470784298,-0.11885464191437,0.74816352128983,118.81027984619141,0.16955779492855,-0.05117645114660,9.88165092468262,1.41272747516632,1.83671987056732,0.78656184673309
654,2470792631,-0.11421029269695,0.75093418359756,118.81026458740234,-0.35914260149002,0.01655212230980,10.17558288574219,1.86866080760956,2.13873767852783,0.84647369384766
655,2470800964,-0.11664365231991,0.75138914585114,118.80741119384766,-0.91600805521011,0.11954437196255,9.92547798156738,1.02638816833496,1.84138190746307,0.50534331798553
656,2470809297,-0.12189310789108,0.75260764360428,118.80603027343750,-1.36493742465973,-0.00002481328556,9.96314907073975,0.68072384595871,1.94908952713013,0.67980176210403
657,2470817630,-0.11823891103268,0.75328338146210,118.80656433105469,-0.60711777210236,0.01759862899780,10.00562477111816,1.75127100944519,1.86556160449982,0.91161072254181
658,2470825963,-0.11822056025267,0.75254082679749,118.80699920654297,0.00646336702630,0.00417990330607,10.08644676208496,1.31229400634766,1.70759856700897,0.89508932828903
659,2470834296,-0.11789061129093,0.75200629234314,118.80775451660156,-0.53285104036331,-0.10245928168297,10.00019741058350,1.35225236415863,1.72176337242126,0.93563687801361
660,2470842629,-0.11453117430210,0.75114059448242,118.80891418457031,-0.02976613678038,-0.10826911032200,9.95630836486816,1.71095395088196,1.69074440002441,0.99034881591797
661,2470850962,-0.11941133439541,0.75320833921432,118.80912017822266,0.06395532190800,-0.09084109216928,10.09823417663574,0.72700893878937,2.03243851661682,0.87280511856079
662,2470859295,-0.11989455670118,0.75300687551498,118.80892944335938,-0.39586126804352,-0.09707314521074,10.00223445892334,1.25348389148712,1.77168560028076,0.82490646839142
663,2470867628,-0.11405517905951,0.75461459159851,118.80849456787109,-0.73856747150421,0.00981225073338,9.87898731231689,2.01568651199341,1.97921192646027,0.79422056674957
664,2470875961,-0.11458134651184,0.75267058610916,118.80854797363281,-1.45491397380829,0.10858608037233,10.01652526855469,1.24713146686554,1.55942022800446,0.85441398620605
665,2470884294,-0.11437878757715,0.75245678424835,118.80913543701172,0.05847842991352,0.05582188814878,9.99211692810059,1.33737027645111,1.75941610336304,0.91719454526901
666,2470892627,-0.11566875874996,0.75330919027328,118.80778503417969,-1.31518495082855,0.16687788069248,9.88886642456055,1.15719985961914,1.89220046997070,0.68318289518356
667,2470900960,-0.12039425224066,0.75307983160019,118.80722045898438,-0.95603579282761,0.16572995483875,10.00951385498047,0.74701344966888,1.75705957412720,0.77962040901184
668,2470909293,-0.11740158498287,0.75133961439133,118.80664825439453,-0.51854687929153,0.02262264303863,9.99831390380859,1.67007374763489,1.57355940341949,0.78205388784409
669,2470917626,-0.11950986087322,0.74929404258728,118.80514526367188,-0.16672559082508,0.02677611261606,10.02933597564697,1.06327247619629,1.54023516178131,0.66625183820724
670,2470925959,-0.12406874448061,0.74966919422150,118.80369567871094,-0.20704703032970,-0.06381518393755,10.03725337982178,0.76281756162643,1.82542419433594,0.67081123590469
671,2470934292,-0.12040553987026,0.76124405860901,118.79767608642578,-6.07485198974609,0.42518436908722,9.09348964691162,1.76379621028900,3.17619061470032,0.12584273517132
672,2470942625,-0.10882572084665,0.74918460845947,118.80025482177734,-1.04546368122101,-0.02880914509296,10.70797443389893,2.69146680831909,0.31249365210533,1.15794277191162
673,2470950958,-0.11816564947367,0.74567723274231,118.79488372802734,-4.69786548614502,-0.46388331055641,10.54191684722900,0.20242929458618,1.36485445499420,0.20330016314983
674,2470959291,-0.12058454751968,0.75304031372070,118.79775238037109,-0.34794592857361,0.26540443301201,9.54568767547607,1.01388823986053,2.62502360343933,1.19387936592102
675,2470967624,-0.12399943172932,0.75066709518433,118.80331420898438,0.27056488394737,-0.18763254582882,10.23887443542480,0.89539682865143,1.49861204624176,1.51249504089355
676,2470975957,-0.13247056305408,0.73705631494522,118.79726409912109,-0.01532854232937,-0.09678512066603,9.66433525085449,0.30135145783424,0.11037173867226,0.11539212614298
677,2470984290,-0.12583465874195,0.73008453845978,118.80387115478516,1.66183114051819,0.30903491377831,10.16028881072998,2.09908652305603,0.94775235652924,1.63762056827545
678,2470992623,-0.11963480710983,0.73163259029388,118.80189514160156,0.77729749679565,-0.74211263656616,10.09510612487793,2.05608010292053,1.93556547164917,0.60851734876633
679,2471000956,-0.11436533182859,0.72836989164352,118.80070495605469,1.77574133872986,0.53602564334869,10.12251186370850,1.94714307785034,1.39346551895142,0.70364862680435
680,2471009289,-0.12117881327868,0.73120474815369,118.80171966552734,0.62475162744522,-0.07408280670643,9.99210548400879,0.48892447352409,2.09982919692993,0.96914011240005
681,2471017622,-0.12755079567432,0.72964811325073,118.80141448974609,1.08746170997620,-0.13225139677525,9.95309257507324,0.54945093393326,1.59840500354767,0.81271404027939
682,2471025955,-0.11958200484514,0.72516471147537,118.80324554443359,1.38068616390228,0.07216380536556,9.96707439422607,2.26291513442993,1.22681939601898,1.06206870079041
683,2471034288,-0.11253506690264,0.72550630569458,118.80419921875000,0.79910141229630,-0.00302351755090,9.92535591125488,2.15694928169250,1.82583403587341,0.96353071928024
684,2471042621,-0.11962229013443,0.72890305519104,118.80317687988281,1.16148650646210,-0.06719011813402,10.02554607391357,0.46087688207626,2.18220472335815,0.71632766723633
685,2471050954,-0.11732172220945,0.73301285505295,118.80077362060547,0.64643371105194,-0.00177717534825,10.14395809173584,1.59358966350555,2.27882170677185,0.55954295396805
686,2471059287,-0.11649353057146,0.73581969738007,118.79849243164062,-0.15922521054745,0.04398303478956,9.95649051666260,1.41085791587830,2.11893773078918,0.57012164592743
687,2471067620,-0.12209215760231,0.73783868551254,118.79622650146484,-0.58090674877167,-0.10723389685154,10.02407264709473,0.64545309543610,2.02810955047607,0.57455289363861
688,2471075953,-0.11426698416471,0.73809099197388,118.79645538330078,-1.21825754642487,-0.06104714423418,10.05704021453857,2.24846887588501,1.80949199199677,0.87480294704437
689,2471084286,-0.10669831186533,0.73914092779160,118.79595184326172,-3.36620259284973,0.13867716491222,10.08623981475830,2.22293114662170,1.91210246086121,0.78643387556076
690,2471092619,-0.11109318584204,0.73741185665131,118.79655456542969,-3.26011919975281,0.08165985345840,10.07940101623535,0.78038889169693,1.55696117877960,0.92162573337555
691,2471100952,-0.11137434095144,0.73849749565125,118.79562377929688,-3.26444768905640,0.00439571682364,9.89235115051270,1.28030204772949,1.91599619388580,0.73348927497864
