sep=,
DeviceTag:,left leg
FirmwareVersion:,2.2.1
AppVersion:,2023.6.0
StartTime: ,2025-04-02_17:18:43_000 PDT
© Movella Technologies B. V. 2005-2025

PacketCounter,SampleTimeFine,Euler_X,Euler_Y,Euler_Z,Acc_X,Acc_Y,Acc_Z,Gyr_X,Gyr_Y,Gyr_Z
0,2578053505,-0.11856409162283,0.78068339824677,115.77147674560547,0.00000000000000,0.00000000000000,0.00000000000000,0.00000000000000,0.00000000000000,0.00000000000000
1,2578061838,-0.10790988802910,0.79543328285217,115.77856445312500,-0.12363234162331,-0.00882058404386,9.99412250518799,1.26712346076965,1.76880371570587,0.85568189620972
2,2578070171,-0.08450891077518,0.79887223243713,115.79088592529297,-0.10599473118782,0.00768530135974,9.99594020843506,1.38684439659119,1.81626701354980,0.79671806097031
3,2578078504,-0.07351677864790,0.81384754180908,115.79869079589844,-0.12694121897221,-0.00864966027439,9.98125457763672,1.30475056171417,1.79508388042450,0.93764740228653
4,2578086837,-0.04493656754494,0.80616182088852,115.80683898925781,-0.13146956264973,-0.03229202702641,10.02154922485352,1.40159821510315,1.85397124290466,0.85081529617310
5,2578095170,-0.03420954942703,0.82130634784698,115.81335449218750,-0.12325894087553,-0.01560760568827,10.01236438751221,1.27542233467102,1.81631803512573,0.78511464595795
6,2578103503,-0.02501195855439,0.81712996959686,115.80695343017578,-0.16254490613937,-0.01535544916987,10.01954746246338,1.28835773468018,1.60159432888031,0.82635372877121
7,2578111836,-0.01346672791988,0.83201730251312,115.81355285644531,-0.11532086879015,-0.00816925056279,10.00684356689453,1.37542033195496,1.78670823574066,0.79349064826965
8,2578120169,-0.00539474328980,0.83772796392441,115.81217193603516,-0.14908136427402,-0.02816119417548,10.01408004760742,1.37047684192657,1.92615222930908,0.87363749742508
9,2578128502,0.00542630394921,0.85285824537277,115.81915283203125,-0.14280939102173,-0.03894950449467,10.00678443908691,1.28682065010071,1.81473004817963,0.83921194076538
10,2578136835,0.00513792084530,0.86102235317230,115.80901336669922,-0.16377104818821,-0.01123549044132,10.01761627197266,1.28991997241974,1.62290501594543,0.84602534770966
11,2578145168,0.01665380038321,0.87513506412506,115.81606292724609,-0.13305564224720,-0.02231050655246,9.99576854705811,1.37032306194305,1.69334423542023,0.84610217809677
12,2578153501,0.01807697862387,0.88672012090683,115.81623840332031,-0.11534242331982,-0.01677012257278,9.98665714263916,1.38379609584808,1.82597470283508,0.73936766386032
13,2578161834,0.02907441556454,0.90003913640976,115.82261657714844,-0.13826340436935,-0.01452231220901,9.99935722351074,1.30810606479645,1.59821295738220,0.76580154895782
14,2578170167,0.03122556023300,0.90729618072510,115.81498718261719,-0.12407145649195,0.00381582230330,10.01765441894531,1.35539007186890,1.67213582992554,0.89200299978256
15,2578178500,0.04231780767441,0.92099702358246,115.82196807861328,-0.12647747993469,-0.01439259666950,9.99388790130615,1.31783950328827,1.64424169063568,0.83951932191849
16,2578186833,0.04605922102928,0.92675817012787,115.82447814941406,-0.11247853189707,-0.01248426549137,10.01227188110352,1.31622576713562,1.71475780010223,0.85739809274673
17,2578195166,0.05749201774597,0.94169664382935,115.83222198486328,-0.12759482860565,-0.00335217523389,9.99018001556396,1.35713183879852,1.79352152347565,0.92950206995010
18,2578203499,0.06221342086792,0.94679760932922,115.83350372314453,-0.09926888346672,0.00603089760989,10.02325153350830,1.34258306026459,1.82295227050781,0.86380171775818
19,2578211832,0.07275015860796,0.96274375915527,115.84110260009766,-0.10917571932077,-0.01234505511820,9.99579906463623,1.24911677837372,1.91498446464539,0.90921580791473
20,2578220165,0.07736437022686,0.96542835235596,115.83548736572266,-0.13968749344349,-0.03221580386162,10.01218414306641,1.22977793216705,1.78675937652588,0.74879372119904
21,2578228498,0.08873171359301,0.97983336448669,115.84253692626953,-0.12769523262978,-0.04130481928587,10.03061199188232,1.34901201725006,1.73104834556580,0.84277242422104
22,2578236831,0.09318740665913,0.98370605707169,115.84946441650391,-0.10991483181715,-0.02848891727626,10.01968479156494,1.44265782833099,1.81449949741364,0.83959615230560
23,2578245164,0.10402341932058,0.99903601408005,115.85653686523438,-0.14001311361790,-0.01355412229896,10.01206779479980,1.28528404235840,1.84264957904816,0.84715235233307
24,2578253497,0.10697622597218,1.00345981121063,115.85368347167969,-0.14081250131130,-0.03009667247534,9.99567413330078,1.28367006778717,1.86232137680054,0.84382247924805
25,2578261830,0.11842501163483,1.01903629302979,115.86066436767578,-0.12699392437935,-0.00255434401333,10.00477313995361,1.36076903343201,1.87197792530060,0.83429408073425
26,2578270163,0.12156948447227,1.02317500114441,115.85507965087891,-0.12641067802906,-0.01130309235305,10.03962230682373,1.28838324546814,1.75417792797089,0.85235208272934
27,2578278496,0.13266418874264,1.03882563114166,115.86161041259766,-0.14514009654522,0.00505328923464,10.00823879241943,1.31676375865936,1.88012337684631,0.78324490785599
28,2578286829,0.13699765503407,1.04373872280121,115.85919952392578,-0.12439066171646,-0.01850565895438,10.03603267669678,1.35254693031311,1.79160070419312,0.80332654714584
29,2578295162,0.14818295836449,1.05800938606262,115.86612701416016,-0.10663977265358,-0.01489703450352,10.01052761077881,1.32773947715759,1.71469366550446,0.82646882534027
30,2578303495,0.15236261487007,1.06254470348358,115.86897277832031,-0.10892293602228,0.00888518709689,9.99937438964844,1.33261907100677,1.79019188880920,0.86556911468506
31,2578311828,0.16381353139877,1.07754337787628,115.87578582763672,-0.12080798298120,-0.02207974530756,9.99765110015869,1.35912966728210,1.80307567119598,0.81316226720810
32,2578320161,0.16812291741371,1.08201086521149,115.87518310546875,-0.12345941364765,-0.01642975583673,10.00125503540039,1.31307530403137,1.81478130817413,0.85224974155426
33,2578328494,0.17945347726345,1.09694516658783,115.88202667236328,-0.11894451081753,-0.03828081116080,10.00697326660156,1.34435033798218,1.79656946659088,0.81638962030411
34,2578336827,0.18432077765465,1.10182833671570,115.88179779052734,-0.14094176888466,-0.01287472900003,9.94797134399414,1.42308855056763,1.86040031909943,0.84115874767303
35,2578345160,0.19518165290356,1.11718380451202,115.88857269287109,-0.13716544210911,-0.03968306630850,10.00865268707275,1.28876757621765,1.84751641750336,0.80773216485977
36,2578353493,0.19892613589764,1.12244987487793,115.88507843017578,-0.15075942873955,-0.01939565688372,10.01202583312988,1.31641805171967,1.84104895591736,0.85052073001862
37,2578361826,0.21038323640823,1.13804626464844,115.89201354980469,-0.14954905211926,-0.01396381575614,9.99369049072266,1.35927057266235,1.87690889835358,0.82603353261948
38,2578370159,0.21525970101357,1.14441967010498,115.89194488525391,-0.12671197950840,-0.02855123579502,9.99773883819580,1.44609010219574,1.89480042457581,0.84610229730606
39,2578378492,0.22597977519035,1.15966904163361,115.89857482910156,-0.14599382877350,-0.02272446453571,9.99198913574219,1.27082455158234,1.83438909053802,0.78963559865952
40,2578386825,0.22947786748409,1.16598331928253,115.89321899414062,-0.12860815227032,-0.00802596379071,10.01039600372314,1.29330122470856,1.86424255371094,0.89126020669937
41,2578395158,0.24101021885872,1.18037521839142,115.90074157714844,-0.14218373596668,-0.00053472502623,10.00469970703125,1.36666023731232,1.73294377326965,0.89884191751480
42,2578403491,0.24523431062698,1.18466055393219,115.89914703369141,-0.12479922920465,-0.00942639447749,10.01414299011230,1.34560537338257,1.60302841663361,0.79602640867233
43,2578411824,0.25591176748276,1.19864618778229,115.90561676025391,-0.12527360022068,-0.02045452035964,10.00144863128662,1.26730263233185,1.68345713615417,0.77056580781937
44,2578420157,0.26041984558105,1.20456588268280,115.90105438232422,-0.09655491262674,-0.00410722848028,10.01083660125732,1.37096369266510,1.80773770809174,0.76736414432526
45,2578428490,0.27268511056900,1.21877086162567,115.90754699707031,-0.11406692117453,-0.02748110145330,10.02002716064453,1.45753955841064,1.71078753471375,0.77333217859268
46,2578436823,0.27679064869881,1.22413206100464,115.90597534179688,-0.13835346698761,-0.02363894879818,10.00503826141357,1.31434321403503,1.78559410572052,0.89168280363083
47,2578445156,0.28781622648239,1.23879265785217,115.91354370117188,-0.11902902275324,-0.01077316049486,10.01252841949463,1.30603146553040,1.76762568950653,0.90153151750565
48,2578453489,0.29199209809303,1.24393796920776,115.91278839111328,-0.13396596908569,-0.00541378278285,9.98298454284668,1.32214283943176,1.75136041641235,0.93618744611740
49,2578461822,0.30360323190689,1.25837159156799,115.92005920410156,-0.14977432787418,-0.02141867205501,10.00676059722900,1.37670123577118,1.73932194709778,0.86446768045425
50,2578470155,0.30824211239815,1.26532196998596,115.91872406005859,-0.13364709913731,-0.02356547303498,9.98139762878418,1.37257695198059,1.93926644325256,0.84699869155884
51,2578478488,0.31994399428368,1.28044176101685,115.92631530761719,-0.11880899965763,-0.03216343745589,10.02202320098877,1.38653695583344,1.82313156127930,0.90181314945221
52,2578486821,0.32410943508148,1.28562164306641,115.91883087158203,-0.13952091336250,-0.02649551257491,10.00155448913574,1.32931482791901,1.72787213325500,0.83964741230011
53,2578495154,0.33645218610764,1.30025148391724,115.92607116699219,-0.14724533259869,-0.04858366400003,9.97790336608887,1.46371269226074,1.76362967491150,0.86177808046341
54,2578503487,0.34039273858070,1.30420470237732,115.92417144775391,-0.13922269642353,-0.01489212177694,10.01065254211426,1.32900738716125,1.55717885494232,0.80125164985657
55,2578511820,0.35120028257370,1.31894683837891,115.93106842041016,-0.13463020324707,-0.01649729162455,10.03822612762451,1.28046834468842,1.77881872653961,0.82089775800705
56,2578520153,0.35522726178169,1.32491171360016,115.92850494384766,-0.11629796028137,-0.00428476743400,9.99628257751465,1.33108222484589,1.78860378265381,0.84912472963333
57,2578528486,0.36650362610817,1.33983576297760,115.93541717529297,-0.09883061796427,-0.01162980776280,9.99669456481934,1.33628189563751,1.79989957809448,0.82123082876205
58,2578536819,0.37029448151588,1.34611678123474,115.93798065185547,-0.09443672746420,-0.01876702904701,10.01153755187988,1.28669261932373,1.85135841369629,0.89428251981735
59,2578545152,0.38108253479004,1.36158144474030,115.94496154785156,-0.11120413988829,-0.00248328526504,9.98180675506592,1.27913653850555,1.86739313602448,0.82855647802353
60,2578553485,0.38566523790359,1.36780333518982,115.94565582275391,-0.12159874290228,0.01636106520891,10.01439285278320,1.37063050270081,1.87056899070740,0.86536413431168
61,2578561818,0.39723318815231,1.38372659683228,115.95277404785156,-0.13537646830082,-0.00914707873017,10.00535869598389,1.37262833118439,1.92123401165009,0.84377139806747
62,2578570151,0.40120452642441,1.39035081863403,115.94905853271484,-0.15103493630886,-0.01075543742627,10.00148677825928,1.27654957771301,1.91460025310516,0.77082204818726
63,2578578484,0.41309744119644,1.40591061115265,115.95555114746094,-0.13208059966564,-0.03823696449399,10.00588607788086,1.41248416900635,1.87961089611053,0.76733845472336
64,2578586817,0.41804748773575,1.41118168830872,115.95605468750000,-0.13494633138180,-0.04154279455543,10.01141452789307,1.39769208431244,1.73784887790680,0.89275848865509
65,2578595150,0.42899388074875,1.42563867568970,115.96381378173828,-0.15408669412136,-0.03380683809519,10.01833438873291,1.29583692550659,1.74831235408783,0.92125433683395
66,2578603483,0.43363904953003,1.43179929256439,115.96422576904297,-0.12546889483929,-0.03770663589239,10.01346683502197,1.38437259197235,1.82731962203979,0.77890330553055
67,2578611816,0.44515597820282,1.44740605354309,115.97134399414062,-0.12951830029488,-0.02312883362174,9.99675655364990,1.36600720882416,1.88684701919556,0.84388661384583
68,2578620149,0.44933766126633,1.45322644710541,115.97225952148438,-0.13046409189701,-0.01556867826730,10.00033187866211,1.33560311794281,1.79058873653412,0.89183646440506
69,2578628482,0.46058592200279,1.46855103969574,115.97911071777344,-0.12609760463238,-0.03003273345530,10.00984001159668,1.33498835563660,1.85237038135529,0.81435340642929
70,2578636815,0.46528545022011,1.47446322441101,115.97878265380859,-0.11392990499735,-0.01723926886916,10.00627994537354,1.40179038047791,1.80139791965485,0.83666336536407
71,2578645148,0.47697281837463,1.48900330066681,115.98614501953125,-0.13504423201084,-0.01855676807463,10.01325798034668,1.38643455505371,1.76076114177704,0.87286913394928
72,2578653481,0.48073151707649,1.49510192871094,115.98534393310547,-0.11546236276627,-0.02250527776778,9.99727249145508,1.28774285316467,1.82769072055817,0.77468973398209
73,2578661814,0.49120265245438,1.50948023796082,115.99241638183594,-0.12767422199249,-0.01468416582793,10.01895046234131,1.24244403839111,1.74317669868469,0.83884060382843
74,2578670147,0.49548497796059,1.51488971710205,115.99161529541016,-0.14496767520905,-0.02546767517924,10.02065086364746,1.34944748878479,1.75051522254944,0.79886955022812
75,2578678480,0.50698614120483,1.52968096733093,115.99899291992188,-0.12736581265926,-0.02186514437199,10.02282905578613,1.36526441574097,1.79371380805969,0.87575078010559
76,2578686813,0.51071786880493,1.53516185283661,115.99968719482422,-0.12440536171198,-0.02739091217518,10.01204967498779,1.28514301776886,1.75611186027527,0.83914786577225
77,2578695146,0.52194929122925,1.55048727989197,116.00727081298828,-0.13423676788807,-0.00704644480720,10.02073764801025,1.33260619640350,1.85959351062775,0.89624220132828
78,2578703479,0.52597033977509,1.55582678318024,116.00349426269531,-0.12744465470314,-0.02382829971611,9.99372291564941,1.31992721557617,1.74087154865265,0.80031687021255
79,2578711812,0.53752213716507,1.56936240196228,116.01084899902344,-0.14148101210594,-0.02314206026495,10.01912212371826,1.37274348735809,1.64445936679840,0.87216466665268
80,2578720145,0.54221183061600,1.57384264469147,116.00981903076172,-0.13755005598068,-0.03839502856135,9.97554397583008,1.40011239051819,1.63811993598938,0.91674631834030
81,2578728478,0.55287307500839,1.58800661563873,116.01738739013672,-0.14589491486549,-0.00655610859394,10.00602912902832,1.26463878154755,1.72062313556671,0.89981520175934
82,2578736811,0.55733960866928,1.59400665760040,116.01653289794922,-0.13883200287819,0.01522802282125,10.00037765502930,1.37666285037994,1.81348800659180,0.89703619480133
83,2578745144,0.56820684671402,1.60863375663757,116.02382659912109,-0.12942361831665,-0.00449893018231,10.02113723754883,1.29158508777618,1.77925455570221,0.86515927314758
84,2578753477,0.57291972637177,1.61322951316833,116.02278900146484,-0.10221200436354,-0.00130418851040,10.00161457061768,1.39477205276489,1.64376795291901,0.80853897333145
85,2578761810,0.58449190855026,1.62705636024475,116.03055572509766,-0.14468041062355,-0.01933171413839,9.98451709747314,1.37402462959290,1.68426418304443,0.92270165681839
86,2578770143,0.58874571323395,1.63162744045258,116.03144836425781,-0.11660317331553,-0.00982050132006,10.01072692871094,1.33730638027191,1.64910840988159,0.82094895839691
87,2578778476,0.59976279735565,1.64703238010406,116.03903961181641,-0.09664853662252,-0.01592915877700,9.99304771423340,1.30977118015289,1.87459063529968,0.89894449710846
88,2578786809,0.60330379009247,1.65205943584442,116.03490447998047,-0.11933668702841,-0.01019020471722,9.98332118988037,1.25089681148529,1.71679401397705,0.81440454721451
89,2578795142,0.61489474773407,1.66601085662842,116.04232025146484,-0.13906690478325,-0.03333928808570,10.00714302062988,1.37950575351715,1.70191216468811,0.88333261013031
90,2578803475,0.61945873498917,1.67221033573151,116.04128265380859,-0.14150990545750,-0.01665784604847,10.01234149932861,1.37562525272369,1.86088693141937,0.87194693088531
91,2578811808,0.63092035055161,1.68643569946289,116.04920196533203,-0.14062008261681,-0.00533426599577,10.01955032348633,1.36260056495667,1.73697829246521,0.93855690956116
92,2578820141,0.63481891155243,1.69282984733582,116.04843902587891,-0.14458249509335,-0.01483329851180,9.99587917327881,1.29545271396637,1.88268494606018,0.87240809202194
93,2578828474,0.64590579271317,1.70787513256073,116.05566406250000,-0.15183104574680,-0.01774561032653,10.02696704864502,1.31997847557068,1.83482468128204,0.85515695810318
94,2578836807,0.64992332458496,1.71342527866364,116.05503845214844,-0.13775752484798,-0.01063993759453,10.01992893218994,1.31057786941528,1.77816569805145,0.92444336414337
95,2578845140,0.66096705198288,1.72885620594025,116.06250762939453,-0.15067602694035,-0.01282161101699,9.99221897125244,1.31503474712372,1.88431107997894,0.88248717784882
96,2578853473,0.66575342416763,1.73432219028473,116.06112670898438,-0.14452311396599,-0.02546693012118,9.99637603759766,1.40674662590027,1.76355278491974,0.83073371648788
97,2578861806,0.67717826366425,1.74885845184326,116.06784820556641,-0.12896925210953,-0.00873746257275,10.00935173034668,1.36306154727936,1.77660334110260,0.79562932252884
98,2578870139,0.68187028169632,1.75315952301025,116.06595611572266,-0.12752805650234,-0.01988857984543,9.99137115478516,1.39697468280792,1.62811744213104,0.88935178518295
99,2578878472,0.69213330745697,1.76714503765106,116.07280731201172,-0.14193518459797,-0.00415345886722,10.03104877471924,1.22471904754639,1.71374595165253,0.81407159566879
100,2578886805,0.69652122259140,1.77121293544769,116.07128143310547,-0.10945443063974,0.00463179964572,10.03181934356689,1.36270284652710,1.60347652435303,0.86130416393280
101,2578895138,0.70747065544128,1.78628098964691,116.07814788818359,-0.11790624260902,-0.00546726025641,9.98056888580322,1.30755543708801,1.84271359443665,0.81220173835754
102,2578903471,0.71087151765823,1.79150736331940,116.07643127441406,-0.13641279935837,-0.01356166414917,10.01696109771729,1.24267470836639,1.75488257408142,0.84007012844086
103,2578911804,0.72166126966476,1.80595541000366,116.08301544189453,-0.12124188244343,0.00007429829566,9.97870063781738,1.29121351242065,1.77194142341614,0.77828854322433
104,2578920137,0.72512805461884,1.81153607368469,116.08186340332031,-0.12587231397629,0.00580037897453,9.98768329620361,1.25162672996521,1.80369031429291,0.80855172872543
105,2578928470,0.73647522926331,1.82641029357910,116.08875274658203,-0.12920479476452,-0.03429612517357,9.99585533142090,1.35661971569061,1.82438683509827,0.81469917297363
106,2578936803,0.74034374952316,1.83167302608490,116.08735656738281,-0.15176236629486,-0.00263772066683,10.00011348724365,1.30121588706970,1.77297878265381,0.88004106283188
107,2578945136,0.75140851736069,1.84672367572784,116.09412384033203,-0.12529891729355,-0.00650309165940,10.00653266906738,1.32590818405151,1.84733712673187,0.79930508136749
108,2578953469,0.75505840778351,1.85180091857910,116.09249114990234,-0.12610338628292,-0.04345717653632,9.98543548583984,1.27788126468658,1.75246191024780,0.78485852479935
109,2578961802,0.76671350002289,1.86617505550385,116.09947204589844,-0.13992640376091,-0.04115051776171,9.99789524078369,1.39542508125305,1.76849639415741,0.82579010725021
110,2578970135,0.77080851793289,1.87062084674835,116.09701538085938,-0.12942080199718,0.00495234504342,10.00826168060303,1.34579753875732,1.68352115154266,0.81778568029404
111,2578978468,0.78181660175323,1.88574230670929,116.10380554199219,-0.11752521991730,-0.02093369327486,10.00561904907227,1.31936359405518,1.85900413990021,0.80397957563400
112,2578986801,0.78688603639603,1.89046037197113,116.10208129882812,-0.12817740440369,-0.01035933662206,9.97217273712158,1.46428883075714,1.72683477401733,0.80925607681274
113,2578995134,0.79883927106857,1.90646934509277,116.10925292968750,-0.14340032637119,-0.01244698651135,10.02681732177734,1.43424332141876,1.96855640411377,0.85034120082855
114,2579003467,0.80276632308960,1.91094160079956,116.10570526123047,-0.10598172247410,-0.02012112736702,10.01909160614014,1.33188891410828,1.70280861854553,0.77147507667542
115,2579011800,0.81350362300873,1.92581069469452,116.11237335205078,-0.11792512983084,0.00665698619559,9.98153972625732,1.29154658317566,1.83282637596130,0.78904652595520
116,2579020133,0.81782990694046,1.93054807186127,116.11090850830078,-0.10687045753002,-0.01121835596859,10.00438976287842,1.38035106658936,1.74753117561340,0.83899426460266
117,2579028466,0.82872849702835,1.94465279579163,116.11754608154297,-0.14233234524727,-0.00693915877491,10.00144481658936,1.31226861476898,1.74412453174591,0.78709989786148
118,2579036799,0.83249026536942,1.95025229454041,116.11485290527344,-0.14015074074268,-0.02122380398214,10.01844787597656,1.32043945789337,1.85997772216797,0.74160897731781
119,2579045132,0.84366732835770,1.96497154235840,116.12183380126953,-0.13707005977631,-0.03622360154986,10.00251579284668,1.34502923488617,1.82142829895020,0.82608473300934
120,2579053465,0.84735554456711,1.96939206123352,116.11951446533203,-0.13211530447006,-0.01416892744601,10.00223445892334,1.32002961635590,1.72465753555298,0.80554211139679
121,2579061798,0.85810399055481,1.98370504379272,116.12667083740234,-0.15514300763607,-0.00241590314545,10.01778697967529,1.29346776008606,1.77455437183380,0.85041826963425
122,2579070131,0.86175727844238,1.98880207538605,116.12706756591797,-0.15166957676411,0.00267113186419,10.00321006774902,1.31785237789154,1.81415379047394,0.88148826360703
123,2579078464,0.87299406528473,2.00314211845398,116.13396453857422,-0.13582320511341,-0.02541524730623,9.98436737060547,1.35467290878296,1.77861416339874,0.81856691837311
124,2579086797,0.87608033418655,2.00736737251282,116.13162994384766,-0.12257987260818,-0.01582014933228,10.00484657287598,1.25993859767914,1.71320831775665,0.76863199472427
125,2579095130,0.88711124658585,2.02179741859436,116.13847351074219,-0.12243987619877,-0.00718867778778,9.98639774322510,1.33194029331207,1.79189527034760,0.81309825181961
126,2579103463,0.89099609851837,2.02556538581848,116.13615417480469,-0.11124540120363,-0.02327686920762,10.00378894805908,1.35875809192657,1.67040669918060,0.81837475299835
127,2579111796,0.90234184265137,2.04012107849121,116.14339447021484,-0.11904650181532,-0.00838189665228,10.00691223144531,1.36905527114868,1.81184840202332,0.85938328504562
128,2579120129,0.90574181079865,2.04554390907288,116.14355468750000,-0.12978179752827,-0.00574854016304,10.02857685089111,1.30681264400482,1.88328659534454,0.88858342170715
129,2579128462,0.91683191061020,2.06068468093872,116.15042877197266,-0.10101206600666,-0.01758249662817,10.01167392730713,1.34257018566132,1.88361954689026,0.81209933757782
130,2579136795,0.92079180479050,2.06595516204834,116.15020751953125,-0.11037598550320,-0.00674074329436,9.99652099609375,1.37930095195770,1.87911164760590,0.86693948507309
131,2579145128,0.93216896057129,2.07951831817627,116.15718841552734,-0.11549701541662,-0.01714231446385,10.00589084625244,1.37845563888550,1.69827485084534,0.82997804880142
132,2579153461,0.93532556295395,2.08410668373108,116.15580749511719,-0.15117144584656,-0.02378762327135,10.00675868988037,1.29187965393066,1.81100332736969,0.86465978622437
133,2579161794,0.94584172964096,2.09815597534180,116.16290283203125,-0.11124465614557,-0.02848806791008,9.99192333221436,1.27540957927704,1.76000523567200,0.84537220001221
134,2579170127,0.94918787479401,2.10262989997864,116.16076660156250,-0.13522785902023,-0.02157413028181,10.02949237823486,1.32748329639435,1.80652058124542,0.79811394214630
135,2579178460,0.96006816625595,2.11731457710266,116.16688537597656,-0.12618449330330,-0.01665709167719,10.01146697998047,1.32571589946747,1.83674550056458,0.72880172729492
136,2579186793,0.96343791484833,2.12098836898804,116.16474151611328,-0.15480500459671,-0.01717556826770,9.96840381622314,1.34064900875092,1.72224986553192,0.75690054893494
137,2579195126,0.97501665353775,2.13544702529907,116.17242431640625,-0.14264205098152,-0.02340094372630,10.01679706573486,1.40417242050171,1.81400024890900,0.91258406639099
138,2579203459,0.97815471887589,2.13879203796387,116.17163085937500,-0.13956950604916,-0.03086903877556,10.00441074371338,1.32069540023804,1.69248604774475,0.84711384773254
139,2579211792,0.98866009712219,2.15318822860718,116.17840576171875,-0.12895655632019,-0.03130790218711,9.99575424194336,1.27991759777069,1.80869793891907,0.80374902486801
140,2579220125,0.99281102418900,2.15757131576538,116.17686462402344,-0.12578420341015,0.00003335165093,10.00427246093750,1.45453000068665,1.82760131359100,0.85759031772614
141,2579228458,1.00392198562622,2.17301702499390,116.18468475341797,-0.11170723289251,-0.01328495703638,9.99065113067627,1.35081779956818,1.93945825099945,0.93112862110138
142,2579236791,1.00660884380341,2.17680382728577,116.18343353271484,-0.13424618542194,-0.01358802802861,10.02294158935547,1.28578329086304,1.76958501338959,0.82247310876846
143,2579245124,1.01727616786957,2.19163727760315,116.19027709960938,-0.11342717707157,0.00719963479787,9.99574661254883,1.30486607551575,1.86771333217621,0.81484013795853
144,2579253457,1.02039885520935,2.19504904747009,116.18710327148438,-0.13914585113525,-0.03043783456087,10.00332832336426,1.34774398803711,1.73669636249542,0.74053311347961
145,2579261790,1.03148639202118,2.20962214469910,116.19380187988281,-0.12102459371090,-0.00327194784768,10.00334453582764,1.35740089416504,1.83912789821625,0.79988139867783
146,2579270123,1.03510534763336,2.21358442306519,116.19166564941406,-0.10995075106621,-0.01568133756518,10.02077865600586,1.41375207901001,1.81958413124084,0.84391212463379
147,2579278456,1.04597520828247,2.22679901123047,116.19879913330078,-0.12485268712044,-0.01192005537450,10.00556278228760,1.33188891410828,1.67947411537170,0.85420906543732
148,2579286789,1.04902899265289,2.23026013374329,116.19702148437500,-0.13061298429966,-0.02690917812288,9.98941040039062,1.35834860801697,1.77363216876984,0.80413341522217
149,2579295122,1.06009972095490,2.24410438537598,116.20362091064453,-0.12986159324646,-0.03029321692884,9.99517631530762,1.35850214958191,1.75867331027985,0.79124927520752
150,2579303455,1.06293833255768,2.24769687652588,116.20294952392578,-0.13034661114216,-0.03785450756550,9.98451042175293,1.34597682952881,1.80296051502228,0.78213065862656
151,2579311788,1.07385683059692,2.26147818565369,116.20908355712891,-0.14823088049889,-0.00910228583962,10.01056480407715,1.34646344184875,1.75303816795349,0.73533338308334
152,2579320121,1.07650852203369,2.26429772377014,116.20774841308594,-0.13870871067047,-0.00679787062109,10.02934169769287,1.33557736873627,1.72258281707764,0.77331936359406
153,2579328454,1.08703064918518,2.27757310867310,116.21471405029297,-0.14017373323441,-0.02051105909050,9.99683380126953,1.29795002937317,1.69766020774841,0.83525454998016
154,2579336787,1.08881449699402,2.28131103515625,116.21300506591797,-0.13063587248325,-0.01972796954215,9.97164821624756,1.23880684375763,1.84412252902985,0.83015739917755
155,2579345120,1.09927856922150,2.29541778564453,116.21972656250000,-0.12428615987301,-0.02399532496929,10.01619052886963,1.29469716548920,1.80219197273254,0.80572140216827
156,2579353453,1.10203421115875,2.29764509201050,116.21949768066406,-0.10686106234789,-0.00695434212685,9.98351097106934,1.36562275886536,1.67975580692291,0.88617563247681
157,2579361786,1.11259853839874,2.31099319458008,116.22615814208984,-0.14385938644409,0.00479010399431,9.97990798950195,1.30870795249939,1.71343851089478,0.80082899332047
158,2579370119,1.11513161659241,2.31478118896484,116.22451019287109,-0.10789234191179,-0.00019887945382,10.02203559875488,1.35092020034790,1.88226211071014,0.82201200723648
159,2579378452,1.12548160552979,2.32865762710571,116.23106384277344,-0.11594693362713,-0.00938081741333,10.01114082336426,1.28511738777161,1.78065025806427,0.78451281785965
160,2579386785,1.12726068496704,2.33189153671265,116.22949218750000,-0.11698026210070,-0.00178974843584,10.02016639709473,1.27054286003113,1.83354377746582,0.80141824483871
161,2579395118,1.13805973529816,2.34518766403198,116.23650360107422,-0.12441968172789,-0.01697371900082,9.99664211273193,1.34062337875366,1.71543645858765,0.84255456924438
162,2579403451,1.14002180099487,2.34693551063538,116.23393249511719,-0.13674853742123,-0.02918138541281,10.00399398803711,1.30466115474701,1.67155945301056,0.74242866039276
163,2579411784,1.15018928050995,2.36049652099609,116.24042510986328,-0.14113216102123,-0.02535841614008,10.00749015808105,1.27013325691223,1.75129663944244,0.78302723169327
164,2579420117,1.15257000923157,2.36369419097900,116.23887634277344,-0.14943917095661,-0.01387947984040,10.01972103118896,1.36426556110382,1.86182212829590,0.88005393743515
165,2579428450,1.16380882263184,2.37625837326050,116.24604797363281,-0.13621360063553,-0.02787625603378,9.98423957824707,1.39669287204742,1.63657021522522,0.86642706394196
166,2579436783,1.16567504405975,2.37855792045593,116.24493408203125,-0.12975348532200,-0.01848415471613,9.99351596832275,1.31628990173340,1.76850914955139,0.85756468772888
167,2579445116,1.17640459537506,2.39264106750488,116.25131988525391,-0.11838524788618,-0.01073814556003,10.01225471496582,1.34331285953522,1.82094168663025,0.77198743820190
168,2579453449,1.17825484275818,2.39510536193848,116.25131988525391,-0.13317805528641,-0.00159239140339,10.00043010711670,1.32651007175446,1.80444610118866,0.85554111003876
169,2579461782,1.18888306617737,2.40904259681702,116.25876617431641,-0.14008592069149,-0.02141270786524,10.00461578369141,1.32894325256348,1.81166911125183,0.89647257328033
170,2579470115,1.19069850444794,2.41140747070312,116.25833129882812,-0.13435170054436,-0.02785378508270,9.97773647308350,1.33521866798401,1.80731487274170,0.83602303266525
171,2579478448,1.20197594165802,2.42442250251770,116.26527404785156,-0.11424224078655,-0.02176234126091,10.00428199768066,1.41113936901093,1.70329535007477,0.83953213691711
172,2579486781,1.20455205440521,2.42684507369995,116.26386260986328,-0.13023757934570,-0.00591501500458,10.02515888214111,1.44497585296631,1.83149480819702,0.78233551979065
173,2579495114,1.21519994735718,2.44085860252380,116.27054595947266,-0.12081217765808,-0.00494451634586,10.00004577636719,1.33939397335052,1.82649970054626,0.80625921487808
174,2579503447,1.21689760684967,2.44176316261292,116.26905822753906,-0.10830616950989,0.00571420043707,9.99307250976562,1.34915292263031,1.66897225379944,0.80756556987762
175,2579511780,1.22815036773682,2.45552635192871,116.27540588378906,-0.12182317674160,-0.00691819610074,9.98937988281250,1.41710746288300,1.80042469501495,0.76914417743683
176,2579520113,1.22951948642731,2.45784378051758,116.27342987060547,-0.13699200749397,0.00072050158633,9.98490142822266,1.31974780559540,1.85818481445312,0.82162785530090
177,2579528446,1.24038445949554,2.47108125686646,116.27960205078125,-0.11837854981422,-0.01026882231236,9.99365901947021,1.37425494194031,1.74153721332550,0.75113737583160
178,2579536779,1.24217724800110,2.47362351417542,116.27782440185547,-0.14345127344131,-0.02464958094060,10.03717613220215,1.38242578506470,1.90357315540314,0.82885104417801
179,2579545112,1.25250172615051,2.48733496665955,116.28520202636719,-0.16235187649727,-0.02202884480357,9.99050235748291,1.30765795707703,1.80544483661652,0.89114481210709
180,2579553445,1.25343489646912,2.48799633979797,116.28298950195312,-0.12909089028835,-0.03706141188741,9.99829387664795,1.29510700702667,1.69271659851074,0.81578779220581
181,2579561778,1.26339316368103,2.50074362754822,116.28964233398438,-0.12959671020508,-0.00927806552500,10.00659751892090,1.26903164386749,1.69297277927399,0.81020385026932
182,2579570111,1.26398181915283,2.50058698654175,116.28838348388672,-0.13234610855579,-0.01086168549955,10.01035213470459,1.27205407619476,1.61039245128632,0.78230994939804
183,2579578444,1.27437841892242,2.51481676101685,116.29546356201172,-0.12795576453209,-0.02881268598139,9.97834587097168,1.32241177558899,1.87693452835083,0.85899895429611
184,2579586777,1.27563071250916,2.51574492454529,116.29514312744141,-0.10469055920839,-0.01511718798429,10.01399612426758,1.36508488655090,1.76061999797821,0.80315995216370
185,2579595110,1.28546690940857,2.52926230430603,116.30101776123047,-0.11372163146734,-0.00810443703085,9.99697113037109,1.26595771312714,1.79294514656067,0.71484208106995
186,2579603443,1.28576600551605,2.52989196777344,116.29950714111328,-0.10770209878683,-0.01721849478781,10.00327301025391,1.26495909690857,1.74863266944885,0.80095720291138
187,2579611776,1.29631984233856,2.54404950141907,116.30657958984375,-0.13121403753757,-0.02357998304069,10.01720523834229,1.34864079952240,1.87672960758209,0.85969060659409
188,2579620109,1.29742407798767,2.54502677917480,116.30500793457031,-0.13259822130203,-0.00394679326564,9.99820613861084,1.37476718425751,1.81200230121613,0.83530586957932
189,2579628442,1.30806410312653,2.55875420570374,116.31228637695312,-0.13027894496918,-0.00675226375461,9.97108936309814,1.36224186420441,1.83116173744202,0.88548415899277
190,2579636775,1.30799221992493,2.55877780914307,116.31065368652344,-0.12032153457403,-0.00171502644662,10.01011657714844,1.24871957302094,1.71405327320099,0.78149032592773
191,2579645108,1.31789410114288,2.57257819175720,116.31655120849609,-0.12754392623901,-0.01393004134297,10.02506637573242,1.28450262546539,1.84212446212769,0.72260320186615
192,2579653441,1.31761002540588,2.57194566726685,116.31518554687500,-0.13100838661194,-0.01088572572917,10.00476551055908,1.23491346836090,1.65808618068695,0.84619182348251
193,2579661774,1.32718229293823,2.58694148063660,116.32212829589844,-0.14526627957821,-0.00830637477338,10.02243804931641,1.24226462841034,1.99255681037903,0.84327179193497
194,2579670107,1.33760511875153,2.60022926330566,116.32830047607422,-0.13945457339287,-0.03415620326996,10.01843643188477,1.33703756332397,1.77153170108795,0.75318658351898
195,2579678440,1.33828604221344,2.60027027130127,116.32556915283203,-0.11244489252567,-0.01209233794361,9.98793601989746,1.38170874118805,1.76912391185760,0.73963660001755
196,2579686773,1.33917832374573,2.60136866569519,116.32387542724609,-0.11741363257170,-0.01150751765817,9.99884414672852,1.41052472591400,1.90377819538116,0.76566088199615
197,2579695106,1.34959816932678,2.61409258842468,116.33036041259766,-0.10410714149475,-0.01508595608175,10.00355434417725,1.35340499877930,1.72960114479065,0.79872870445251
198,2579703439,1.34966516494751,2.61478519439697,116.32981872558594,-0.11768483370543,-0.01337642408907,10.03966140747070,1.32154071331024,1.87959802150726,0.89667749404907
199,2579711772,1.36035346984863,2.62780427932739,116.33593750000000,-0.11324448883533,-0.00529802264646,10.01039791107178,1.39121150970459,1.77096831798553,0.75467216968536
200,2579720105,1.35977101325989,2.62676739692688,116.33438110351562,-0.11246492713690,-0.00740408431739,10.04743385314941,1.26183414459229,1.69376707077026,0.83479356765747
201,2579728438,1.37041819095612,2.64112186431885,116.34049987792969,-0.10523505508900,-0.00995898898691,10.03707885742188,1.39008450508118,1.93658959865570,0.75134229660034
202,2579736771,1.37002038955688,2.64001941680908,116.33956909179688,-0.10488367825747,-0.00471729040146,9.97835826873779,1.30125451087952,1.70857203006744,0.77816051244736
203,2579745104,1.37981450557709,2.65352153778076,116.34600067138672,-0.13032686710358,-0.01700483262539,10.02357101440430,1.29108560085297,1.84015250205994,0.78999423980713
204,2579753437,1.38063156604767,2.65314102172852,116.34444427490234,-0.11765598505735,-0.03267743065953,10.00489902496338,1.46257281303406,1.81748366355896,0.74752587080002
205,2579761770,1.39141523838043,2.66586470603943,116.35128021240234,-0.14442475140095,-0.01290063560009,10.01751899719238,1.41157495975494,1.75288450717926,0.84421968460083
206,2579770103,1.39101910591125,2.66517353057861,116.34966278076172,-0.13429057598114,-0.00926984846592,10.01994991302490,1.33063399791718,1.80278122425079,0.82785207033157
207,2579778436,1.40143978595734,2.67768883705139,116.35655975341797,-0.14122533798218,-0.02109326794744,9.99272823333740,1.37169361114502,1.73390436172485,0.85338944196701
208,2579786769,1.40117013454437,2.67654442787170,116.35586547851562,-0.13658465445042,-0.03274409100413,10.02302265167236,1.35962915420532,1.77096831798553,0.89332211017609
209,2579795102,1.41157793998718,2.68857645988464,116.36213684082031,-0.12946909666061,-0.02760629914701,10.01423168182373,1.37643206119537,1.67975580692291,0.77757126092911
210,2579803435,1.41112768650055,2.68693947792053,116.36033630371094,-0.14116272330284,0.00319920410402,9.99593830108643,1.36039757728577,1.73065125942230,0.84660166501999
211,2579811768,1.42106342315674,2.70010948181152,116.36668395996094,-0.11714246124029,-0.01406629756093,10.03674888610840,1.32384622097015,1.82347738742828,0.78950756788254
212,2579820101,1.42001688480377,2.69798254966736,116.36415863037109,-0.12883113324642,-0.02500404044986,10.02759170532227,1.30604410171509,1.69053936004639,0.77703338861465
213,2579828434,1.43006515502930,2.71137809753418,116.37115478515625,-0.12964427471161,-0.00014140433632,10.01014423370361,1.33860003948212,1.85769796371460,0.86465972661972
214,2579836767,1.42851448059082,2.70980119705200,116.36960601806641,-0.11246499419212,-0.00786777772009,10.00981712341309,1.26011788845062,1.78067588806152,0.81978356838226
215,2579845100,1.43777906894684,2.72215580940247,116.37586212158203,-0.10209767520428,-0.01020688191056,10.00520515441895,1.25245916843414,1.73728537559509,0.78115725517273
216,2579853433,1.43678951263428,2.72016072273254,116.37409973144531,-0.11885712295771,-0.01569974422455,9.99550533294678,1.34390211105347,1.75467741489410,0.80472236871719
217,2579861766,1.44612455368042,2.73300290107727,116.38074493408203,-0.12524272501469,-0.01596198044717,10.02840614318848,1.26355016231537,1.80214071273804,0.82598227262497
218,2579870099,1.44502246379852,2.73144507408142,116.37911987304688,-0.11960329860449,-0.03927372768521,10.00240993499756,1.34551584720612,1.83088004589081,0.84088981151581
219,2579878432,1.45509421825409,2.74300074577332,116.38479614257812,-0.11145503818989,-0.01764507777989,9.95074367523193,1.36147344112396,1.65247690677643,0.71722424030304
220,2579886765,1.45346939563751,2.74120163917542,116.38265228271484,-0.14388552308083,-0.01681420207024,9.99308300018311,1.30422556400299,1.82383596897125,0.79060894250870
221,2579895098,1.46318447589874,2.75395703315735,116.38923645019531,-0.12717734277248,-0.02367027290165,9.97252941131592,1.31777560710907,1.80472791194916,0.82418930530548
222,2579903431,1.46262097358704,2.75319314002991,116.38745117187500,-0.12910766899586,0.00338335172273,10.00446605682373,1.44505262374878,1.97129726409912,0.87024360895157
223,2579911764,1.47157931327820,2.76660609245300,116.39436340332031,-0.12752187252045,-0.02199462242424,10.00776195526123,1.22925269603729,1.89045846462250,0.86235439777374
224,2579920097,1.47115743160248,2.76459646224976,116.39254760742188,-0.12312936037779,-0.00697635579854,10.01857376098633,1.48332047462463,1.84276473522186,0.79222267866135
225,2579928430,1.48095726966858,2.77811741828918,116.39874267578125,-0.13797983527184,-0.01441900338978,10.00173282623291,1.33862555027008,1.90682601928711,0.77831417322159
226,2579936763,1.47857260704041,2.77532339096069,116.39737701416016,-0.12172124534845,-0.00790184084326,9.99160480499268,1.26360130310059,1.77076327800751,0.81025511026382
227,2579945096,1.48885822296143,2.78747582435608,116.40418243408203,-0.12479951977730,-0.01865288056433,9.99579811096191,1.39822995662689,1.75185990333557,0.85413223505020
228,2579953429,1.48714780807495,2.78529500961304,116.40257263183594,-0.14901544153690,-0.02191171795130,9.98736858367920,1.35988533496857,1.86807191371918,0.81919443607330
229,2579961762,1.49618244171143,2.79680871963501,116.40924072265625,-0.10802679508924,-0.00787705183029,9.99675750732422,1.25489258766174,1.68136954307556,0.83994191884995
230,2579970095,1.49468421936035,2.79282665252686,116.40721893310547,-0.13218382000923,-0.02792884781957,9.98357391357422,1.40348076820374,1.67194354534149,0.80531156063080
231,2579978428,1.50502908229828,2.80584144592285,116.41399383544922,-0.13950823247433,-0.01879612356424,9.97741222381592,1.41472542285919,1.86809754371643,0.85200631618500
232,2579986761,1.50340831279755,2.80416011810303,116.41181945800781,-0.14688639342785,-0.01591582782567,9.99357700347900,1.40783524513245,1.97047734260559,0.80351859331131
233,2579995094,1.51265072822571,2.81593346595764,116.41831970214844,-0.14486716687679,-0.01911053806543,9.99959850311279,1.28885698318481,1.72491371631622,0.82357448339462
234,2580003427,1.50915861129761,2.81182932853699,116.41664123535156,-0.14157854020596,-0.00883099716157,10.02708053588867,1.19954013824463,1.70024716854095,0.83615112304688
235,2580011760,1.51887500286102,2.82371258735657,116.42303466796875,-0.12018116563559,-0.01094508450478,9.99747943878174,1.35020315647125,1.74512338638306,0.81355935335159
236,2580020093,1.52829468250275,2.83625292778015,116.42889404296875,-0.12666033208370,-0.02743306942284,9.99257850646973,1.30568563938141,1.80316543579102,0.74189078807831
237,2580028426,-0.11965649574995,0.69296193122864,115.54872894287109,-0.13253636658192,-0.03183254227042,10.01285743713379,1.33124876022339,1.79963040351868,0.81499379873276
238,2580036759,-0.11980294436216,0.69316840171814,115.55143737792969,-0.12431910634041,-0.00900364201516,9.99596214294434,1.32128465175629,1.82473242282867,0.83049029111862
239,2580045092,-0.11926968395710,0.69214165210724,115.55149078369141,-0.10842862725258,-0.00763221783563,9.99345302581787,1.39920306205750,1.66126227378845,0.83353841304779
240,2580053425,-0.11931053549051,0.69210064411163,115.55457305908203,-0.12013010680676,0.00588938733563,9.99962234497070,1.33170962333679,1.79558336734772,0.85121220350266
241,2580061758,-0.11928138136864,0.69182598590851,115.55384063720703,-0.11963506788015,-0.02739080972970,9.99233055114746,1.33954775333405,1.75180864334106,0.74091732501984
242,2580070091,-0.11931214481592,0.69178283214569,115.55741882324219,-0.11777371168137,0.00331044057384,10.02240657806396,1.33176100254059,1.79394412040710,0.84957301616669
243,2580078424,-0.11945702135563,0.69186282157898,115.55752563476562,-0.12260264903307,-0.01635759510100,9.99022674560547,1.31892812252045,1.79558336734772,0.84094089269638
244,2580086757,-0.12022203207016,0.69127005338669,115.56187438964844,-0.12048684805632,-0.00279300427064,10.00645923614502,1.24270021915436,1.72762882709503,0.83356404304504
245,2580095090,-0.12029418349266,0.69103354215622,115.56180572509766,-0.12547966837883,-0.00785320065916,10.01395034790039,1.32722711563110,1.75559961795807,0.82085937261581
246,2580103423,-0.12061930447817,0.69055479764938,115.56529998779297,-0.13408784568310,-0.02540216594934,9.98511600494385,1.29659259319305,1.74281835556030,0.74798691272736
247,2580111756,-0.12013553082943,0.69090104103088,115.56507873535156,-0.13872399926186,-0.02373825013638,10.01802062988281,1.39461839199066,1.82629489898682,0.80003499984741
248,2580120089,-0.12020263075829,0.69033563137054,115.56768798828125,-0.15946400165558,-0.04003749042749,10.00489330291748,1.32686853408813,1.72980606555939,0.77060425281525
249,2580128422,-0.12001679092646,0.69081872701645,115.56819915771484,-0.12540037930012,-0.02049846388400,10.01554203033447,1.35747766494751,1.84225273132324,0.89032524824142
250,2580136755,-0.12015245854855,0.69033157825470,115.57210540771484,-0.12230557948351,-0.01511869113892,10.01204299926758,1.31895375251770,1.73928332328796,0.81612080335617
251,2580145088,-0.12038670480251,0.68977940082550,115.57199096679688,-0.12927569448948,-0.02933385781944,10.01621723175049,1.30717134475708,1.71815156936646,0.81622320413589
252,2580153421,-0.12052094191313,0.69043278694153,115.57508087158203,-0.12482156604528,-0.02129299566150,9.99795818328857,1.32054209709167,1.87424492835999,0.83253961801529
253,2580161754,-0.12058258801699,0.69103038311005,115.57530212402344,-0.11671437323093,-0.01582243293524,10.00214481353760,1.32766258716583,1.85667359828949,0.85618150234222
254,2580170087,-0.12058157473803,0.68995654582977,115.57905578613281,-0.12744508683681,0.00065166514833,9.99164009094238,1.33516752719879,1.66700005531311,0.88743072748184
255,2580178420,-0.12065776437521,0.68901270627975,115.57900238037109,-0.12053549289703,0.00352410878986,10.01608085632324,1.32589519023895,1.67050921916962,0.82306218147278
256,2580186753,-0.12116495519876,0.68717879056931,115.58196258544922,-0.12478563189507,-0.00757970148697,10.00925731658936,1.27443623542786,1.57548034191132,0.79742240905762
257,2580195086,-0.12174131721258,0.68755936622620,115.58175659179688,-0.14018987119198,0.00089969922556,9.98961830139160,1.26682877540588,1.83006024360657,0.80057287216187
258,2580203419,-0.12152148783207,0.68773853778839,115.58431243896484,-0.12985593080521,-0.02312337979674,10.03040313720703,1.35947537422180,1.81602370738983,0.82214009761810
259,2580211752,-0.12137302011251,0.68781638145447,115.58454895019531,-0.13405072689056,-0.01512678526342,10.00238418579102,1.35299515724182,1.79404675960541,0.85694980621338
260,2580220085,-0.12243550270796,0.68717002868652,115.58673095703125,-0.11677959561348,-0.02252542600036,9.97479820251465,1.20689129829407,1.71674275398254,0.82275485992432
261,2580228418,-0.12231183797121,0.68722563982010,115.58648681640625,-0.12128226459026,-0.03090856783092,10.02663516998291,1.35004949569702,1.79097294807434,0.79788351058960
262,2580236751,-0.12202560156584,0.68694603443146,115.59039306640625,-0.13077212870121,-0.03650605678558,10.01734352111816,1.36764657497406,1.76033842563629,0.89283543825150
263,2580245084,-0.12154261767864,0.68716919422150,115.58963012695312,-0.12859761714935,-0.03223933279514,10.02855873107910,1.39520740509033,1.81164371967316,0.73820227384567
264,2580253417,-0.12164147943258,0.68671578168869,115.59113311767578,-0.12946020066738,-0.02594063989818,10.00453090667725,1.32246279716492,1.73977005481720,0.76709508895874
265,2580261750,-0.12175047397614,0.68667274713516,115.59082031250000,-0.12820237874985,-0.00548676913604,10.01111030578613,1.32230925559998,1.77977967262268,0.79066020250320
266,2580270083,-0.12165430188179,0.68629533052444,115.59484863281250,-0.12363217771053,-0.00925772171468,10.01189231872559,1.34618175029755,1.74589204788208,0.88922381401062
267,2580278416,-0.12253040820360,0.68678474426270,115.59509277343750,-0.11754132062197,-0.01618246175349,9.98904514312744,1.23068714141846,1.84384071826935,0.85958814620972
268,2580286749,-0.12209206074476,0.68645519018173,115.59752655029297,-0.13085636496544,-0.02589753642678,10.00544166564941,1.38491046428680,1.75285887718201,0.86581236124039
269,2580295082,-0.12203848361969,0.68679487705231,115.59775543212891,-0.14758770167828,-0.02944613434374,9.99551582336426,1.34216034412384,1.82555210590363,0.85582274198532
270,2580303415,-0.12201298028231,0.68708723783493,115.60091400146484,-0.14057664573193,-0.00670858612284,10.04835414886475,1.33770346641541,1.82690978050232,0.84250348806381
271,2580311748,-0.12144259363413,0.68640244007111,115.60126495361328,-0.13247400522232,-0.00941140763462,9.99970817565918,1.40363466739655,1.70181000232697,0.86955201625824
272,2580320081,-0.12085919827223,0.68627476692200,115.60387420654297,-0.11717803031206,-0.02960542030632,9.97274684906006,1.40314793586731,1.77619361877441,0.82649457454681
273,2580328414,-0.12101366370916,0.68670338392258,115.60361480712891,-0.12677800655365,-0.02440291270614,9.99410247802734,1.31815969944000,1.83595168590546,0.79885679483414
274,2580336747,-0.12140922993422,0.68636393547058,115.60644531250000,-0.13110266625881,-0.03055985458195,10.01279163360596,1.28588581085205,1.74883735179901,0.83453726768494
275,2580345080,-0.12081429362297,0.68639892339706,115.60606384277344,-0.13534833490849,-0.01173461321741,10.01905155181885,1.40832209587097,1.78969228267670,0.78207951784134
276,2580353413,-0.12074206024408,0.68603628873825,115.60902404785156,-0.14190135896206,-0.00183348415885,10.02565002441406,1.34203207492828,1.74599421024323,0.82354879379272
277,2580361746,-0.12096323817968,0.68757987022400,115.60932922363281,-0.14825600385666,-0.00299387425184,10.00160884857178,1.30978393554688,1.96929931640625,0.86714428663254
278,2580370079,-0.12079444527626,0.68740600347519,115.61315155029297,-0.13544940948486,0.00152558274567,9.98968505859375,1.35348176956177,1.76871407032013,0.88082236051559
279,2580378412,-0.12053445726633,0.68710482120514,115.61311340332031,-0.12973445653915,-0.01438848022372,9.96920204162598,1.36505937576294,1.74732625484467,0.82439410686493
280,2580386745,-0.11983669549227,0.68724751472473,115.61475372314453,-0.12273725867271,-0.01590602286160,10.01236438751221,1.41856753826141,1.80593168735504,0.78044009208679
281,2580395078,-0.12005890905857,0.68685984611511,115.61394500732422,-0.12019160389900,-0.00067644042429,10.02116775512695,1.30924594402313,1.73918092250824,0.73228532075882
282,2580403411,-0.11943948268890,0.68643927574158,115.61631011962891,-0.12403152137995,-0.00706800585613,10.03621864318848,1.40693867206573,1.73728561401367,0.84101784229279
283,2580411744,-0.11941257119179,0.68657439947128,115.61573028564453,-0.11622677743435,-0.01571593061090,10.01550483703613,1.34044408798218,1.80021953582764,0.76130628585815
284,2580420077,-0.11999706178904,0.68708789348602,115.61931610107422,-0.12499216943979,-0.02764554694295,9.99374675750732,1.26147532463074,1.84916830062866,0.87680083513260
285,2580428410,-0.12009125202894,0.68530476093292,115.61973571777344,-0.10483132302761,-0.00878182612360,10.01467609405518,1.32225799560547,1.57074177265167,0.87705695629120
286,2580436743,-0.11934042721987,0.68488073348999,115.62108612060547,-0.12399131804705,-0.03364769741893,9.98367691040039,1.42535531520844,1.73800253868103,0.70223987102509
287,2580445076,-0.11940924823284,0.68589526414871,115.62089538574219,-0.12313801795244,-0.00103403977118,9.97659111022949,1.32758581638336,1.90677499771118,0.80538845062256
288,2580453409,-0.11950889974833,0.68505311012268,115.62400817871094,-0.14131443202496,-0.00538882613182,9.98314094543457,1.31880009174347,1.68615937232971,0.89175951480865
289,2580461742,-0.11949856579304,0.68345445394516,115.62369537353516,-0.13481074571609,-0.02234758622944,9.97753524780273,1.33744716644287,1.59266757965088,0.79009664058685
290,2580470075,-0.11947176605463,0.68245905637741,115.62532043457031,-0.15266433358192,-0.02915352396667,10.00812625885010,1.33675563335419,1.66894662380219,0.75833505392075
291,2580478408,-0.11887360364199,0.68192493915558,115.62583923339844,-0.13503089547157,0.00277397688478,10.00047206878662,1.40643918514252,1.72075140476227,0.89082467556000
292,2580486741,-0.11891714483500,0.68275707960129,115.62802886962891,-0.12089292705059,-0.03982172161341,10.00250244140625,1.32725286483765,1.88600158691406,0.76486670970917
293,2580495074,-0.11880132555962,0.68240082263947,115.62835693359375,-0.12268228828907,-0.02024025842547,10.02174758911133,1.34861505031586,1.74089694023132,0.86837375164032
294,2580503407,-0.11778923869133,0.68162477016449,115.62977600097656,-0.10454700887203,-0.04427570849657,10.02854251861572,1.45527279376984,1.69322884082794,0.76227962970734
295,2580511740,-0.11737061291933,0.68175989389420,115.63037872314453,-0.13809771835804,-0.02045387402177,10.03586101531982,1.38462889194489,1.80193603038788,0.89918780326843
296,2580520073,-0.11712875217199,0.68157547712326,115.63240051269531,-0.12030239403248,-0.02073972672224,10.00811576843262,1.36167824268341,1.76323270797729,0.79601359367371
297,2580528406,-0.11663648486137,0.68196934461594,115.63264465332031,-0.11473806202412,-0.01024072989821,10.00268650054932,1.39492583274841,1.83180212974548,0.85933202505112
298,2580536739,-0.11620672047138,0.68148171901703,115.63402557373047,-0.09463793784380,0.00117605866399,10.02042770385742,1.38388586044312,1.72808969020844,0.84229832887650
299,2580545072,-0.11606945097446,0.68171668052673,115.63461303710938,-0.11662172526121,-0.02057605609298,9.97799777984619,1.35028004646301,1.81254017353058,0.90082705020905
300,2580553405,-0.11653584986925,0.68131756782532,115.63570404052734,-0.13274942338467,-0.00443775812164,9.99078083038330,1.27843189239502,1.73912966251373,0.81645369529724
301,2580561738,-0.11685296148062,0.68158090114594,115.63632965087891,-0.14981861412525,-0.02095574513078,9.98151683807373,1.29602921009064,1.81535780429840,0.90520703792572
302,2580570071,-0.11594958603382,0.68044435977936,115.63858795166016,-0.13829663395882,-0.01714428514242,9.98985195159912,1.43998110294342,1.64953100681305,0.88302510976791
303,2580578404,-0.11593547463417,0.68152362108231,115.63820648193359,-0.13259115815163,-0.02795939520001,9.99676322937012,1.33716547489166,1.91448473930359,0.78563982248306
304,2580586737,-0.11602186411619,0.68227076530457,115.64090728759766,-0.14786006510258,-0.03706349059939,9.98722743988037,1.32318031787872,1.87501335144043,0.82895350456238
305,2580595070,-0.11604124307632,0.68289732933044,115.64122009277344,-0.11397287994623,-0.01682275906205,10.04233551025391,1.33293902873993,1.85954225063324,0.86594039201736
306,2580603403,-0.11603948473930,0.68253338336945,115.64215087890625,-0.13245505094528,-0.02173568308353,10.00652599334717,1.33365631103516,1.74123001098633,0.75298160314560
307,2580611736,-0.11571403592825,0.68264663219452,115.64193725585938,-0.13391990959644,-0.04050732031465,10.02995491027832,1.37381947040558,1.79942548274994,0.80208408832550
308,2580620069,-0.11603585630655,0.68207091093063,115.64376831054688,-0.16615794599056,-0.00730893015862,9.97775840759277,1.29600346088409,1.71484744548798,0.77854460477829
309,2580628402,-0.11604025959969,0.68189412355423,115.64380645751953,-0.12577794492245,-0.00488412799314,10.01609039306641,1.33414316177368,1.76338660717010,0.83279567956924
310,2580636735,-0.11654900014400,0.68098539113998,115.64546966552734,-0.13671536743641,-0.00131374900229,10.00608634948730,1.27225923538208,1.67550408840179,0.81983488798141
311,2580645068,-0.11690264940262,0.68044322729111,115.64598083496094,-0.11753883957863,-0.01562038436532,10.02722835540771,1.29328835010529,1.71989333629608,0.88830173015594
312,2580653401,-0.11749858409166,0.67947334051132,115.64769744873047,-0.12736861407757,-0.03498498722911,9.97273826599121,1.26063013076782,1.66635966300964,0.78026086091995
313,2580661734,-0.11805769801140,0.67902284860611,115.64779663085938,-0.12899529933929,-0.01035472005606,10.01734733581543,1.26928782463074,1.73042070865631,0.83940404653549
314,2580670067,-0.11721238493919,0.67836892604828,115.64968109130859,-0.11342983692884,-0.00081039220095,10.00356674194336,1.43429470062256,1.70449948310852,0.84701150655746
315,2580678400,-0.11755445599556,0.67778986692429,115.64887237548828,-0.12938217818737,-0.02285992726684,10.02055358886719,1.29479956626892,1.71679401397705,0.73249024152756
316,2580686733,-0.11769907176495,0.67741453647614,115.65052795410156,-0.11933647096157,-0.01694082841277,10.00473117828369,1.31605947017670,1.73769521713257,0.78366744518280
317,2580695066,-0.11737041175365,0.67745625972748,115.65139007568359,-0.14402545988560,-0.01964562945068,10.00500392913818,1.37328159809113,1.78884685039520,0.93217879533768
318,2580703399,-0.11728940904140,0.67703634500504,115.65429687500000,-0.13595588505268,-0.01215128507465,10.01103115081787,1.34144306182861,1.73208570480347,0.88177001476288
319,2580711732,-0.11754770576954,0.67840355634689,115.65435028076172,-0.13036435842514,-0.01930031552911,10.01962280273438,1.30489170551300,1.94978106021881,0.83725243806839
320,2580720065,-0.11716079711914,0.67965161800385,115.65642547607422,-0.12580683827400,-0.03357468545437,9.96969318389893,1.37830209732056,1.93205630779266,0.84091538190842
321,2580728398,-0.11759535223246,0.68021070957184,115.65616607666016,-0.13354749977589,-0.00405682390556,9.99508571624756,1.28501498699188,1.85206305980682,0.79683327674866
322,2580736731,-0.11810155957937,0.68096524477005,115.65820312500000,-0.13965378701687,0.00341845816001,9.99439907073975,1.27149045467377,1.87265670299530,0.81532663106918
323,2580745064,-0.11789715290070,0.68127250671387,115.65804290771484,-0.12374040484428,-0.01876993291080,10.00302886962891,1.35944986343384,1.82147932052612,0.80920493602753
324,2580753397,-0.11845418810844,0.68047034740448,115.65985870361328,-0.11986918747425,0.00429274747148,10.02058792114258,1.26685452461243,1.68508374691010,0.79975330829620
325,2580761730,-0.11836808919907,0.68137896060944,115.65953063964844,-0.12358820438385,-0.01984587870538,10.04609680175781,1.34533643722534,1.89504373073578,0.78984063863754
326,2580770063,-0.11888509988785,0.68247616291046,115.66136169433594,-0.13508546352386,-0.01358136441559,10.02109527587891,1.27123439311981,1.91343438625336,0.80413329601288
327,2580778396,-0.11884006112814,0.68203628063202,115.66108703613281,-0.11460576206446,-0.00676594534889,9.96747398376465,1.34029054641724,1.73108696937561,0.79329854249954
328,2580786729,-0.11936055868864,0.68355464935303,115.66376495361328,-0.10282790660858,-0.01200566440821,10.01148605346680,1.26926231384277,1.96502149105072,0.87464934587479
329,2580795062,-0.11962188035250,0.68364197015762,115.66312408447266,-0.13495273888111,-0.00751217361540,10.03090190887451,1.30571115016937,1.79445636272430,0.75039464235306
330,2580803395,-0.11966854333878,0.68430441617966,115.66502380371094,-0.13619109988213,-0.01235344540328,10.01300525665283,1.32528066635132,1.86212944984436,0.82290863990784
331,2580811728,-0.12035872787237,0.68372607231140,115.66463470458984,-0.13028782606125,-0.00792291760445,9.99882030487061,1.25348377227783,1.71446311473846,0.78192573785782
332,2580820061,-0.12058231979609,0.68391412496567,115.66604614257812,-0.11822099238634,-0.01983664743602,9.99544048309326,1.30466091632843,1.80490696430206,0.81735020875931
333,2580828394,-0.12040273845196,0.68403393030167,115.66559600830078,-0.13041044771671,-0.02526992000639,10.01717758178711,1.35732400417328,1.79922080039978,0.77549666166306
334,2580836727,-0.12023506313562,0.68386834859848,115.66802215576172,-0.12626330554485,-0.02072010003030,10.00467681884766,1.35025441646576,1.76141405105591,0.91929489374161
335,2580845060,-0.12038976699114,0.68369328975677,115.66795349121094,-0.12176048755646,-0.02317475154996,10.02583217620850,1.31677663326263,1.76384735107422,0.82252430915833
336,2580853393,-0.11993549764156,0.68403869867325,115.67002105712891,-0.12117646634579,-0.01099672541022,10.01617622375488,1.38729262351990,1.82293951511383,0.81548041105270
337,2580861726,-0.11981618404388,0.68317085504532,115.66988372802734,-0.14946827292442,-0.01297612302005,9.99206733703613,1.35002374649048,1.68078041076660,0.81361055374146
338,2580870059,-0.12019848078489,0.68169879913330,115.67163085937500,-0.11559686064720,-0.00338079547510,10.02048873901367,1.28470742702484,1.60475718975067,0.80672031641006
339,2580878392,-0.12040118873119,0.68177151679993,115.67183685302734,-0.11126931011677,-0.02433338947594,9.95812797546387,1.31119275093079,1.79297101497650,0.85251867771149
340,2580886725,-0.11972613632679,0.68280231952667,115.67437744140625,-0.13077059388161,-0.00869111903012,9.98881530761719,1.41157495975494,1.90457224845886,0.86309736967087
341,2580895058,-0.11892858892679,0.68270933628082,115.67408752441406,-0.13210391998291,-0.01439839322120,10.00973033905029,1.43173325061798,1.77370905876160,0.79288858175278
342,2580903391,-0.11840636283159,0.68254172801971,115.67480468750000,-0.11221142113209,-0.00608620466664,10.00757884979248,1.39530980587006,1.76179826259613,0.75715667009354
343,2580911724,-0.11915627866983,0.68294924497604,115.67529296875000,-0.12085114419460,-0.01673579029739,10.00788593292236,1.24472367763519,1.83346700668335,0.88922375440598
344,2580920057,-0.12005817145109,0.68234747648239,115.67728424072266,-0.12016172707081,-0.00910730287433,10.01329421997070,1.22272109985352,1.70931458473206,0.84644794464111
345,2580928390,-0.11975465714931,0.68153816461563,115.67724609375000,-0.12513385713100,-0.02738413959742,10.01260757446289,1.37107896804810,1.68738913536072,0.82434302568436
346,2580936723,-0.11997163295746,0.68090867996216,115.67933654785156,-0.13464295864105,-0.01209371723235,10.01469230651855,1.30484032630920,1.70554935932159,0.88151389360428
347,2580945056,-0.12033326178789,0.68036311864853,115.67932128906250,-0.15193805098534,-0.03348404169083,9.98548889160156,1.29292964935303,1.71863830089569,0.82467579841614
348,2580953389,-0.12087112665176,0.68135726451874,115.67993927001953,-0.13159136474133,-0.02820906788111,9.99832725524902,1.26693129539490,1.90093469619751,0.75979501008987
349,2580961722,-0.12089445441961,0.68064123392105,115.68041229248047,-0.13021242618561,-0.01214045844972,10.01979541778564,1.33245229721069,1.69855666160583,0.88471561670303
350,2580970055,-0.12049622088671,0.68131077289581,115.68267059326172,-0.13954381644726,-0.01352877449244,9.99356269836426,1.37827646732330,1.86087441444397,0.85659134387970
351,2580978388,-0.12063093483448,0.68146574497223,115.68324279785156,-0.13011322915554,-0.02099774032831,9.99714946746826,1.31764745712280,1.80288374423981,0.89852172136307
352,2580986721,-0.12069828808308,0.68141102790833,115.68527984619141,-0.12778335809708,-0.02265486121178,10.00152015686035,1.32397413253784,1.77496397495270,0.85543859004974
353,2580995054,-0.12055582553148,0.68108576536179,115.68464660644531,-0.14462472498417,-0.00763261830434,10.02137947082520,1.35273885726929,1.74455988407135,0.75275105237961
354,2581003387,-0.11950933933258,0.68058824539185,115.68621063232422,-0.12131731212139,-0.00252209301107,10.00320816040039,1.45793664455414,1.72132802009583,0.81094670295715
355,2581011720,-0.11970308423042,0.68196731805801,115.68634033203125,-0.12930504977703,-0.01984441652894,10.01329326629639,1.31175625324249,1.94914066791534,0.84713959693909
356,2581020053,-0.11974792927504,0.68048608303070,115.68807983398438,-0.14660185575485,-0.01666971296072,9.99155998229980,1.32438397407532,1.60324621200562,0.87298429012299
357,2581028386,-0.12025495618582,0.68073064088821,115.68840789794922,-0.12577138841152,-0.00786855630577,10.00237751007080,1.27499985694885,1.81441009044647,0.86819446086884
358,2581036719,-0.12116085737944,0.68180704116821,115.68996429443359,-0.13360452651978,-0.02879465743899,9.98878002166748,1.22302854061127,1.90826058387756,0.79511713981628
359,2581045052,-0.12161074578762,0.68162101507187,115.68914794921875,-0.14699056744576,-0.04182366281748,9.97779273986816,1.28194117546082,1.76187503337860,0.73243904113770
360,2581053385,-0.12222072482109,0.68121087551117,115.69019317626953,-0.12493756413460,-0.00812031701207,10.00354194641113,1.25814557075500,1.73003661632538,0.83919912576675
361,2581061718,-0.12166807055473,0.68096655607224,115.68978881835938,-0.13621935248375,-0.00878742523491,9.96045303344727,1.40273809432983,1.75603520870209,0.78108054399490
362,2581070051,-0.12155801057816,0.68108278512955,115.69164276123047,-0.13951826095581,-0.03190124779940,9.99539661407471,1.34395337104797,1.79345762729645,0.82626408338547
363,2581078384,-0.12133249640465,0.68134820461273,115.69195556640625,-0.13617268204689,-0.01025295536965,10.01844787597656,1.36219072341919,1.81589567661285,0.86740052700043
364,2581086717,-0.12169876694679,0.68240213394165,115.69354248046875,-0.12527619302273,-0.00896514486521,9.99208545684814,1.28770446777344,1.90613460540771,0.81788814067841
365,2581095050,-0.12077052891254,0.68251466751099,115.69402313232422,-0.12335310131311,0.00536773586646,9.98787117004395,1.44628214836121,1.79832410812378,0.88689285516739
366,2581103383,-0.12051233649254,0.68129026889801,115.69552612304688,-0.13028490543365,-0.01746909692883,10.02065372467041,1.36175501346588,1.63044846057892,0.82480394840240
367,2581111716,-0.12016745656729,0.68199950456619,115.69568634033203,-0.12422101944685,-0.00356814963743,10.01498794555664,1.37586867809296,1.87081253528595,0.84803611040115
368,2581120049,-0.12030730396509,0.68259590864182,115.69638824462891,-0.11599649488926,-0.02233277633786,9.98805427551270,1.31518852710724,1.84921967983246,0.80321115255356
369,2581128382,-0.12029971182346,0.68314230442047,115.69651794433594,-0.12601254880428,-0.00300977914594,9.99523830413818,1.33462989330292,1.85027015209198,0.84352803230286
370,2581136715,-0.11958085745573,0.68352508544922,115.69787597656250,-0.11212348192930,-0.00237759947777,10.01350212097168,1.41826021671295,1.82509124279022,0.83538269996643
371,2581145048,-0.11954250931740,0.68506711721420,115.69788360595703,-0.13424259424210,-0.01003667619079,10.01970005035400,1.33959901332855,1.96968352794647,0.83120763301849
372,2581153381,-0.12018202245235,0.68363678455353,115.69877624511719,-0.11525616049767,-0.03213549032807,10.02916049957275,1.25353527069092,1.60829234123230,0.77780187129974
373,2581161714,-0.12019442766905,0.68290585279465,115.69876098632812,-0.13664145767689,-0.03347388282418,9.99800872802734,1.33524441719055,1.69701981544495,0.82785207033157
374,2581170047,-0.11958389729261,0.68402045965195,115.70072937011719,-0.12204463034868,-0.01250519044697,10.02031135559082,1.40301978588104,1.91118061542511,0.88571459054947
375,2581178380,-0.11993271857500,0.68372702598572,115.70067596435547,-0.11994448304176,-0.03863101825118,10.01370239257812,1.29408240318298,1.75032329559326,0.82224249839783
376,2581186713,-0.11988353729248,0.68470758199692,115.70179748535156,-0.14194710552692,-0.02502502501011,10.01087379455566,1.33634591102600,1.89637553691864,0.79924100637436
377,2581195046,-0.11989518254995,0.68477529287338,115.70117950439453,-0.12764671444893,-0.02044657431543,10.00677585601807,1.33606410026550,1.79302203655243,0.75705426931381
378,2581203379,-0.11956602334976,0.68623518943787,115.70295715332031,-0.12979510426521,-0.03271376341581,10.01525402069092,1.36959302425385,1.95349538326263,0.85131478309631
379,2581211712,-0.11982746422291,0.68667328357697,115.70343017578125,-0.11669116467237,-0.02103346213698,10.00682926177979,1.30274009704590,1.83807754516602,0.88684171438217
380,2581220045,-0.12043359130621,0.68637305498123,115.70466613769531,-0.12482455372810,-0.00696354219690,9.99241161346436,1.25922131538391,1.74194729328156,0.79296541213989
381,2581228378,-0.11972042173147,0.68561506271362,115.70417022705078,-0.12539334595203,-0.02356145717204,9.96632862091064,1.42194855213165,1.69461214542389,0.77001512050629
382,2581236711,-0.11950737982988,0.68531000614166,115.70594787597656,-0.11723944544792,-0.01016420964152,10.02921581268311,1.35732388496399,1.74133241176605,0.83569002151489
383,2581245044,-0.11909147351980,0.68560475111008,115.70619201660156,-0.12877331674099,-0.01491993106902,10.00666236877441,1.38439810276031,1.82037818431854,0.85710346698761
384,2581253377,-0.11847646534443,0.68616926670074,115.70681762695312,-0.12461892515421,-0.00848862528801,9.99589633941650,1.40688765048981,1.84660720825195,0.78164404630661
385,2581261710,-0.11753626912832,0.68724292516708,115.70652008056641,-0.12099831551313,-0.01411996223032,10.02108383178711,1.44728100299835,1.91351151466370,0.79432302713394
386,2581270043,-0.11755270510912,0.68790036439896,115.70757293701172,-0.11148584634066,-0.00467486446723,10.02910804748535,1.33065962791443,1.85821044445038,0.73628121614456
387,2581278376,-0.11763277649879,0.68764412403107,115.70726013183594,-0.13059291243553,-0.01332139037549,10.02273464202881,1.32704782485962,1.75360167026520,0.79101878404617
388,2581286709,-0.11795610189438,0.68594187498093,115.70758819580078,-0.12047883868217,-0.02072312496603,10.00257778167725,1.29372382164001,1.57576215267181,0.71724981069565
389,2581295042,-0.11750678718090,0.68556135892868,115.70695495605469,-0.12472558021545,-0.03116113692522,10.03471088409424,1.38939297199249,1.73930895328522,0.75533813238144
390,2581303375,-0.11732236295938,0.68637740612030,115.70750427246094,-0.11688293516636,-0.01165624801069,10.03064060211182,1.35514676570892,1.87670397758484,0.71709614992142
391,2581311708,-0.11730439215899,0.68598335981369,115.70769500732422,-0.14069315791130,-0.00924094859511,10.02105140686035,1.33683252334595,1.73766982555389,0.84970110654831
392,2581320041,-0.11786956340075,0.68414884805679,115.70883178710938,-0.11071747541428,-0.02121511287987,10.00329589843750,1.26393437385559,1.55842125415802,0.84299004077911
393,2581328374,-0.11766848713160,0.68438029289246,115.70871734619141,-0.13934363424778,-0.01628077402711,10.02802467346191,1.35863029956818,1.81300139427185,0.81340569257736
394,2581336707,-0.11851032078266,0.68489927053452,115.71112060546875,-0.13103166222572,-0.00104747177102,10.01696109771729,1.22874033451080,1.84133040904999,0.95512920618057
395,2581345040,-0.11843141168356,0.68433851003647,115.71123504638672,-0.12813587486744,-0.01408361829817,9.99284839630127,1.34510588645935,1.71748566627502,0.84112018346786
396,2581353373,-0.11896009743214,0.68526560068130,115.71301269531250,-0.13655655086040,0.00924641732126,10.00525665283203,1.26731562614441,1.89007449150085,0.83691960573196
397,2581361706,-0.11885144561529,0.68522083759308,115.71289825439453,-0.10109535604715,-0.00567476730794,10.00311660766602,1.34794914722443,1.77890861034393,0.81589025259018
398,2581370039,-0.11797185242176,0.68490964174271,115.71353149414062,-0.10026774555445,-0.00549706351012,10.00543498992920,1.43698418140411,1.74092280864716,0.82367694377899
399,2581378372,-0.11828300356865,0.68512612581253,115.71308898925781,-0.12088142335415,-0.00716191949323,10.01677703857422,1.29825735092163,1.81143856048584,0.77585512399673
400,2581386705,-0.11805479228497,0.68585699796677,115.71438598632812,-0.12973837554455,-0.02663903683424,9.99752140045166,1.35832309722900,1.86789262294769,0.78502506017685
401,2581395038,-0.11740487068892,0.68613713979721,115.71372222900391,-0.11852878332138,-0.00006191420835,10.01540279388428,1.41495609283447,1.81738126277924,0.74729537963867
402,2581403371,-0.11716685444117,0.68661564588547,115.71427917480469,-0.13479585945606,-0.01386244501919,10.01526737213135,1.35965490341187,1.83633565902710,0.77649557590485
403,2581411704,-0.11709837615490,0.68653571605682,115.71347045898438,-0.13042904436588,-0.01958237774670,10.01476001739502,1.34413254261017,1.77580916881561,0.73205482959747
404,2581420037,-0.11756046861410,0.68586081266403,115.71436309814453,-0.14513282477856,-0.01509226672351,9.99108695983887,1.27581942081451,1.69873607158661,0.77590638399124
405,2581428370,-0.11744609475136,0.68453413248062,115.71512603759766,-0.14280723035336,-0.02913883700967,10.02611827850342,1.34841012954712,1.62555611133575,0.92236858606339
406,2581436703,-0.11729524284601,0.68476873636246,115.71662902832031,-0.13195753097534,-0.00025461334735,10.05110740661621,1.34902477264404,1.80677700042725,0.80997329950333
407,2581445036,-0.11827637255192,0.68506497144699,115.71701049804688,-0.12596946954727,-0.01253321580589,10.01621818542480,1.21608698368073,1.81927657127380,0.87470048666000
408,2581453369,-0.11896472424269,0.68548280000687,115.71803283691406,-0.12930244207382,-0.03055359981954,9.99743556976318,1.24779748916626,1.83023953437805,0.83983945846558
409,2581461702,-0.11875803768635,0.68576997518539,115.71775054931641,-0.13139840960503,-0.00055975461146,10.00435638427734,1.36014151573181,1.81907165050507,0.79370820522308
410,2581470035,-0.11812977492809,0.68775147199631,115.71866607666016,-0.13108332455158,-0.01973308436573,10.01933765411377,1.40681040287018,2.01627540588379,0.78169512748718
411,2581478368,-0.11860865354538,0.68798547983170,115.71849822998047,-0.09966673702002,-0.02479580417275,10.02171611785889,1.27866268157959,1.81353902816772,0.80930733680725
412,2581486701,-0.11862877756357,0.68932670354843,115.71974182128906,-0.13038827478886,-0.02240315452218,10.00940322875977,1.32740640640259,1.93922793865204,0.81673544645309
413,2581495034,-0.11882768571377,0.68932336568832,115.71930694580078,-0.11506788432598,-0.01739127747715,10.01291561126709,1.31272947788239,1.78503036499023,0.77452319860458
414,2581503367,-0.11836630105972,0.68942248821259,115.72115325927734,-0.12161370366812,-0.02588257007301,9.99485397338867,1.38560223579407,1.78989732265472,0.85720604658127
415,2581511700,-0.11842005699873,0.68819391727448,115.72079467773438,-0.13464480638504,-0.00599988270551,9.97927856445312,1.32812368869781,1.63726174831390,0.78633129596710
416,2581520033,-0.11828168481588,0.68857669830322,115.72151947021484,-0.12691156566143,-0.01598951779306,9.99981880187988,1.34746265411377,1.82557785511017,0.82078260183334
417,2581528366,-0.11788530647755,0.68836426734924,115.72171020507812,-0.15194731950760,-0.00870044156909,10.00430583953857,1.38350152969360,1.75857090950012,0.85182702541351
418,2581536699,-0.11795004457235,0.68853145837784,115.72254180908203,-0.14488862454891,-0.02659293450415,9.99222660064697,1.32264232635498,1.79916965961456,0.84188872575760
419,2581545032,-0.11782775819302,0.68900972604752,115.72283172607422,-0.12974707782269,0.00715919071808,10.01173114776611,1.34879434108734,1.84217572212219,0.86458295583725
420,2581553365,-0.11778923124075,0.68826383352280,115.72486877441406,-0.13637156784534,-0.03276651352644,10.01302433013916,1.33375883102417,1.68861842155457,0.91778361797333
421,2581561698,-0.11684069782495,0.68816596269608,115.72441864013672,-0.13432554900646,-0.01126178260893,10.03028011322021,1.45071351528168,1.77340161800385,0.77444636821747
422,2581570031,-0.11760392040014,0.68749302625656,115.72604370117188,-0.13163930177689,-0.01206000242382,9.99781322479248,1.23857629299164,1.69694304466248,0.85956245660782
423,2581578364,-0.11788307875395,0.68817275762558,115.72679138183594,-0.12679408490658,-0.01961641572416,9.97903156280518,1.30043482780457,1.86720108985901,0.92006343603134
424,2581586697,-0.11798651516438,0.68857318162918,115.72694396972656,-0.11094284057617,-0.01995776221156,10.00898265838623,1.31854403018951,1.82655119895935,0.78300160169601
425,2581595030,-0.11755973845720,0.68838137388229,115.72753143310547,-0.12745380401611,-0.02785634249449,10.01382637023926,1.38603746891022,1.76056873798370,0.89808630943298
426,2581603363,-0.11759463697672,0.68860530853271,115.72825622558594,-0.11683928221464,-0.00972799118608,10.01756477355957,1.32638192176819,1.80616199970245,0.81066489219666
427,2581611696,-0.11721912026405,0.68946909904480,115.72787475585938,-0.12223629653454,0.00827090069652,10.03245449066162,1.38088917732239,1.88753879070282,0.78561431169510
428,2581620029,-0.11727137118578,0.68954402208328,115.72853851318359,-0.13520358502865,-0.00899182911962,9.96826362609863,1.32538306713104,1.78815555572510,0.73243916034698
429,2581628362,-0.11734677106142,0.69003558158875,115.72866058349609,-0.11668192595243,-0.03097798489034,9.98375415802002,1.32699668407440,1.84389173984528,0.84690916538239
430,2581636695,-0.11697480827570,0.69089293479919,115.72955322265625,-0.12900365889072,-0.01156075485051,10.01071071624756,1.37479281425476,1.88157045841217,0.83325666189194
431,2581645028,-0.11707904934883,0.69110977649689,115.72967529296875,-0.15533342957497,-0.02424358949065,10.01674556732178,1.32318019866943,1.81097769737244,0.84153014421463
432,2581653361,-0.11739069223404,0.69052171707153,115.73012542724609,-0.12606541812420,-0.01446432806551,9.99925136566162,1.29108548164368,1.70767533779144,0.86714428663254
433,2581661694,-0.11769489943981,0.68972516059875,115.73043823242188,-0.12056141346693,-0.01537361554801,9.99295902252197,1.29894912242889,1.68933558464050,0.86506950855255
434,2581670027,-0.11781773716211,0.68901991844177,115.73120117187500,-0.13113968074322,-0.01869844831526,10.01282787322998,1.31700706481934,1.69312644004822,0.81005012989044
435,2581678360,-0.11787217855453,0.68936759233475,115.73040008544922,-0.12010206282139,-0.02950574457645,10.00250911712646,1.32999360561371,1.82749891281128,0.73108154535294
436,2581686693,-0.11842481046915,0.69052463769913,115.73126983642578,-0.12358476221561,-0.01421892456710,10.03078842163086,1.26465153694153,1.91584241390228,0.79427188634872
437,2581695026,-0.11839978396893,0.69149452447891,115.73120117187500,-0.11190385371447,-0.02384625561535,10.01306629180908,1.33849740028381,1.90180575847626,0.81886154413223
438,2581703359,-0.11811239272356,0.69131702184677,115.73257446289062,-0.12165451794863,-0.01078257616609,10.02976512908936,1.36562299728394,1.75703394412994,0.79539883136749
439,2581711692,-0.11899115145206,0.69130998849869,115.73180389404297,-0.11001244932413,0.00129048468079,10.00640583038330,1.22996997833252,1.78449273109436,0.73710083961487
440,2581720025,-0.11972162127495,0.69045805931091,115.73300933837891,-0.12391018867493,-0.00360078946687,10.00570201873779,1.24300765991211,1.67686164379120,0.80336493253708
441,2581728358,-0.11996861547232,0.69012552499771,115.73303222656250,-0.12917333841324,-0.02375723607838,10.00546836853027,1.30571126937866,1.74550783634186,0.83197593688965
442,2581736691,-0.11920705437660,0.69110906124115,115.73339080810547,-0.12825120985508,-0.00224540126510,10.00034618377686,1.42361354827881,1.89619624614716,0.74020022153854
443,2581745024,-0.11873397231102,0.69200474023819,115.73339080810547,-0.12033783644438,-0.01197817828506,9.99890327453613,1.39203131198883,1.89271283149719,0.82897913455963
444,2581753357,-0.11922143399715,0.69162845611572,115.73464965820312,-0.13526220619678,-0.03319196030498,9.99775028228760,1.27164423465729,1.73398137092590,0.84693467617035
445,2581761690,-0.11944305151701,0.69078260660172,115.73456573486328,-0.12502016127110,-0.03248706459999,10.01411819458008,1.30973279476166,1.68244528770447,0.81857973337173
446,2581770023,-0.11918275058270,0.69247293472290,115.73568725585938,-0.12571290135384,-0.01682486385107,10.00560379028320,1.36055147647858,1.98202955722809,0.81993728876114
447,2581778356,-0.11890345811844,0.69195747375488,115.73549652099609,-0.14756865799427,-0.02213129773736,9.99110317230225,1.36918342113495,1.72304391860962,0.80551642179489
448,2581786689,-0.11907758563757,0.69110560417175,115.73698425292969,-0.12904229760170,-0.01109002809972,10.00380039215088,1.31103909015656,1.67606747150421,0.82226818799973
449,2581795022,-0.11972296983004,0.69039160013199,115.73752593994141,-0.11597234010696,-0.02103398926556,9.96223163604736,1.25650632381439,1.69881284236908,0.89370626211166
450,2581803355,-0.11919117718935,0.68892645835876,115.73859405517578,-0.12010966986418,-0.00547252409160,10.01257133483887,1.39533543586731,1.60250341892242,0.80915361642838
451,2581811688,-0.11973056197166,0.68809562921524,115.73871612548828,-0.12028292566538,-0.01157225389034,10.00614738464355,1.27056860923767,1.68477642536163,0.84416842460632
452,2581820021,-0.12066831439734,0.68878096342087,115.74007415771484,-0.11300786584616,0.00826316513121,10.00928592681885,1.21790552139282,1.86264145374298,0.81668430566788
453,2581828354,-0.12074285745621,0.68858855962753,115.74023437500000,-0.12316308915615,-0.00457584531978,10.00419235229492,1.32653558254242,1.76087617874146,0.85075116157532
454,2581836687,-0.12126112729311,0.68965226411819,115.74052429199219,-0.11948061734438,-0.00858757551759,10.02581024169922,1.26785349845886,1.90746653079987,0.74534869194031
455,2581845020,-0.12137232720852,0.68948751688004,115.74075317382812,-0.12398450821638,-0.03791547194123,9.98218727111816,1.32302653789520,1.76459038257599,0.85697543621063
456,2581853353,-0.12123788893223,0.69042080640793,115.74124145507812,-0.11094973981380,-0.02459510043263,10.04034805297852,1.34692478179932,1.89135515689850,0.76394462585449
457,2581861686,-0.12146542966366,0.69063562154770,115.74177551269531,-0.10928340256214,-0.01600507274270,9.99207305908203,1.30729937553406,1.80946660041809,0.89355260133743
458,2581870019,-0.12083788216114,0.69163691997528,115.74254608154297,-0.12406575679779,-0.01307343412191,10.01642608642578,1.40547883510590,1.89991044998169,0.80656665563583
459,2581878352,-0.12059596925974,0.69144433736801,115.74205017089844,-0.12019020318985,-0.02095059864223,10.03295612335205,1.36603283882141,1.76292538642883,0.77088612318039
460,2581886685,-0.12077216804028,0.69083535671234,115.74311828613281,-0.12744571268559,-0.00155780767091,10.01776790618896,1.30898988246918,1.70626652240753,0.79142862558365
461,2581895018,-0.12016054242849,0.69136357307434,115.74351501464844,-0.13963496685028,-0.01090173982084,9.98799228668213,1.40811705589294,1.84714508056641,0.87657040357590
462,2581903351,-0.12077679485083,0.69154703617096,115.74300384521484,-0.12341650575399,-0.01731144078076,10.00955867767334,1.25824797153473,1.80165410041809,0.72319227457047
463,2581911684,-0.12092678248882,0.69253009557724,115.74325561523438,-0.12432304024696,-0.01874256879091,9.99521827697754,1.31693029403687,1.90329158306122,0.86030536890030
464,2581920017,-0.12053380161524,0.69217401742935,115.74638366699219,-0.11431729048491,-0.02098183706403,10.03971862792969,1.37525391578674,1.73638916015625,0.98660922050476
465,2581928350,-0.12040208280087,0.69309097528458,115.74626922607422,-0.10424432903528,-0.01659872569144,10.01318931579590,1.35238051414490,1.89368617534637,0.81519871950150
466,2581936683,-0.11994539201260,0.69230544567108,115.74739074707031,-0.10755343735218,-0.02360588125885,10.01396942138672,1.38411653041840,1.68659508228302,0.87267696857452
467,2581945016,-0.12060353159904,0.69134891033173,115.74655914306641,-0.12666650116444,-0.00910293404013,10.01816940307617,1.25747966766357,1.66889548301697,0.73085099458694
468,2581953349,-0.12041084468365,0.69240593910217,115.74736785888672,-0.10974603146315,-0.00538805313408,10.01287364959717,1.35360991954803,1.90800440311432,0.80308312177658
469,2581961682,-0.12009784579277,0.69265156984329,115.74768066406250,-0.11962676048279,-0.01589607261121,9.99094295501709,1.37335848808289,1.81333434581757,0.86627346277237
470,2581970015,-0.11982214450836,0.69114667177200,115.74789428710938,-0.11717440187931,-0.01184525154531,9.99506187438965,1.36403489112854,1.59889185428619,0.81143343448639
471,2581978348,-0.11999767273664,0.69075316190720,115.74859619140625,-0.13676913082600,-0.01276519894600,10.01358318328857,1.31247353553772,1.73825895786285,0.91202044487000
472,2581986681,-0.11996424198151,0.69044399261475,115.74828338623047,-0.13302846252918,-0.01559531409293,10.00551700592041,1.33491134643555,1.74240827560425,0.76519960165024
473,2581995014,-0.11990355700254,0.69006079435349,115.74789428710938,-0.11923278123140,-0.01829403452575,10.00607681274414,1.34351766109467,1.73971879482269,0.78394919633865
474,2582003347,-0.11918832361698,0.69079196453094,115.74818420410156,-0.11495365202427,-0.02537300065160,9.99293231964111,1.41631352901459,1.86720085144043,0.81051117181778
475,2582011680,-0.11919414997101,0.69059175252914,115.74792480468750,-0.14739777147770,-0.00976464059204,9.99906253814697,1.33511638641357,1.76038944721222,0.79729425907135
476,2582020013,-0.11950013786554,0.69012331962585,115.74815368652344,-0.12996995449066,-0.00753999641165,10.01628875732422,1.29920542240143,1.72970378398895,0.85735970735550
477,2582028346,-0.11795095354319,0.69054800271988,115.75685882568359,-0.12701548635960,-0.03841473162174,10.00346755981445,1.32983982563019,1.72178876399994,0.81197118759155
478,2582036679,-0.11771044135094,0.69144159555435,115.75778961181641,-0.13752354681492,-0.03364988788962,10.00957298278809,1.36088430881500,1.88710319995880,0.81271415948868
479,2582045012,-0.11772084981203,0.69179970026016,115.75806427001953,-0.13726842403412,-0.01851102896035,10.03458499908447,1.33165848255157,1.82757568359375,0.85810256004333
480,2582053345,-0.11753765493631,0.69214195013046,115.75910949707031,-0.11692102253437,-0.01675555296242,10.02814388275146,1.35348176956177,1.82117223739624,0.87462371587753
481,2582061678,-0.11692523956299,0.69196760654449,115.75969696044922,-0.11507121473551,-0.02594578266144,9.98899650573730,1.40632390975952,1.76315581798553,0.89716416597366
482,2582070011,-0.11704755574465,0.68976461887360,115.75971221923828,-0.11599960178137,-0.01530150044709,10.02172756195068,1.31726336479187,1.51541519165039,0.78643387556076
483,2582078344,-0.11670777946711,0.68989866971970,115.75971221923828,-0.13623917102814,0.00266842171550,10.02526473999023,1.37584316730499,1.80014288425446,0.82439422607422
484,2582086677,-0.11588628590107,0.69068098068237,115.76012420654297,-0.11619658023119,-0.00752745615318,9.98846530914307,1.42835211753845,1.87360441684723,0.80943548679352
485,2582095010,-0.11611994355917,0.69076251983643,115.76031494140625,-0.11948332190514,-0.01900767534971,10.00084877014160,1.30688953399658,1.79504549503326,0.84660166501999
486,2582103343,-0.11566075682640,0.69104099273682,115.76119995117188,-0.12955492734909,-0.02415023930371,9.99873161315918,1.38585829734802,1.81333434581757,0.82936328649521
487,2582111676,-0.11534627526999,0.69122809171677,115.76135253906250,-0.12072629481554,-0.01224284525961,10.01400184631348,1.37161684036255,1.80623900890350,0.84365612268448
488,2582120009,-0.11555111408234,0.69295459985733,115.76185607910156,-0.12460313737392,-0.01015243213624,9.99523830413818,1.30663347244263,1.98717784881592,0.83740615844727
489,2582128342,-0.11587069183588,0.69207823276520,115.76214599609375,-0.13824455440044,-0.02024005912244,10.01548767089844,1.29620826244354,1.67924356460571,0.85810244083405
490,2582136675,-0.11574915051460,0.69236505031586,115.76292419433594,-0.12273786962032,-0.01537839323282,10.02111911773682,1.34426069259644,1.81469190120697,0.86455732584000
491,2582145008,-0.11620673537254,0.69126325845718,115.76299285888672,-0.14694844186306,-0.00986168812960,10.00318241119385,1.28055799007416,1.65227174758911,0.83374333381653
492,2582153341,-0.11623953282833,0.69210457801819,115.76448059082031,-0.12279865890741,0.00552035868168,9.99029350280762,1.32474267482758,1.87916290760040,0.89145231246948
493,2582161674,-0.11639145761728,0.69259905815125,115.76448059082031,-0.12381751090288,-0.02107274346054,10.02119731903076,1.31652045249939,1.84494233131409,0.82513701915741
494,2582170007,-0.11602873355150,0.69218981266022,115.76373291015625,-0.13913577795029,-0.01724576391280,9.99155426025391,1.37615060806274,1.72970378398895,0.68981707096100
495,2582178340,-0.11499354988337,0.69235354661942,115.76406097412109,-0.12575779855251,-0.01519851572812,9.98424625396729,1.45934545993805,1.80472767353058,0.86271303892136
496,2582186673,-0.11524707823992,0.69179028272629,115.76404571533203,-0.14106713235378,-0.01357949245721,10.00864696502686,1.30028104782104,1.71246552467346,0.76140880584717
497,2582195006,-0.11551381647587,0.69209229946136,115.76438903808594,-0.12791131436825,-0.01591651141644,10.01475143432617,1.30179238319397,1.82117223739624,0.86483907699585
498,2582203339,-0.11570854485035,0.69259220361710,115.76464843750000,-0.10884943604469,0.00073391967453,10.01043128967285,1.30770921707153,1.83789801597595,0.80684846639633
499,2582211672,-0.11517702788115,0.69332903623581,115.76472473144531,-0.13697886466980,-0.00544244796038,10.00422859191895,1.39920330047607,1.87434732913971,0.83405071496964
500,2582220005,-0.11452207714319,0.69434309005737,115.76464843750000,-0.13255007565022,-0.01387359108776,10.01548099517822,1.40891098976135,1.90075540542603,0.77419024705887
501,2582228338,-0.11485756933689,0.69471108913422,115.76413726806641,-0.12158587574959,-0.02487375587225,10.00373840332031,1.29561924934387,1.82795965671539,0.76212596893311
502,2582236671,-0.11445955187082,0.69511145353317,115.76505279541016,-0.14535953104496,-0.02721366658807,10.02181911468506,1.37791764736176,1.82752430438995,0.83671456575394
503,2582245004,-0.11369162052870,0.69536912441254,115.76496124267578,-0.12538275122643,-0.01901373453438,9.96655082702637,1.42681527137756,1.81668972969055,0.81412285566330
504,2582253337,-0.11366128921509,0.69526576995850,115.76532745361328,-0.12787887454033,-0.00805711559951,9.98233604431152,1.33537244796753,1.76646029949188,0.80561894178391
505,2582261670,-0.11322235316038,0.69542431831360,115.76563262939453,-0.12908691167831,-0.00505291810259,10.01392173767090,1.38721585273743,1.80377995967865,0.85992103815079
506,2582270003,-0.11261274665594,0.69562828540802,115.76648712158203,-0.12518228590488,-0.01050368137658,10.01737022399902,1.40276360511780,1.80406177043915,0.87411135435104
507,2582278336,-0.11245131492615,0.69558066129684,115.76679992675781,-0.14031665027142,-0.01558260992169,10.01088142395020,1.35343062877655,1.77865254878998,0.86222630739212
508,2582286669,-0.11300266534090,0.69508880376816,115.76733398437500,-0.12196711450815,-0.00978110171854,10.00763416290283,1.26375508308411,1.72022640705109,0.82298535108566
509,2582295002,-0.11247137933969,0.69484406709671,115.76773071289062,-0.11815375089645,-0.01403304748237,9.98678588867188,1.39820444583893,1.75472891330719,0.87139636278152
510,2582303335,-0.11241187900305,0.69541460275650,115.76850891113281,-0.11439749598503,-0.01728610694408,10.03270149230957,1.33795952796936,1.84842550754547,0.83138686418533
511,2582311668,-0.11223518848419,0.69556456804276,115.76837158203125,-0.10460019856691,0.00333898374811,10.04351425170898,1.35622239112854,1.80234563350677,0.80861574411392
512,2582320001,-0.11258456856012,0.69637477397919,115.76992034912109,-0.14742788672447,-0.03062430582941,10.02524280548096,1.28629577159882,1.87678086757660,0.90387523174286
513,2582328334,-0.11259879171848,0.69602280855179,115.77065277099609,-0.12492587417364,-0.02304995059967,10.00566196441650,1.33258068561554,1.74248528480530,0.91212302446365
514,2582336667,-0.11203154921532,0.69620376825333,115.77045440673828,-0.13508974015713,-0.02171963080764,9.99354934692383,1.40017676353455,1.80055272579193,0.76727449893951
515,2582345000,-0.11182656884193,0.69690907001495,115.77014923095703,-0.14290323853493,-0.01577480323613,9.99241256713867,1.35968029499054,1.86881446838379,0.78909760713577
516,2582353333,-0.11155595630407,0.69764751195908,115.77079010009766,-0.14755873382092,-0.01991226524115,10.00391292572021,1.36306154727936,1.86827659606934,0.81240665912628
517,2582361666,-0.11213280260563,0.69714021682739,115.77013397216797,-0.11186665296555,-0.01977747865021,9.99250984191895,1.26588118076324,1.72481143474579,0.74726974964142
518,2582369999,-0.11236809939146,0.69690513610840,115.77056121826172,-0.13999728858471,-0.00667698867619,9.99527263641357,1.30309867858887,1.75157833099365,0.84224736690521
519,2582378332,-0.11261578649282,0.69765508174896,115.77142333984375,-0.12757734954357,-0.02138006687164,9.98785209655762,1.30274009704590,1.87286174297333,0.92823433876038
520,2582386665,-0.11215849965811,0.69760161638260,115.77182006835938,-0.13601674139500,-0.02439011074603,10.02661895751953,1.38637042045593,1.77347838878632,0.83863568305969
521,2582394998,-0.11225231736898,0.69651484489441,115.77199554443359,-0.10792355239391,-0.01650454476476,9.99479770660400,1.32277035713196,1.65411627292633,0.84698599576950
522,2582403331,-0.11227902770042,0.69765448570251,115.77315521240234,-0.13602735102177,-0.02585005015135,9.97576808929443,1.32666373252869,1.91625225543976,0.88817363977432
523,2582411664,-0.11203995347023,0.69804692268372,115.77308654785156,-0.14104774594307,-0.01937474682927,10.01955699920654,1.36375319957733,1.83223748207092,0.81271409988403
524,2582419997,-0.11276807636023,0.69651508331299,115.77405548095703,-0.12384300678968,0.00501410569996,9.97892856597900,1.24311017990112,1.59494733810425,0.82979875802994
525,2582428330,-0.11281444877386,0.69626295566559,115.77359008789062,-0.12218990921974,-0.00386273069307,9.98616313934326,1.32978844642639,1.75367856025696,0.76837581396103
526,2582436663,-0.11341689527035,0.69665139913559,115.77359008789062,-0.13608744740486,-0.01137287076563,9.95773410797119,1.25906777381897,1.82721710205078,0.77780181169510
527,2582444996,-0.11405218392611,0.69680565595627,115.77358245849609,-0.13217227160931,-0.01246080547571,9.98864173889160,1.25840163230896,1.80170536041260,0.82354879379272
528,2582453329,-0.11444734781981,0.69669461250305,115.77426147460938,-0.11984951049089,-0.02715190500021,9.98129367828369,1.28245353698730,1.76684451103210,0.86486470699310
529,2582461662,-0.11339595913887,0.69784736633301,115.77441406250000,-0.13032810389996,-0.02485031634569,9.99871826171875,1.46175324916840,1.92303979396820,0.84452688694000
530,2582469995,-0.11320910602808,0.69705212116241,115.77479553222656,-0.13668113946915,-0.00905367359519,10.00230312347412,1.35307192802429,1.68254780769348,0.80505537986755
531,2582478328,-0.11325958371162,0.69670134782791,115.77479553222656,-0.12870529294014,-0.00990507937968,10.01887130737305,1.32907140254974,1.74353528022766,0.82326710224152
532,2582486661,-0.11357232183218,0.69648027420044,115.77555847167969,-0.13163532316685,-0.03515373542905,10.02363777160645,1.29170024394989,1.75162935256958,0.89104235172272
533,2582494994,-0.11314491182566,0.69593590497971,115.77576446533203,-0.13143230974674,-0.04229915142059,10.02684879302979,1.38588392734528,1.72002160549164,0.84824109077454
534,2582503327,-0.11357860267162,0.69622355699539,115.77664184570312,-0.12797522544861,-0.01190443057567,9.98360824584961,1.27848339080811,1.81376981735229,0.87370151281357
535,2582511660,-0.11302390694618,0.69525486230850,115.77696990966797,-0.11199760437012,-0.02133233100176,10.03016376495361,1.40125238895416,1.66764056682587,0.86368644237518
536,2582519993,-0.11345517635345,0.69394421577454,115.77716827392578,-0.13980576395988,0.00447807926685,10.00914669036865,1.27935409545898,1.62291789054871,0.75044584274292
537,2582528326,-0.11334986239672,0.69430476427078,115.77755737304688,-0.12300832569599,-0.00332198943943,10.00166034698486,1.34671974182129,1.82795965671539,0.87114024162292
538,2582536659,-0.11404569447041,0.69503855705261,115.77764892578125,-0.13335566222668,-0.00717903254554,9.97517299652100,1.24895024299622,1.86597168445587,0.78156721591949
539,2582544992,-0.11396895349026,0.69538956880569,115.77751159667969,-0.12414127588272,-0.01793053559959,10.04143238067627,1.34295439720154,1.82811355590820,0.80835974216461
540,2582553325,-0.11403585225344,0.69533908367157,115.77738952636719,-0.13034898042679,-0.01597499102354,10.00185489654541,1.32279586791992,1.77181339263916,0.78850859403610
541,2582561658,-0.11349987238646,0.69608253240585,115.77833557128906,-0.14387594163418,-0.03447351977229,9.99325847625732,1.39812755584717,1.87427055835724,0.93497085571289
542,2582569991,-0.11318429559469,0.69694447517395,115.77920532226562,-0.11594200879335,-0.05207576602697,10.00344848632812,1.36997735500336,1.88256967067719,0.82552117109299
543,2582578324,-0.11404422670603,0.69674587249756,115.77946472167969,-0.14338049292564,-0.03816557675600,10.01166248321533,1.23035407066345,1.76041507720947,0.85669368505478
544,2582586657,-0.11469709873199,0.69613748788834,115.77998352050781,-0.14269804954529,-0.02410594746470,10.00699615478516,1.25281774997711,1.70611286163330,0.83978825807571
545,2582594990,-0.11536112427711,0.69757616519928,115.77967071533203,-0.12956309318542,-0.03244265541434,10.01028347015381,1.25496935844421,1.95692753791809,0.78871351480484
546,2582603323,-0.11605107784271,0.69864070415497,115.78058624267578,-0.13506972789764,-0.01766652613878,10.00842761993408,1.24841237068176,1.90608346462250,0.87987464666367
547,2582611656,-0.11563950777054,0.69847804307938,115.78054809570312,-0.12939958274364,-0.01764371432364,10.01351547241211,1.38473129272461,1.76497459411621,0.81986045837402
548,2582619989,-0.11587943136692,0.69934219121933,115.78072357177734,-0.11939916014671,-0.02026484906673,10.01393127441406,1.30373907089233,1.88372218608856,0.74176269769669
549,2582628322,-0.11585010588169,0.69975978136063,115.78032684326172,-0.13699679076672,-0.02675005421042,10.01089000701904,1.33903539180756,1.83510649204254,0.77826291322708
550,2582636655,-0.11644046753645,0.69874817132950,115.78077697753906,-0.12654489278793,-0.01952441968024,9.99910926818848,1.25940072536469,1.65678012371063,0.84142768383026
551,2582644988,-0.11596816778183,0.70078903436661,115.78124237060547,-0.13412389159203,-0.02960456162691,10.04246997833252,1.39082717895508,2.03010725975037,0.88179564476013
552,2582653321,-0.11607674509287,0.70090866088867,115.78198242187500,-0.11050305515528,-0.00959527958184,10.02000331878662,1.31818532943726,1.79332935810089,0.84327179193497
553,2582661654,-0.11629150807858,0.70054399967194,115.78186798095703,-0.12817385792732,-0.01420016214252,9.98135471343994,1.31057810783386,1.74079477787018,0.81099802255630
554,2582669987,-0.11608290672302,0.70046395063400,115.78226470947266,-0.14704653620720,-0.01313558407128,9.97907161712646,1.35486495494843,1.76899588108063,0.87198531627655
555,2582678320,-0.11609227210283,0.70081156492233,115.78276062011719,-0.10468989610672,-0.01352742966264,10.02483367919922,1.33286237716675,1.82642316818237,0.88374239206314
556,2582686653,-0.11578904837370,0.70075446367264,115.78353881835938,-0.12108644098043,-0.02412599511445,10.00008392333984,1.36872231960297,1.77311968803406,0.86458295583725
557,2582694986,-0.11506588011980,0.70111930370331,115.78362274169922,-0.12051773071289,-0.01943964697421,9.99274539947510,1.42048859596252,1.82747328281403,0.83576685190201
558,2582703319,-0.11480455845594,0.70190399885178,115.78442382812500,-0.12218447774649,-0.01420710515231,10.02415275573730,1.36203694343567,1.87409126758575,0.86847633123398
559,2582711652,-0.11464951932430,0.70201462507248,115.78462982177734,-0.13322472572327,-0.01991768367589,10.01450824737549,1.35430145263672,1.79758131504059,0.84903508424759
560,2582719985,-0.11515311151743,0.70121461153030,115.78554534912109,-0.12011760473251,-0.01597392931581,10.00908184051514,1.26936459541321,1.68295764923096,0.89854735136032
561,2582728318,-0.11480830609798,0.70015358924866,115.78628540039062,-0.10883016139269,-0.01815180107951,10.01523590087891,1.37615036964417,1.65706169605255,0.91276323795319
562,2582736651,-0.11437404155731,0.69974100589752,115.78689575195312,-0.12883701920509,-0.00080972246360,9.99038124084473,1.38347613811493,1.73070275783539,0.84831792116165
563,2582744984,-0.11415356397629,0.69914865493774,115.78652954101562,-0.12476608902216,-0.01797155290842,9.98797225952148,1.36167824268341,1.71282386779785,0.77854466438293
564,2582753317,-0.11438636481762,0.69985347986221,115.78668975830078,-0.11845470964909,-0.01781264878809,9.97825241088867,1.30317544937134,1.86476743221283,0.83830261230469
565,2582761650,-0.11476940661669,0.69833433628082,115.78694915771484,-0.09987894445658,-0.02564978972077,10.00483512878418,1.28801190853119,1.60101771354675,0.85510557889938
566,2582769983,-0.11437489092350,0.69908291101456,115.78665161132812,-0.13460063934326,-0.03338114172220,10.03099632263184,1.37971091270447,1.87006974220276,0.74319708347321
567,2582778316,-0.11399336159229,0.69834333658218,115.78717041015625,-0.11273413151503,-0.01891082152724,10.00889873504639,1.38104259967804,1.69527804851532,0.88812237977982
568,2582786649,-0.11454874277115,0.69947171211243,115.78652954101562,-0.12092509865761,-0.03387114778161,10.00257396697998,1.26457488536835,1.91640591621399,0.76335549354553
569,2582794982,-0.11376568675041,0.69856387376785,115.78654479980469,-0.13354033231735,-0.01397565566003,9.98966693878174,1.42963302135468,1.67524802684784,0.82375383377075
570,2582803315,-0.11374734342098,0.69894850254059,115.78656768798828,-0.13148233294487,-0.01799792051315,10.00591087341309,1.33411753177643,1.82580840587616,0.80487608909607
571,2582811648,-0.11323474347591,0.69851475954056,115.78680419921875,-0.12532000243664,-0.01248057559133,10.01049709320068,1.39502799510956,1.73239314556122,0.85095608234406
572,2582819981,-0.11303194612265,0.69804495573044,115.78696441650391,-0.12716348469257,-0.00445923162624,10.03222465515137,1.35629940032959,1.72345376014709,0.81396913528442
573,2582828314,-0.11359696090221,0.69769275188446,115.78665161132812,-0.12016125023365,-0.04147771000862,10.00283050537109,1.26844239234924,1.74146056175232,0.78658747673035
574,2582836647,-0.11394596844912,0.69857025146484,115.78749847412109,-0.13863231241703,-0.04279419034719,9.99707889556885,1.28921568393707,1.88630914688110,0.88379359245300
575,2582844980,-0.11385122686625,0.69879561662674,115.78791046142578,-0.13571389019489,-0.03304819390178,9.98763656616211,1.34513151645660,1.81125926971436,0.87249767780304
576,2582853313,-0.11360318958759,0.69915211200714,115.78803253173828,-0.13096222281456,-0.02509934082627,10.01408004760742,1.36129403114319,1.82196605205536,0.83855879306793
577,2582861646,-0.11346147954464,0.69948512315750,115.78787994384766,-0.12538400292397,-0.03209959715605,10.00516986846924,1.35222685337067,1.82550108432770,0.80800104141235
578,2582869979,-0.11249312013388,0.69968700408936,115.78777313232422,-0.12676502764225,-0.02451859228313,10.02330875396729,1.44989371299744,1.80308842658997,0.79201775789261
579,2582878312,-0.11284465342760,0.69940769672394,115.78787994384766,-0.12465902417898,-0.00951036997139,10.00940036773682,1.29154658317566,1.75186014175415,0.83561313152313
580,2582886645,-0.11313037574291,0.69869828224182,115.78803253173828,-0.13254393637180,-0.02912697009742,10.01116943359375,1.29777085781097,1.69404864311218,0.83607423305511
581,2582894978,-0.11392050981522,0.69830822944641,115.78748321533203,-0.12658226490021,-0.02367405779660,9.98214340209961,1.24098420143127,1.73777234554291,0.75838625431061
582,2582903311,-0.11329344660044,0.69915837049484,115.78771972656250,-0.13635131716728,-0.02697732485831,10.01518154144287,1.40791201591492,1.88200616836548,0.81896400451660
583,2582911644,-0.11355257779360,0.70026880502701,115.78773498535156,-0.12312439829111,-0.03469289094210,10.03925132751465,1.30325222015381,1.91743052005768,0.82546997070312
584,2582919977,-0.11423014104366,0.69961434602737,115.78787994384766,-0.13768500089645,-0.03455581516027,10.03022289276123,1.25217747688293,1.70050334930420,0.83230900764465
585,2582928310,-0.11436967551708,0.69946110248566,115.78779602050781,-0.12327737361193,-0.03498565033078,10.00504016876221,1.31682777404785,1.76646006107330,0.81537795066833
586,2582936643,-0.11482488363981,0.69889372587204,115.78827667236328,-0.12638986110687,-0.03321445360780,10.01986885070801,1.27850890159607,1.71151745319366,0.83866125345230
587,2582944976,-0.11464041471481,0.69743597507477,115.78826141357422,-0.14497864246368,-0.02333603054285,9.99592399597168,1.35681176185608,1.60895836353302,0.82260119915009
588,2582953309,-0.11461704224348,0.69813674688339,115.78823852539062,-0.12944471836090,-0.02042292617261,10.03578186035156,1.33503949642181,1.86451125144958,0.83917355537415
589,2582961642,-0.11405188590288,0.69900250434875,115.78775787353516,-0.11357292532921,-0.01493888534606,10.01388740539551,1.40419805049896,1.88751292228699,0.76571196317673
590,2582969975,-0.11387083679438,0.69901025295258,115.78851318359375,-0.13555844128132,-0.00840364024043,9.97308540344238,1.35432696342468,1.78211033344269,0.85039258003235
591,2582978308,-0.11332384496927,0.69867771863937,115.78797912597656,-0.12571127712727,-0.00045207189396,10.00221157073975,1.40117561817169,1.74399650096893,0.76066601276398
592,2582986641,-0.11367157101631,0.69865173101425,115.78820800781250,-0.12095525860786,-0.00094796088524,10.00172615051270,1.29026579856873,1.77644968032837,0.82436853647232
593,2582994974,-0.11359569430351,0.69938367605209,115.78867340087891,-0.10069239139557,-0.02265853248537,9.98942089080811,1.34374833106995,1.87176048755646,0.88064306974411
594,2583003307,-0.11364310234785,0.70014733076096,115.78901672363281,-0.11114561557770,-0.04347359761596,10.02834033966064,1.32586967945099,1.87224709987640,0.87759500741959
595,2583011640,-0.11334382742643,0.69996207952499,115.78900146484375,-0.13834320008755,-0.01920381002128,10.02742767333984,1.37066900730133,1.76202893257141,0.82326716184616
596,2583019973,-0.11333697289228,0.70070177316666,115.78878021240234,-0.11805178225040,-0.02097259648144,10.01083374023438,1.33468103408813,1.86822557449341,0.78461527824402
597,2583028306,-0.11333482712507,0.70076411962509,115.78818511962891,-0.11185254901648,-0.03375233337283,9.98415470123291,1.33611524105072,1.79217672348022,0.75290477275848
598,2583036639,-0.11379116773605,0.70133703947067,115.78758239746094,-0.13961252570152,-0.03405059129000,10.01226139068604,1.27815043926239,1.84883558750153,0.78297597169876
599,2583044972,-0.11245408654213,0.70209395885468,115.78767395019531,-0.12869247794151,-0.00404267385602,10.00895214080811,1.49418091773987,1.87547409534454,0.83633047342300
600,2583053305,-0.11262469738722,0.70270621776581,115.78816986083984,-0.13484087586403,-0.00130304764025,9.99525833129883,1.31239664554596,1.85344588756561,0.85297971963882
601,2583061638,-0.11276119202375,0.70251750946045,115.78811645507812,-0.12148252129555,-0.02520372159779,10.02334403991699,1.31849265098572,1.76213097572327,0.81763190031052
602,2583069971,-0.11242949217558,0.70329350233078,115.78808593750000,-0.11141854524612,-0.00938137248158,10.00858783721924,1.37294852733612,1.87281036376953,0.82695555686951
603,2583078304,-0.11197318881750,0.70345503091812,115.78890991210938,-0.13477723300457,-0.00539177237079,10.01070976257324,1.38918805122375,1.80372869968414,0.92300891876221
604,2583086637,-0.11168287694454,0.70316708087921,115.78941345214844,-0.14096659421921,-0.01281448919326,10.00571632385254,1.36695492267609,1.74681401252747,0.86530011892319
605,2583094970,-0.11107688397169,0.70359873771667,115.78936004638672,-0.12058138102293,-0.01133026462048,10.00184154510498,1.40691316127777,1.83492696285248,0.81875908374786
606,2583103303,-0.11114233732224,0.70288050174713,115.78952026367188,-0.12438371032476,-0.00386624922976,9.99910736083984,1.32438421249390,1.69445860385895,0.81724780797958
607,2583111636,-0.11142344772816,0.70242303609848,115.78916931152344,-0.12100216001272,-0.02961908467114,10.02031135559082,1.30215072631836,1.72952425479889,0.78210502862930
608,2583119969,-0.11103518307209,0.70192152261734,115.78993225097656,-0.12883009016514,-0.02022647298872,10.03342342376709,1.37871181964874,1.72012388706207,0.89265602827072
609,2583128302,-0.11116996407509,0.70180004835129,115.79012298583984,-0.13001585006714,-0.03036061674356,10.00899410247803,1.31815958023071,1.76922619342804,0.84862518310547
610,2583136635,-0.11130945384502,0.70204806327820,115.78968811035156,-0.10892347246408,-0.02689273655415,10.02371120452881,1.31652033329010,1.81000423431396,0.78505069017410
611,2583144968,-0.11084818840027,0.70297473669052,115.78987884521484,-0.11884717643261,-0.00833492726088,10.01853752136230,1.39075052738190,1.89663171768188,0.84519284963608
612,2583153301,-0.11096113920212,0.70331442356110,115.78915405273438,-0.11388424038887,-0.02461508661509,10.00899791717529,1.32077240943909,1.82071089744568,0.71719855070114
613,2583161634,-0.11130321025848,0.70343548059464,115.78990173339844,-0.14836852252483,-0.02107772417367,9.99998664855957,1.29246866703033,1.79909276962280,0.91570895910263
614,2583169967,-0.11215897649527,0.70283943414688,115.79031372070312,-0.14247481524944,-0.01028159074485,10.01886177062988,1.23045659065247,1.70816206932068,0.84534657001495
615,2583178300,-0.11258638650179,0.70301908254623,115.78965759277344,-0.14220163226128,-0.02621087431908,9.99538040161133,1.28337562084198,1.80577778816223,0.74642437696457
616,2583186633,-0.11274953931570,0.70265269279480,115.78968811035156,-0.14128522574902,-0.01863471604884,9.99892044067383,1.31354916095734,1.73718297481537,0.83054155111313
617,2583194966,-0.11335425823927,0.70201349258423,115.79022979736328,-0.12833037972450,-0.00811841059476,10.02079582214355,1.26155233383179,1.70649707317352,0.88919812440872
618,2583203299,-0.11290549486876,0.70349842309952,115.79017639160156,-0.13501159846783,-0.02107943594456,10.01825046539307,1.38780486583710,1.95920717716217,0.81156140565872
619,2583211632,-0.11228439956903,0.70506173372269,115.78962707519531,-0.11832604557276,-0.00595018453896,10.01777267456055,1.40901350975037,1.97180950641632,0.75976949930191
620,2583219965,-0.11164603382349,0.70574551820755,115.78952026367188,-0.11659947037697,-0.00366753945127,9.99042606353760,1.41055035591125,1.86202681064606,0.77157753705978
621,2583228298,-0.11163122206926,0.70672696828842,115.78920745849609,-0.12979154288769,-0.01331574656069,10.02573871612549,1.33652520179749,1.90211319923401,0.78784263134003
622,2583236631,-0.11149833351374,0.70675158500671,115.78995513916016,-0.13345798850060,-0.02365375310183,9.98228549957275,1.34792351722717,1.78305828571320,0.89665198326111
623,2583244964,-0.11223039031029,0.70743703842163,115.79006958007812,-0.13601174950600,-0.02765124291182,9.97930240631104,1.24705469608307,1.86745715141296,0.83868688344955
624,2583253297,-0.11175291985273,0.70848393440247,115.79054260253906,-0.11970630288124,-0.00969929620624,9.97274494171143,1.38944423198700,1.90477716922760,0.88935190439224
625,2583261630,-0.11216223239899,0.70849347114563,115.79062652587891,-0.12335965782404,-0.01132080797106,10.01980876922607,1.28568089008331,1.78656721115112,0.83366644382477
626,2583269963,-0.11260164529085,0.70852428674698,115.79095458984375,-0.14371132850647,-0.00589437410235,10.00522804260254,1.27927720546722,1.78252017498016,0.86970573663712
627,2583278296,-0.11215694993734,0.70995700359344,115.79105377197266,-0.13979621231556,-0.02005338482559,10.01580142974854,1.38780486583710,1.95764493942261,0.83489608764648
628,2583286629,-0.11231193691492,0.71021908521652,115.79138183593750,-0.14101319015026,-0.01217393111438,10.01902008056641,1.31480443477631,1.81108021736145,0.87252324819565
629,2583294962,-0.11243376135826,0.71070557832718,115.79164886474609,-0.13688583672047,-0.02721695229411,10.00548267364502,1.31908202171326,1.84291863441467,0.85610461235046
630,2583303295,-0.11173406243324,0.71080255508423,115.79181671142578,-0.12496867775917,-0.01794863305986,9.99936771392822,1.41703081130981,1.79107534885406,0.82457339763641
631,2583311628,-0.11120928823948,0.71003288030624,115.79185485839844,-0.12534061074257,-0.01435246877372,9.99764347076416,1.39807617664337,1.69315207004547,0.82905590534210
632,2583319961,-0.11145241558552,0.70996820926666,115.79190063476562,-0.14000880718231,-0.00996751710773,9.99345016479492,1.30240702629089,1.77214658260345,0.84593582153320
633,2583328294,-0.11091966181993,0.70983171463013,115.79202270507812,-0.13485574722290,-0.01544948760420,9.96757984161377,1.39999735355377,1.76807391643524,0.84112018346786
634,2583336627,-0.11070299148560,0.70860725641251,115.79193878173828,-0.12820649147034,0.00077482755296,9.98403644561768,1.35770821571350,1.63308668136597,0.79158228635788
635,2583344960,-0.11063252389431,0.70925128459930,115.79197692871094,-0.13596045970917,-0.00344655266963,9.99141025543213,1.34364604949951,1.86195015907288,0.82892793416977
636,2583353293,-0.11046691983938,0.70896923542023,115.79106140136719,-0.12124695628881,-0.00977803673595,10.02716732025146,1.35325133800507,1.74596881866455,0.71988815069199
637,2583361626,-0.11081340163946,0.70803409814835,115.79087066650391,-0.12556485831738,-0.01617795415223,10.00176906585693,1.29400551319122,1.67094457149506,0.80210971832275
638,2583369959,-0.11109676957130,0.70807641744614,115.79103851318359,-0.14983595907688,-0.03271410986781,10.00245475769043,1.29861605167389,1.78574752807617,0.82006525993347
639,2583378292,-0.11086749285460,0.70771408081055,115.79083251953125,-0.12526382505894,-0.00431091804057,9.99587535858154,1.36306154727936,1.74069213867188,0.79860055446625
640,2583386625,-0.10991426557302,0.70730876922607,115.79093933105469,-0.11891259253025,-0.00858724582940,9.99625492095947,1.44743466377258,1.73247015476227,0.85077685117722
641,2583394958,-0.11001986265182,0.70636940002441,115.79050445556641,-0.13572478294373,-0.01473273709416,9.97816276550293,1.32297515869141,1.67145693302155,0.77321684360504
642,2583403291,-0.10986273735762,0.70605403184891,115.79014587402344,-0.12624716758728,-0.01625253446400,10.00488853454590,1.35207283496857,1.74299740791321,0.77449756860733
643,2583411624,-0.10945118963718,0.70685875415802,115.79062652587891,-0.13559776544571,-0.01026189234108,10.00317287445068,1.38304066658020,1.88059723377228,0.88225668668747
644,2583419957,-0.10999994724989,0.70635646581650,115.79084777832031,-0.12745806574821,-0.02966867387295,10.01720619201660,1.26606023311615,1.71912491321564,0.86445480585098
645,2583428290,-0.11074882745743,0.70624619722366,115.79069519042969,-0.14612711966038,-0.01393457967788,9.99764537811279,1.24513351917267,1.77227449417114,0.80490165948868
646,2583436623,-0.11020504683256,0.70589929819107,115.79003906250000,-0.13619238138199,-0.01722910813987,10.00974559783936,1.39894700050354,1.73741352558136,0.76573753356934
647,2583444956,-0.11004276573658,0.70601159334183,115.79021453857422,-0.11203334480524,-0.01806482113898,10.03701400756836,1.35471141338348,1.79888784885406,0.84877896308899
648,2583453289,-0.10997777432203,0.70465332269669,115.79071044921875,-0.12234492599964,-0.01702892966568,10.03772163391113,1.33911216259003,1.61653995513916,0.85085362195969
649,2583461622,-0.10956448316574,0.70491713285446,115.79119873046875,-0.12107680737972,0.00327375624329,10.02455806732178,1.38398849964142,1.81640791893005,0.88153958320618
650,2583469955,-0.11000426858664,0.70553624629974,115.79188537597656,-0.12280337512493,-0.01179048418999,9.99140453338623,1.28017389774323,1.85459876060486,0.89829134941101
651,2583478288,-0.11024625599384,0.70631545782089,115.79206085205078,-0.13160687685013,-0.04454864189029,9.99131488800049,1.30545508861542,1.87662696838379,0.84465497732162
652,2583486621,-0.11012738943100,0.70747524499893,115.79188537597656,-0.14237089455128,-0.01364287268370,9.99535846710205,1.34725773334503,1.92001760005951,0.80088037252426
653,2583494954,-0.11096247285604,0.70832085609436,115.79193878173828,-0.11775738745928,-0.02547214925289,10.02430248260498,1.23470878601074,1.88666772842407,0.82808262109756
654,2583503287,-0.11131308227777,0.70806074142456,115.79158020019531,-0.12708295881748,-0.00753399170935,9.98350811004639,1.29131615161896,1.74760794639587,0.77752012014389
655,2583511620,-0.11176884919405,0.70642805099487,115.79081726074219,-0.12679833173752,-0.00977453589439,9.96580410003662,1.28055810928345,1.59013187885284,0.73392468690872
656,2583519953,-0.11186581850052,0.70725262165070,115.79103851318359,-0.14105859398842,-0.01581967063248,10.03038692474365,1.32077252864838,1.87888109683990,0.86074084043503
657,2583528286,-0.11148439347744,0.70752525329590,115.79081726074219,-0.14077825844288,-0.01626749150455,10.01245498657227,1.38152933120728,1.81630527973175,0.79739671945572
658,2583536619,-0.11137902736664,0.70782071352005,115.79110717773438,-0.11586047708988,-0.02572559565306,9.99992656707764,1.34405589103699,1.81581878662109,0.86845070123672
659,2583544952,-0.11182510107756,0.70842027664185,115.79117584228516,-0.11957082897425,-0.03328110650182,10.01228809356689,1.28114724159241,1.85567450523376,0.83246266841888
660,2583553285,-0.11155844479799,0.70794188976288,115.79177856445312,-0.14671783149242,-0.01322589162737,10.02059364318848,1.36439347267151,1.72365868091583,0.85810244083405
661,2583561618,-0.11238954961300,0.70823401212692,115.79192352294922,-0.13557699322701,-0.02477765455842,10.01162624359131,1.23580992221832,1.81868755817413,0.84409147500992
662,2583569951,-0.11186892539263,0.70906150341034,115.79237365722656,-0.11380927264690,-0.02718640863895,10.04070568084717,1.39308142662048,1.88069939613342,0.90492528676987
663,2583578284,-0.11213283240795,0.70972245931625,115.79244232177734,-0.12258196622133,-0.01468078326434,10.01571846008301,1.30304741859436,1.86317956447601,0.83220654726028
664,2583586617,-0.11254316568375,0.71155208349228,115.79262542724609,-0.10294328629971,-0.01304785534739,10.01578426361084,1.28345251083374,1.99960088729858,0.83648407459259
665,2583594950,-0.11288844794035,0.71221202611923,115.79238891601562,-0.10775578022003,-0.02778833732009,9.99900531768799,1.29444098472595,1.86302590370178,0.79852384328842
666,2583603283,-0.11251565814018,0.71347117424011,115.79357910156250,-0.13092195987701,-0.01675340160728,10.01292896270752,1.37615048885345,1.93220996856689,0.89688247442245
667,2583611616,-0.11235582828522,0.71348482370377,115.79331970214844,-0.13373675942421,-0.02123508788645,9.98943805694580,1.35466015338898,1.78597831726074,0.79237639904022
668,2583619949,-0.11243486404419,0.71290093660355,115.79376983642578,-0.11894480884075,-0.02524120174348,9.98387527465820,1.32287275791168,1.71026241779327,0.87544327974319
669,2583628282,-0.11194316297770,0.71306002140045,115.79408264160156,-0.12649358808994,-0.02115340344608,10.01267242431641,1.39387547969818,1.80390799045563,0.86235439777374
670,2583636615,-0.11227294057608,0.71283870935440,115.79380798339844,-0.14303357899189,-0.02107923105359,10.01616001129150,1.29310894012451,1.75421643257141,0.82208883762360
671,2583644948,-0.11224303394556,0.71278536319733,115.79273223876953,-0.12673623859882,-0.02185213379562,9.99349308013916,1.34003424644470,1.77860116958618,0.69424813985825
672,2583653281,-0.11228785663843,0.71260869503021,115.79274749755859,-0.13006955385208,-0.01806084439158,9.97807216644287,1.32878959178925,1.75844275951385,0.83156609535217
673,2583661614,-0.11191695928574,0.71371626853943,115.79307556152344,-0.13532121479511,-0.01919304765761,9.98173427581787,1.37853252887726,1.91712307929993,0.86514645814896
674,2583669947,-0.11130958795547,0.71374082565308,115.79311370849609,-0.12580014765263,-0.02226488664746,9.99396038055420,1.40504336357117,1.78403151035309,0.84001886844635
675,2583678280,-0.11141205579042,0.71298068761826,115.79289245605469,-0.12039501965046,0.00524712633342,10.01050186157227,1.32440960407257,1.69361293315887,0.79596227407455
676,2583686613,-0.11178510636091,0.71373820304871,115.79251098632812,-0.09976483136415,-0.02100988477468,9.99594306945801,1.28778135776520,1.87096619606018,0.80736076831818
677,2583694946,-0.11135543882847,0.71478623151779,115.79254150390625,-0.12953175604343,-0.00602175481617,10.00623226165771,1.38670349121094,1.90946459770203,0.82680195569992
678,2583703279,-0.11083675175905,0.71545529365540,115.79219818115234,-0.11291798204184,-0.00055069546215,10.00347805023193,1.39612948894501,1.86095118522644,0.77314007282257
679,2583711612,-0.11119475215673,0.71609753370285,115.79273223876953,-0.13135354220867,0.00560408504680,10.03952026367188,1.29008650779724,1.86156570911407,0.88912135362625
680,2583719945,-0.11068718880415,0.71689188480377,115.79257965087891,-0.12443500012159,-0.01964683830738,10.00749301910400,1.39464402198792,1.87719058990479,0.81650507450104
681,2583728278,-0.11037264764309,0.71704667806625,115.79328918457031,-0.12949652969837,-0.00993607752025,9.99282073974609,1.37146294116974,1.80198705196381,0.91194373369217
682,2583736611,-0.11066082119942,0.71670454740524,115.79341125488281,-0.13450132310390,-0.02150556258857,10.03000164031982,1.29784762859344,1.73994910717010,0.80221211910248
683,2583744944,-0.11078085750341,0.71604824066162,115.79345703125000,-0.13570708036423,-0.02587157487869,10.01045322418213,1.32059311866760,1.70613849163055,0.82798010110855
684,2583753277,-0.11076223850250,0.71544343233109,115.79338836669922,-0.12613217532635,-0.02194340154529,9.97658538818359,1.33632028102875,1.70821344852448,0.81937384605408
685,2583761610,-0.11079593002796,0.71557831764221,115.79386138916016,-0.09900873154402,-0.02978618629277,10.02448558807373,1.32945573329926,1.80039906501770,0.88356310129166
686,2583769943,-0.11087423563004,0.71603006124496,115.79408264160156,-0.14139002561569,-0.03004892542958,10.00649166107178,1.32323145866394,1.83490133285522,0.87739002704620
687,2583778276,-0.11176495254040,0.71648782491684,115.79441070556641,-0.12463948130608,0.00441419705749,10.01461219787598,1.22710108757019,1.83817982673645,0.86522316932678
688,2583786609,-0.11106962710619,0.71829420328140,115.79447937011719,-0.12670755386353,-0.01370654720813,10.00437545776367,1.41575002670288,1.99803829193115,0.87977206707001
689,2583794942,-0.11082090437412,0.71881371736526,115.79470825195312,-0.12805728614330,-0.02640377730131,10.01992511749268,1.36406064033508,1.84650468826294,0.85233938694000
690,2583803275,-0.11080334335566,0.71920037269592,115.79463195800781,-0.12137942016125,-0.00077382987365,10.00875091552734,1.33578240871429,1.82788312435150,0.82790333032608
