sep=,
DeviceTag:,left leg
FirmwareVersion:,2.2.1
AppVersion:,2023.6.0
StartTime: ,2025-04-02_17:17:54_000 PDT
© Movella Technologies B. V. 2005-2025

PacketCounter,SampleTimeFine,Euler_X,Euler_Y,Euler_Z,Acc_X,Acc_Y,Acc_Z,Gyr_X,Gyr_Y,Gyr_Z
0,2528763256,-0.10236483812332,0.78511255979538,122.96305084228516,0.00000000000000,0.00000000000000,0.00000000000000,0.00000000000000,0.00000000000000,0.00000000000000
1,2528771589,-0.09065007418394,0.80215686559677,122.97031402587891,-0.11584351211786,-0.03034320473671,10.00881195068359,1.39345300197601,2.04420828819275,0.87520009279251
2,2528779922,-0.09151912480593,0.81023383140564,122.97141265869141,-0.11710949242115,-0.01532951742411,10.03441524505615,1.30482769012451,1.78191852569580,0.87858110666275
3,2528788255,-0.08010660856962,0.82534158229828,122.97904968261719,-0.13063663244247,-0.02075225487351,10.02521610260010,1.35562062263489,1.81145131587982,0.91958957910538
4,2528796588,-0.07464966922998,0.82349330186844,122.97412872314453,-0.12951818108559,0.00498468894511,9.99584579467773,1.40815544128418,1.85399687290192,0.86223924160004
5,2528804921,-0.06446073204279,0.83871138095856,122.98105621337891,-0.13970631361008,-0.02592675201595,9.99586009979248,1.20986270904541,1.82621777057648,0.83415305614471
6,2528813254,-0.05531392246485,0.84158056974411,122.98657226562500,-0.12964186072350,-0.02224656753242,10.04530239105225,1.26064288616180,1.87210619449615,0.84891974925995
7,2528821587,-0.04361920058727,0.85736382007599,122.99377441406250,-0.12665723264217,-0.01496954914182,10.00315666198730,1.39014863967896,1.89334046840668,0.86549222469330
8,2528829920,-0.03709864243865,0.85812222957611,122.99420928955078,-0.13134911656380,-0.00553810130805,10.00492858886719,1.27370631694794,1.73271346092224,0.82614880800247
9,2528838253,-0.02580408006907,0.87308692932129,123.00041198730469,-0.13012309372425,-0.01287766639143,9.98295593261719,1.34440147876740,1.79490458965302,0.74751299619675
10,2528846586,-0.01769987866282,0.87492907047272,122.99101257324219,-0.13649705052376,-0.01262687053531,10.01039314270020,1.33438622951508,1.72116124629974,0.79187685251236
11,2528854919,-0.00687946658581,0.88963037729263,122.99796295166016,-0.12614020705223,-0.01080055162311,9.99575996398926,1.28679502010345,1.76388585567474,0.83434516191483
12,2528863252,0.00117722980212,0.89279663562775,123.00382995605469,-0.12326102703810,-0.02348905056715,10.01594638824463,1.37370431423187,1.77692365646362,0.84105628728867
13,2528871585,0.01263887248933,0.90746611356735,123.01083374023438,-0.13321967422962,-0.04159995540977,10.01230144500732,1.36220347881317,1.76055598258972,0.84103053808212
14,2528879918,0.01577247865498,0.91308414936066,123.00307464599609,-0.13754928112030,-0.02703228965402,10.00121879577637,1.26415228843689,2.07873582839966,0.86154758930206
15,2528888251,0.02667665854096,0.92867106199265,123.01026153564453,-0.13687039911747,-0.01042547821999,9.99748420715332,1.29504299163818,1.87049233913422,0.86203432083130
16,2528896584,0.02974060177803,0.93204891681671,123.00575256347656,-0.13232131302357,-0.02307075820863,9.99022483825684,1.26210308074951,1.63765895366669,0.81321346759796
17,2528904917,0.04158932715654,0.94718420505524,123.01300811767578,-0.13822278380394,-0.01581208407879,9.99015331268311,1.40807867050171,1.81790626049042,0.87225443124771
18,2528913250,0.04520528763533,0.95232164859772,123.00578308105469,-0.14281006157398,-0.01553068496287,9.99926471710205,1.33758819103241,1.78355777263641,0.85248023271561
19,2528921583,0.05604393780231,0.96660697460175,123.01314544677734,-0.12359599769115,-0.01167687959969,10.02133178710938,1.28661572933197,1.71649944782257,0.88201332092285
20,2528929916,0.06021820381284,0.97159999608994,123.01287078857422,-0.16617575287819,-0.02080693095922,9.98448467254639,1.34427332878113,1.75059199333191,0.79518103599548
21,2528938249,0.07095235586166,0.98734313249588,123.01947021484375,-0.14129473268986,-0.02084884420037,9.98646736145020,1.27567863464355,1.89170098304749,0.79295271635056
22,2528946582,0.07479633390903,0.99335849285126,123.02143096923828,-0.10758625715971,-0.02066828124225,10.01599979400635,1.32908439636230,1.68043482303619,0.89533281326294
23,2528954915,0.08623170107603,1.00741684436798,123.02873229980469,-0.13751973211765,-0.01675078086555,10.02125263214111,1.35705494880676,1.68850314617157,0.87248486280441
24,2528963248,0.08984672278166,1.01294600963593,123.03065490722656,-0.14176148176193,-0.02404122799635,10.00478649139404,1.29980719089508,1.73775947093964,0.86229038238525
25,2528971581,0.10102829337120,1.02880036830902,123.03793334960938,-0.13502152264118,-0.02047990262508,9.99565219879150,1.32630503177643,1.90331697463989,0.87172919511795
26,2528979914,0.10569281876087,1.03523027896881,123.02934265136719,-0.13960392773151,-0.00374379381537,10.01016616821289,1.43720197677612,1.82144117355347,0.96917867660522
27,2528988247,0.11639645695686,1.05002927780151,123.03668212890625,-0.13851238787174,-0.01832383871078,9.97730541229248,1.26866030693054,1.77720546722412,0.87678813934326
28,2528996580,0.12040873616934,1.05709362030029,123.02951049804688,-0.12296309322119,-0.01275365985930,10.00121212005615,1.30841362476349,1.87205493450165,0.82914566993713
29,2529004913,0.13164828717709,1.07230103015900,123.03613281250000,-0.13104724884033,-0.02739688940346,9.97926044464111,1.33470654487610,1.82762670516968,0.79171031713486
30,2529013246,0.13517871499062,1.07785546779633,123.03562927246094,-0.13199369609356,0.00768694002181,10.00100708007812,1.25728738307953,1.73611998558044,0.82768547534943
31,2529021579,0.14640021324158,1.09356534481049,123.04222869873047,-0.12558193504810,-0.02159955538809,10.01591110229492,1.33323371410370,1.88826858997345,0.78657472133636
32,2529029912,0.15097321569920,1.09851551055908,123.04203796386719,-0.14296919107437,-0.03417452424765,10.00851535797119,1.33241415023804,1.68199729919434,0.86106097698212
33,2529038245,0.16299946606159,1.11366915702820,123.04891967773438,-0.15261462330818,-0.00289096776396,10.01369857788086,1.42800641059875,1.82259368896484,0.82327997684479
34,2529046578,0.16745750606060,1.12054932117462,123.04689788818359,-0.14806514978409,-0.03391779214144,10.00300025939941,1.32507574558258,1.86369168758392,0.78164404630661
35,2529054911,0.17865416407585,1.13517761230469,123.05446624755859,-0.13041731715202,-0.00459744594991,9.99930763244629,1.32580554485321,1.75919842720032,0.90173631906509
36,2529063244,0.18297958374023,1.14054250717163,123.05361938476562,-0.11665959656239,-0.00625263061374,10.00679111480713,1.31637954711914,1.67185378074646,0.78234839439392
37,2529071577,0.19363547861576,1.15529072284698,123.06063842773438,-0.12460853159428,-0.02276695333421,9.99953174591064,1.26389610767365,1.77390122413635,0.83741903305054
38,2529079910,0.19837734103203,1.16071629524231,123.06386566162109,-0.11640938371420,-0.01153155695647,10.02702045440674,1.35398125648499,1.72277498245239,0.82660979032516
39,2529088243,0.20883136987686,1.17593455314636,123.07065582275391,-0.12798288464546,0.00500380853191,10.01943492889404,1.23961365222931,1.82956075668335,0.80914086103439
40,2529096576,0.21339102089405,1.18142592906952,123.07494354248047,-0.13814656436443,-0.00762123987079,10.03043556213379,1.29684865474701,1.76054322719574,0.80323678255081
41,2529104909,0.22497475147247,1.19612240791321,123.08187866210938,-0.13484425842762,-0.01334595680237,9.99939441680908,1.37378108501434,1.76862430572510,0.82822340726852
42,2529113242,0.22933545708656,1.20087563991547,123.07574462890625,-0.12662719190121,-0.01126565039158,10.00683212280273,1.26406252384186,1.66046833992004,0.76084518432617
43,2529121575,0.23976536095142,1.21476793289185,123.08312225341797,-0.13634151220322,-0.00206484925002,10.01029300689697,1.23547720909119,1.67255854606628,0.88028448820114
44,2529129908,0.24471169710159,1.22005045413971,123.08185577392578,-0.11861044913530,-0.02793834544718,9.99613571166992,1.31826221942902,1.72591269016266,0.77234607934952
45,2529138241,0.25597071647644,1.23580503463745,123.08833312988281,-0.13572412729263,-0.02602875418961,9.99591827392578,1.33683252334595,1.89637541770935,0.77165442705154
46,2529146574,0.26056167483330,1.24232912063599,123.08734893798828,-0.13134109973907,-0.01296752691269,10.01234626770020,1.30234301090240,1.88168573379517,0.77312725782394
47,2529154907,0.27283564209938,1.25696730613708,123.09405517578125,-0.14874003827572,-0.02365714870393,10.01407241821289,1.45757806301117,1.76333510875702,0.79772973060608
48,2529163240,0.27772569656372,1.26294302940369,123.09087371826172,-0.11517781764269,-0.02701639756560,10.04024028778076,1.34332561492920,1.80110323429108,0.73939323425293
49,2529171573,0.28911030292511,1.27732527256012,123.09775543212891,-0.13211385905743,-0.03251559287310,10.01445198059082,1.35077953338623,1.73261082172394,0.81846433877945
50,2529179906,0.29386982321739,1.28312015533447,123.09751129150391,-0.12165497243404,-0.00502393301576,10.01434421539307,1.35090756416321,1.79167735576630,0.82468873262405
51,2529188239,0.30543029308319,1.29852271080017,123.10459899902344,-0.13347606360912,-0.03606984764338,10.00537586212158,1.37065613269806,1.85566163063049,0.84420675039291
52,2529196572,0.30968210101128,1.30480909347534,123.10152435302734,-0.13427357375622,-0.02130842022598,10.00157642364502,1.29394161701202,1.85566163063049,0.79607766866684
53,2529204905,0.32131582498550,1.31885516643524,123.10783386230469,-0.14277242124081,-0.02266264334321,10.02163887023926,1.38225936889648,1.69441998004913,0.75007438659668
54,2529213238,0.32573461532593,1.32521700859070,123.10853576660156,-0.15080389380455,-0.01699931174517,10.02880477905273,1.31965816020966,1.85269057750702,0.86182945966721
55,2529221571,0.33698931336403,1.33986091613770,123.11585235595703,-0.13999444246292,-0.01746040582657,9.98321342468262,1.33241415023804,1.76742076873779,0.87064069509506
56,2529229904,0.34114992618561,1.34534275531769,123.11814880371094,-0.12070857733488,-0.00637831445783,9.99257755279541,1.28835761547089,1.72966516017914,0.82789039611816
57,2529238237,0.35261172056198,1.36116957664490,123.12533569335938,-0.10863141715527,-0.02117186598480,9.99296760559082,1.35769546031952,1.90822207927704,0.85032850503922
58,2529246570,0.35764199495316,1.36839056015015,123.12032318115234,-0.13701672852039,-0.02639442123473,9.98896121978760,1.38734388351440,1.96064150333405,0.86173969507217
59,2529254903,0.36842653155327,1.38401424884796,123.12725830078125,-0.14150285720825,-0.00426470348611,9.98132324218750,1.27916216850281,1.88539993762970,0.82361292839050
60,2529263236,0.37281796336174,1.38897180557251,123.12282562255859,-0.12464060634375,-0.01675102487206,10.00561237335205,1.30806779861450,1.67860317230225,0.80054730176926
61,2529271569,0.38427585363388,1.40312886238098,123.12953948974609,-0.14730136096478,-0.01827188953757,10.01076602935791,1.36066651344299,1.70950686931610,0.79753768444061
62,2529279902,0.38917908072472,1.40947270393372,123.12880706787109,-0.14219892024994,-0.02766538038850,9.99086666107178,1.37109160423279,1.84221410751343,0.78854697942734
63,2529288235,0.40028375387192,1.42310285568237,123.13573455810547,-0.13032874464989,-0.00535279884934,10.00364398956299,1.31591856479645,1.64590692520142,0.82051366567612
64,2529296568,0.40406990051270,1.42893850803375,123.13668823242188,-0.13710217177868,-0.04905978590250,10.02064132690430,1.23614299297333,1.77911353111267,0.82549554109573
65,2529304901,0.41569328308105,1.44433224201202,123.14391326904297,-0.13572122156620,-0.02165816910565,10.02033233642578,1.37881433963776,1.85903000831604,0.85577166080475
66,2529313234,0.42056539654732,1.45114493370056,123.14318847656250,-0.13049724698067,-0.00542036583647,9.99277019500732,1.38469278812408,1.89280247688293,0.76539182662964
67,2529321567,0.43117281794548,1.46605634689331,123.15025329589844,-0.13194280862808,-0.01227727066725,10.01303291320801,1.25577628612518,1.80205106735229,0.83695787191391
68,2529329900,0.43561679124832,1.47230625152588,123.14910125732422,-0.14597816765308,-0.01919612847269,10.03306102752686,1.32494759559631,1.82788288593292,0.81776005029678
69,2529338233,0.44752919673920,1.48700952529907,123.15589141845703,-0.12979929149151,-0.01034557633102,10.01131153106689,1.41496884822845,1.77820432186127,0.80586230754852
70,2529346566,0.45191696286201,1.49350786209106,123.15370941162109,-0.12549436092377,0.00108419731259,10.03324699401855,1.31768608093262,1.85512375831604,0.73060768842697
71,2529354899,0.46285870671272,1.50899922847748,123.16088104248047,-0.13004779815674,-0.00249495962635,10.03326225280762,1.29697668552399,1.87414240837097,0.84667855501175
72,2529363232,0.46746915578842,1.51393592357635,123.16160583496094,-0.13028363883495,-0.00281943124719,9.99668979644775,1.33172249794006,1.67303228378296,0.72061812877655
73,2529371565,0.47882711887360,1.52787637710571,123.16911315917969,-0.12017237395048,-0.02475241012871,10.00276756286621,1.34651458263397,1.68900239467621,0.88953101634979
74,2529379898,0.48308625817299,1.53243315219879,123.17042541503906,-0.14244048297405,-0.01178073696792,9.98750495910645,1.28826785087585,1.63444423675537,0.79099309444427
75,2529388231,0.49485409259796,1.54839670658112,123.17745208740234,-0.12862904369831,-0.01176958158612,10.00614738464355,1.39749979972839,1.93419480323792,0.82748061418533
76,2529396564,0.49841848015785,1.55499875545502,123.18061828613281,-0.14734333753586,0.00096698495327,9.97814559936523,1.20203769207001,1.88112223148346,0.83570289611816
77,2529404897,0.50995880365372,1.57061576843262,123.18787384033203,-0.11727791279554,-0.01580442860723,9.98275184631348,1.36913216114044,1.89196991920471,0.85707789659500
78,2529413230,0.51460307836533,1.57760846614838,123.18737792968750,-0.13651208579540,-0.01970690675080,10.06306171417236,1.32852077484131,1.92966127395630,0.83503693342209
79,2529421563,0.52642983198166,1.59181559085846,123.19480895996094,-0.12242754548788,-0.03097694367170,10.03980445861816,1.40244340896606,1.72474741935730,0.87845307588577
80,2529429896,0.53082162141800,1.59568512439728,123.19706726074219,-0.12780910730362,-0.00177199055906,10.01178932189941,1.30729949474335,1.56075239181519,0.81317520141602
81,2529438229,0.54216110706329,1.61135780811310,123.20394897460938,-0.13358043134212,-0.02409918792546,9.99560546875000,1.34674537181854,1.89991021156311,0.81081867218018
82,2529446562,0.54734486341476,1.61803674697876,123.20545196533203,-0.12758406996727,-0.03110950067639,10.01057720184326,1.40250742435455,1.90129327774048,0.81473761796951
83,2529454895,0.55844527482986,1.63271272182465,123.21265411376953,-0.13708454370499,-0.00359144480899,9.99347019195557,1.31783962249756,1.78396725654602,0.85081523656845
84,2529463228,0.56301999092102,1.63702404499054,123.21165466308594,-0.12234785407782,-0.01946195214987,10.02712059020996,1.33223474025726,1.61788463592529,0.80158466100693
85,2529471561,0.57389348745346,1.65108442306519,123.21851348876953,-0.12599590420723,-0.02167942933738,10.00149154663086,1.29333961009979,1.71161997318268,0.80851328372955
86,2529479894,0.57874953746796,1.65749347209930,123.22048187255859,-0.11816565692425,-0.03236965835094,10.02756595611572,1.36863267421722,1.87925255298615,0.89809912443161
87,2529488227,0.59023660421371,1.67108964920044,123.22799682617188,-0.11703132838011,-0.01380934007466,10.02550411224365,1.36423981189728,1.65621638298035,0.88858348131180
88,2529496560,0.59494465589523,1.67695641517639,123.22805786132812,-0.13216562569141,-0.01739059016109,10.01794910430908,1.35925793647766,1.82628202438354,0.83616393804550
89,2529504893,0.60594749450684,1.69193768501282,123.23484039306641,-0.13614104688168,-0.03240865096450,9.98705673217773,1.30890035629272,1.82295227050781,0.79784500598907
90,2529513226,0.60905921459198,1.69575715065002,123.23333740234375,-0.13646654784679,-0.02025706693530,10.04185199737549,1.17584705352783,1.58142280578613,0.83776468038559
91,2529521559,0.62008488178253,1.71000444889069,123.24037170410156,-0.13237684965134,-0.00817720219493,10.01430892944336,1.31130802631378,1.73796415328979,0.82819783687592
92,2529529892,0.62371873855591,1.71551191806793,123.24441528320312,-0.14334507286549,-0.02523987181485,9.97593975067139,1.23892211914062,1.78632378578186,0.87274098396301
93,2529538225,0.63410913944244,1.73019099235535,123.25151824951172,-0.12588635087013,-0.02175092510879,9.98005962371826,1.23607885837555,1.79096019268036,0.83823859691620
94,2529546558,0.63822203874588,1.73629546165466,123.24957275390625,-0.13748048245907,-0.01070202142000,9.97962188720703,1.30230462551117,1.85928618907928,0.82367694377899
95,2529554891,0.65000540018082,1.74953091144562,123.25715637207031,-0.12328580021858,-0.01697678305209,10.03330898284912,1.40155971050262,1.62002360820770,0.89613974094391
96,2529563224,0.65498018264771,1.75536644458771,123.25758361816406,-0.13202893733978,-0.01380859594792,9.99645328521729,1.41119074821472,1.83177649974823,0.75813013315201
97,2529571557,0.66594660282135,1.76918888092041,123.26489257812500,-0.12972228229046,-0.01881148666143,10.01135540008545,1.30568552017212,1.69248604774475,0.86468541622162
98,2529579890,0.67035412788391,1.77450728416443,123.26204681396484,-0.12812919914722,-0.01726531609893,9.99679279327393,1.34431183338165,1.77555286884308,0.83323097229004
99,2529588223,0.68214136362076,1.79005372524261,123.26942443847656,-0.13408492505550,-0.01363477483392,9.98930168151855,1.40363454818726,1.90016651153564,0.87049973011017
100,2529596556,0.68633323907852,1.79455006122589,123.26795196533203,-0.13200850784779,-0.01848529465497,10.00603199005127,1.32325696945190,1.68165123462677,0.77324253320694
101,2529604889,0.69708651304245,1.80929636955261,123.27439880371094,-0.12886364758015,-0.01865225471556,10.00069522857666,1.28488695621490,1.80472791194916,0.75830942392349
102,2529613222,0.70085132122040,1.81347548961639,123.27324676513672,-0.13884949684143,-0.02024929597974,10.00053787231445,1.27487170696259,1.64958226680756,0.81553161144257
103,2529621555,0.71213555335999,1.82784974575043,123.27972412109375,-0.13966321945190,-0.01638191938400,10.01150226593018,1.35012626647949,1.76169574260712,0.76294565200806
104,2529629888,0.71662831306458,1.83330535888672,123.27987670898438,-0.13841596245766,-0.04047925397754,9.99563407897949,1.36562299728394,1.80677700042725,0.84962427616119
105,2529638221,0.72804200649261,1.84852409362793,123.28655242919922,-0.14671668410301,-0.01610440947115,10.01146697998047,1.36529004573822,1.86512613296509,0.78505074977875
106,2529646554,0.73283231258392,1.85421299934387,123.28577423095703,-0.12314249575138,-0.02044292166829,9.98665714263916,1.41298377513885,1.83502960205078,0.75982069969177
107,2529654887,0.74370187520981,1.86883449554443,123.29304504394531,-0.13402168452740,-0.01396096497774,10.01744842529297,1.29823184013367,1.79586529731750,0.85531049966812
108,2529663220,0.74766641855240,1.87484943866730,123.29293823242188,-0.12527164816856,0.00967536866665,10.01542949676514,1.31680226325989,1.88267207145691,0.85792326927185
109,2529671553,0.75859117507935,1.88889956474304,123.30017089843750,-0.13949538767338,-0.04514767602086,10.00533294677734,1.30599296092987,1.73021602630615,0.85451656579971
110,2529679886,0.76326620578766,1.89347422122955,123.30062866210938,-0.13986565172672,-0.01935678906739,10.00666332244873,1.40893661975861,1.71533405780792,0.75948762893677
111,2529688219,0.77403658628464,1.90858685970306,123.30794525146484,-0.13682040572166,-0.01572018861771,10.00492954254150,1.28875470161438,1.85995185375214,0.85933196544647
112,2529696552,0.77974957227707,1.91440939903259,123.30950164794922,-0.13756678998470,-0.01564790122211,10.00499629974365,1.53398537635803,1.87360441684723,0.91373664140701
113,2529704885,0.79128819704056,1.92946875095367,123.31722259521484,-0.14584867656231,-0.01521080918610,10.00299835205078,1.38147819042206,1.85498297214508,0.90835756063461
114,2529713218,0.79623633623123,1.93671059608459,123.31438446044922,-0.12944144010544,-0.01965227350593,9.97620677947998,1.44746041297913,2.04747390747070,0.86453163623810
115,2529721551,0.80733239650726,1.95104336738586,123.32152557373047,-0.12204632908106,-0.02457873336971,9.98948955535889,1.33106935024261,1.76932883262634,0.84299004077911
116,2529729884,0.81130427122116,1.95467078685760,123.32138824462891,-0.13766255974770,-0.01106926519424,10.00162506103516,1.33975255489349,1.62337887287140,0.84647357463837
117,2529738217,0.82231545448303,1.96859848499298,123.32816314697266,-0.15688061714172,-0.00494189094752,10.01378154754639,1.32325696945190,1.72294151782990,0.79749917984009
118,2529746550,0.82602059841156,1.97253692150116,123.32840728759766,-0.14291921257973,-0.02171903476119,10.00738334655762,1.30950224399567,1.66538631916046,0.91112387180328
119,2529754883,0.83692109584808,1.98800945281982,123.33552551269531,-0.13071705400944,-0.02384161762893,10.00609016418457,1.30927169322968,1.91048908233643,0.83602303266525
120,2529763216,0.84040623903275,1.99418520927429,123.33622741699219,-0.13382846117020,-0.01008894294500,9.96543216705322,1.29316031932831,1.94007337093353,0.83212971687317
121,2529771549,0.85227006673813,2.00930571556091,123.34316253662109,-0.10683494061232,-0.01124648191035,10.00675868988037,1.42740452289581,1.87158095836639,0.81548029184341
122,2529779882,0.86326944828033,2.02360558509827,123.35060882568359,-0.12665240466595,-0.01401546504349,10.02095413208008,1.31739115715027,1.76822721958160,0.87395769357681
123,2529788215,0.86713129281998,2.02841067314148,123.35190582275391,-0.14162324368954,-0.00478626228869,10.01118087768555,1.34806442260742,1.79347050189972,0.81516027450562
124,2529796548,0.87099975347519,2.03475570678711,123.35221862792969,-0.13107836246490,-0.00521042291075,10.00064563751221,1.35176563262939,1.98164534568787,0.78336018323898
125,2529804881,0.88244420289993,2.04989147186279,123.35907745361328,-0.14174956083298,-0.02493330277503,10.00455760955811,1.38009488582611,1.87839448451996,0.80477368831635
126,2529813214,0.88648873567581,2.05476403236389,123.35961151123047,-0.11738450825214,-0.01377584692091,10.01987457275391,1.37568938732147,1.81330871582031,0.84160703420639
127,2529821547,0.89740937948227,2.06985211372375,123.36663055419922,-0.13294725120068,0.01070030871779,10.03165054321289,1.31913316249847,1.87421929836273,0.82185840606689
128,2529829880,0.90092861652374,2.07398176193237,123.36740112304688,-0.13875739276409,-0.02844183146954,9.99591064453125,1.31785237789154,1.73823308944702,0.83174538612366
129,2529838213,0.91151630878448,2.08896970748901,123.37432098388672,-0.12150744348764,-0.01554253604263,10.01094722747803,1.27986657619476,1.86456274986267,0.81307274103165
130,2529846546,0.91501289606094,2.09322571754456,123.37450408935547,-0.13732302188873,-0.02983894012868,10.01271438598633,1.32200205326080,1.76520514488220,0.88889086246490
131,2529854879,0.92601388692856,2.10679769515991,123.38156127929688,-0.13593445718288,-0.02442837134004,10.00541019439697,1.33068513870239,1.69881284236908,0.83256506919861
132,2529863212,0.92901140451431,2.10986542701721,123.38088226318359,-0.15672330558300,-0.02215700224042,10.00472068786621,1.27366781234741,1.63093507289886,0.87180614471436
133,2529871545,0.93966048955917,2.12445330619812,123.38780212402344,-0.15103638172150,-0.01551571208984,9.98651695251465,1.29103434085846,1.82352888584137,0.81540358066559
134,2529879878,0.94365924596786,2.12915349006653,123.38757324218750,-0.13614356517792,-0.00400043372065,10.01433563232422,1.40389060974121,1.83269834518433,0.83538269996643
135,2529888211,0.95432782173157,2.14353942871094,123.39463806152344,-0.11809299141169,-0.01391177996993,9.99156475067139,1.29554235935211,1.80239713191986,0.82890224456787
136,2529896544,0.95679444074631,2.14760565757751,123.39548492431641,-0.11325476318598,-0.02154977992177,9.98290920257568,1.22412991523743,1.77066075801849,0.86248248815536
137,2529904877,0.96792179346085,2.16245651245117,123.40217590332031,-0.14335876703262,-0.02339105494320,10.03329181671143,1.35430157184601,1.86028504371643,0.78328335285187
138,2529913210,0.97066307067871,2.16648101806641,123.40151977539062,-0.12749892473221,-0.01588232442737,9.97880840301514,1.26928782463074,1.77627027034760,0.81893837451935
139,2529921543,0.98118442296982,2.18088293075562,123.40789031982422,-0.14549119770527,-0.00577623210847,10.00179386138916,1.28409290313721,1.80954313278198,0.74496436119080
140,2529929876,0.98389494419098,2.18569827079773,123.40885925292969,-0.12883831560612,-0.01847919821739,10.01937866210938,1.27307879924774,1.88315856456757,0.84050548076630
141,2529938209,0.99421620368958,2.20122838020325,123.41551971435547,-0.12293791025877,-0.01963941007853,9.98310089111328,1.26009237766266,1.94793713092804,0.77700781822205
142,2529946542,0.99687623977661,2.20590853691101,123.41590881347656,-0.13126108050346,-0.02556506544352,10.02708339691162,1.28117275238037,1.88031518459320,0.76035857200623
143,2529954875,1.00813972949982,2.22017812728882,123.42261505126953,-0.11796746402979,0.00665956083685,10.00662612915039,1.37499761581421,1.79950237274170,0.78791940212250
144,2529963208,1.01173043251038,2.22452402114868,123.42491912841797,-0.11886697262526,-0.02470449917018,9.99479770660400,1.39869093894958,1.85657095909119,0.77772504091263
145,2529971541,1.02193868160248,2.23931097984314,123.43195343017578,-0.14390857517719,-0.02393848635256,10.00127410888672,1.24861729145050,1.86517739295959,0.82549560070038
146,2529979874,1.02540922164917,2.24335145950317,123.43160247802734,-0.13977658748627,-0.02548093907535,10.01443767547607,1.39326071739197,1.83510649204254,0.87800484895706
147,2529988207,1.03612375259399,2.25684094429016,123.43941497802734,-0.12810888886452,-0.02532343938947,10.02053356170654,1.30765783786774,1.71523153781891,0.92231738567352
148,2529996540,1.03930652141571,2.25934433937073,123.44152069091797,-0.14018112421036,0.00366356270388,9.99731063842773,1.37077140808105,1.66287600994110,0.85874283313751
149,2530004873,1.05063283443451,2.27359509468079,123.44879913330078,-0.15390776097775,-0.01994836889207,9.99392890930176,1.38529467582703,1.80867254734039,0.85687297582626
150,2530013206,1.05327713489532,2.27647137641907,123.44929504394531,-0.12342715263367,-0.02422412484884,9.98625755310059,1.31664848327637,1.71833109855652,0.80272454023361
151,2530021539,1.06322324275970,2.28945803642273,123.45614624023438,-0.14321380853653,-0.03069048374891,10.00045204162598,1.22579491138458,1.66021227836609,0.80833405256271
152,2530029872,1.06601560115814,2.29379153251648,123.45579528808594,-0.12753438949585,-0.01797400787473,10.01365852355957,1.34600257873535,1.90687739849091,0.82019352912903
153,2530038205,1.07638645172119,2.30779576301575,123.46324157714844,-0.12097302824259,-0.02002142183483,10.00679206848145,1.27482032775879,1.78710520267487,0.87633967399597
154,2530046538,1.07940471172333,2.31165552139282,123.46415710449219,-0.12534072995186,-0.02555744722486,10.00325012207031,1.38234913349152,1.86630463600159,0.86747723817825
155,2530054871,1.09101510047913,2.32647180557251,123.47083282470703,-0.14185336232185,-0.02014505118132,9.98421478271484,1.43029892444611,1.88746201992035,0.78123414516449
156,2530063204,1.09357130527496,2.33087539672852,123.47177886962891,-0.14029072225094,-0.03036212921143,10.00674915313721,1.34049534797668,1.94709169864655,0.86860430240631
157,2530071537,1.10477006435394,2.34516835212708,123.47850036621094,-0.14162510633469,-0.03180755674839,10.01239204406738,1.38204169273376,1.82734525203705,0.78776586055756
158,2530079870,1.10759770870209,2.34785318374634,123.48111724853516,-0.12244006246328,-0.00356192095205,9.98493289947510,1.38624227046967,1.75472879409790,0.86442905664444
159,2530088203,1.11865985393524,2.36187171936035,123.48690032958984,-0.13351409137249,-0.01536931376904,10.00515174865723,1.37428045272827,1.79617261886597,0.67657440900803
160,2530096536,1.12034630775452,2.36470603942871,123.48632812500000,-0.12158610671759,-0.00621118443087,10.01101684570312,1.26027166843414,1.78884685039520,0.86609411239624
161,2530104869,1.13061654567719,2.37769150733948,123.49360656738281,-0.14467526972294,-0.00549781136215,10.01748085021973,1.27248966693878,1.68039643764496,0.85825622081757
162,2530113202,1.13222754001617,2.37970924377441,123.49343109130859,-0.14609907567501,-0.01186007261276,9.99025154113770,1.26116824150085,1.70677900314331,0.86250817775726
163,2530121535,1.14258050918579,2.39434456825256,123.50114440917969,-0.15368694067001,-0.01398180797696,9.98095321655273,1.28329896926880,1.88280010223389,0.90774291753769
164,2530129868,1.14459681510925,2.39746809005737,123.50293731689453,-0.14616751670837,-0.02288020774722,9.99272727966309,1.32243728637695,1.85160171985626,0.83036220073700
165,2530138201,1.15511679649353,2.41064906120300,123.51009368896484,-0.11500817537308,-0.02830821275711,10.01093482971191,1.30919480323792,1.71092832088470,0.84222161769867
166,2530146534,1.15679514408112,2.41298365592957,123.50893402099609,-0.12828943133354,-0.01894268952310,10.00835037231445,1.29700231552124,1.77360641956329,0.75731045007706
167,2530154867,1.16728961467743,2.42741513252258,123.51550292968750,-0.11886101961136,-0.00505235930905,9.99194145202637,1.31239676475525,1.86387109756470,0.77088606357574
168,2530163200,1.16913640499115,2.42997384071350,123.51612091064453,-0.13533478975296,-0.00954954512417,10.00984954833984,1.32802128791809,1.81968665122986,0.78512758016586
169,2530171533,1.17952072620392,2.44158411026001,123.52277374267578,-0.12604115903378,-0.03815153613687,9.97473335266113,1.30194592475891,1.52809405326843,0.78779131174088
170,2530179866,1.18169414997101,2.44361519813538,123.52336120605469,-0.12553398311138,-0.00967345014215,10.00875854492188,1.37899351119995,1.77570676803589,0.83292359113693
171,2530188199,1.19326853752136,2.45897626876831,123.53048706054688,-0.12825347483158,-0.03180016577244,10.00220870971680,1.44512951374054,1.98333585262299,0.83420443534851
172,2530196532,1.19530653953552,2.46190810203552,123.53079223632812,-0.14469450712204,-0.00602415483445,9.98789787292480,1.37466466426849,1.90262520313263,0.86673450469971
173,2530204865,1.20606815814972,2.47425103187561,123.53820800781250,-0.13632456958294,-0.02653995528817,9.97448921203613,1.35020315647125,1.62752830982208,0.87582749128342
174,2530213198,1.20730209350586,2.47545337677002,123.53964233398438,-0.12930127978325,-0.02369275502861,10.00789260864258,1.29316031932831,1.70931482315063,0.82718610763550
175,2530221531,1.21767866611481,2.48975253105164,123.54670715332031,-0.13895107805729,-0.02741381339729,10.00222110748291,1.30788850784302,1.86668884754181,0.83133560419083
176,2530229864,1.21950042247772,2.49155044555664,123.54670715332031,-0.11689663678408,-0.01736002787948,9.98655033111572,1.38029992580414,1.79794013500214,0.78999429941177
177,2530238197,1.23079633712769,2.50672125816345,123.55381774902344,-0.10181514173746,-0.01347028464079,10.00195884704590,1.42056548595428,1.97542119026184,0.83376902341843
178,2530246530,1.23261368274689,2.50891399383545,123.55428314208984,-0.13460572063923,-0.01955130137503,10.00998210906982,1.38944411277771,1.86948037147522,0.85126358270645
179,2530254863,1.24345254898071,2.52216672897339,123.56150817871094,-0.11148658394814,-0.01818608678877,10.00569915771484,1.36841487884521,1.75001573562622,0.85290277004242
180,2530263196,1.24449205398560,2.52422356605530,123.56362915039062,-0.12597386538982,-0.04139620438218,10.01336002349854,1.31193554401398,1.87404000759125,0.87229287624359
181,2530271529,1.25460052490234,2.53840327262878,123.57086944580078,-0.12948656082153,-0.00114614237100,10.00822734832764,1.28281223773956,1.86579215526581,0.85205757617950
182,2530279862,1.25526845455170,2.53967523574829,123.57253265380859,-0.12195567041636,-0.00957531202585,9.98154926300049,1.28176176548004,1.79875957965851,0.86471092700958
183,2530288195,1.26518762111664,2.55218958854675,123.57952880859375,-0.11954665929079,-0.02280962839723,10.02085399627686,1.26485645771027,1.67202043533325,0.82723736763000
184,2530296528,1.26601994037628,2.55341029167175,123.57932281494141,-0.12507525086403,-0.00645066518337,10.01646041870117,1.31767320632935,1.81223273277283,0.81289345026016
185,2530304861,1.27637267112732,2.56723237037659,123.58645629882812,-0.12930130958557,-0.01770761422813,10.00583076477051,1.32046508789062,1.83239126205444,0.84211915731430
186,2530313194,1.27757179737091,2.56771969795227,123.58694458007812,-0.13868170976639,-0.01038293633610,9.99610328674316,1.37461352348328,1.74407327175140,0.80082899332047
187,2530321527,1.28775298595428,2.58187484741211,123.59404754638672,-0.13356003165245,-0.00891278497875,9.98912239074707,1.30468666553497,1.87847113609314,0.83755987882614
188,2530329860,1.28776848316193,2.58137750625610,123.59406280517578,-0.13227462768555,-0.02642263099551,10.00837898254395,1.24501836299896,1.64593231678009,0.82071846723557
189,2530338193,1.29876112937927,2.59599733352661,123.60111236572266,-0.12376906722784,-0.01365766767412,10.01764106750488,1.40407001972198,1.93787074089050,0.82915842533112
190,2530346526,1.29945802688599,2.59638881683350,123.60112762451172,-0.12797677516937,-0.01506633684039,9.96998119354248,1.34682202339172,1.77135241031647,0.74716717004776
191,2530354859,1.31026315689087,2.61117458343506,123.60836791992188,-0.14331376552582,-0.01764965802431,10.03919219970703,1.38411641120911,1.96481668949127,0.85269784927368
192,2530363192,1.31117463111877,2.61124515533447,123.60838317871094,-0.13709215819836,0.00346925854683,10.01319789886475,1.38334798812866,1.75483131408691,0.85016214847565
193,2530371525,1.32153534889221,2.62335538864136,123.61553955078125,-0.12279239296913,-0.00819235481322,9.99988937377930,1.33447623252869,1.64717471599579,0.85098183155060
194,2530379858,1.32056736946106,2.62307500839233,123.61467742919922,-0.11572958528996,-0.01245314627886,9.98958110809326,1.17226099967957,1.73221373558044,0.82050079107285
195,2530388191,1.33012223243713,2.63576292991638,123.62181091308594,-0.14542223513126,-0.01769470050931,9.98107337951660,1.24205982685089,1.72363305091858,0.84547466039658
196,2530396524,1.32920551300049,2.63623523712158,123.62216186523438,-0.12154258787632,-0.04192011803389,9.99078655242920,1.19101071357727,1.84240615367889,0.84509038925171
197,2530404857,1.33995056152344,2.64922618865967,123.62918853759766,-0.11899159103632,-0.01568702235818,10.00841617584229,1.38888061046600,1.76428282260895,0.83215522766113
198,2530413190,1.33982384204865,2.64877033233643,123.63104248046875,-0.11669427901506,-0.00964010041207,10.02133369445801,1.30261182785034,1.75616312026978,0.86614519357681
199,2530421523,1.35029363632202,2.66186285018921,123.63746643066406,-0.12347989529371,-0.01598435081542,9.99388027191162,1.36313831806183,1.77954888343811,0.75902658700943
200,2530429856,1.35017740726471,2.66070389747620,123.63836669921875,-0.14364230632782,-0.01086630020291,10.01481437683105,1.32059311866760,1.69310104846954,0.83996754884720
201,2530438189,1.36018478870392,2.67335844039917,123.64481353759766,-0.15301519632339,-0.01095161214471,10.00532722473145,1.31162810325623,1.73275172710419,0.76509726047516
202,2530446522,1.35963690280914,2.67270994186401,123.64557647705078,-0.14069561660290,0.00025581801310,9.97266769409180,1.28509175777435,1.77135241031647,0.79153102636337
203,2530454855,1.36953687667847,2.68621182441711,123.65318298339844,-0.13063894212246,-0.01858408562839,9.96863651275635,1.29618275165558,1.84394323825836,0.90028905868530
204,2530463188,1.36908662319183,2.68430733680725,123.65508270263672,-0.13126088678837,-0.01968577317894,10.02942276000977,1.30932271480560,1.64305067062378,0.86860430240631
205,2530471521,1.37901651859283,2.69692659378052,123.66187286376953,-0.12650699913502,-0.01921911723912,9.99864578247070,1.30735063552856,1.74023103713989,0.80590069293976
206,2530479854,1.37839066982269,2.69703865051270,123.66280364990234,-0.13485284149647,-0.02261271327734,10.00217723846436,1.30586493015289,1.90618586540222,0.81724780797958
207,2530488187,1.38809239864349,2.70817589759827,123.66952514648438,-0.14539022743702,-0.01252201199532,10.01240348815918,1.28555274009705,1.56823146343231,0.80392831563950
208,2530496520,1.38737905025482,2.70771789550781,123.67177581787109,-0.12879841029644,-0.02154771611094,10.03220558166504,1.30776047706604,1.86043870449066,0.90679526329041
209,2530504853,1.39785647392273,2.72132802009583,123.67880249023438,-0.14237591624260,-0.00953006837517,10.00178909301758,1.38053035736084,1.87275910377502,0.83312857151031
210,2530513186,1.39697909355164,2.71925544738770,123.67778778076172,-0.13568213582039,-0.00975689757615,9.99502944946289,1.31016814708710,1.68262457847595,0.79737114906311
211,2530521519,1.40675890445709,2.73247814178467,123.68449401855469,-0.10261627286673,-0.02246798947453,9.97740173339844,1.30394399166107,1.83195579051971,0.79573190212250
212,2530529852,1.40672409534454,2.73193907737732,123.68440246582031,-0.11347240209579,-0.01031204778701,9.99851036071777,1.42507362365723,1.89189302921295,0.83399951457977
213,2530538185,1.41607320308685,2.74471640586853,123.69105529785156,-0.13234609365463,-0.00626130215824,9.99015712738037,1.25586593151093,1.78333973884583,0.79212021827698
214,2530546518,1.41487360000610,2.74265527725220,123.69126892089844,-0.13221839070320,-0.00934232957661,10.00517272949219,1.29961502552032,1.73308467864990,0.84690904617310
215,2530554851,1.42445766925812,2.75399899482727,123.69792175292969,-0.13712154328823,-0.01063743419945,10.01249122619629,1.28806304931641,1.61730837821960,0.79491215944290
216,2530563184,1.42310500144958,2.75319623947144,123.69810485839844,-0.12840653955936,-0.02980176173151,10.00297927856445,1.29953825473785,1.90464890003204,0.81373858451843
217,2530571517,1.43266749382019,2.76544833183289,123.70468902587891,-0.12872220575809,-0.01153849624097,9.99871444702148,1.28985595703125,1.73359704017639,0.78597283363342
218,2530579850,1.43099105358124,2.76434588432312,123.70714569091797,-0.13484971225262,-0.02461402490735,9.99178409576416,1.27576828002930,1.89071488380432,0.83630478382111
219,2530588183,1.43986260890961,2.77635264396667,123.71395874023438,-0.14202684164047,-0.01642572134733,10.00591468811035,1.21163010597229,1.71067225933075,0.81535232067108
220,2530596516,1.43788540363312,2.77355647087097,123.71450805664062,-0.13322727382183,-0.01700535044074,10.00113201141357,1.25558412075043,1.70990383625031,0.88228225708008
221,2530604849,1.44751727581024,2.78491878509521,123.72159576416016,-0.14397424459457,-0.02165318652987,10.01375770568848,1.30486583709717,1.63961815834045,0.84916305541992
222,2530613182,1.44591999053955,2.78230094909668,123.72183990478516,-0.12243898212910,-0.01119128428400,10.01657581329346,1.31995272636414,1.75396025180817,0.83563876152039
223,2530621515,1.45507955551147,2.79464936256409,123.72909545898438,-0.13012671470642,-0.01130575872958,10.00899887084961,1.25187003612518,1.76384735107422,0.86786144971848
224,2530629848,1.45291972160339,2.79239726066589,123.72912597656250,-0.13115367293358,-0.00744392862543,10.01447200775146,1.27120876312256,1.81937909126282,0.79504019021988
225,2530638181,1.46264088153839,2.80398416519165,123.73655700683594,-0.13868796825409,-0.01936965622008,10.02946472167969,1.32225799560547,1.67970454692841,0.88988971710205
226,2530646514,1.46092987060547,2.80096721649170,123.73835754394531,-0.14457714557648,-0.02821169048548,9.99115467071533,1.33737063407898,1.75216746330261,0.91173881292343
227,2530654847,1.47097361087799,2.81227397918701,123.74497222900391,-0.13184635341167,-0.01024167425931,9.98764133453369,1.36905515193939,1.64901864528656,0.79358017444611
228,2530663180,1.46883404254913,2.80945611000061,123.74536895751953,-0.12759180366993,-0.01928250677884,9.99402332305908,1.30527591705322,1.79566037654877,0.85395306348801
229,2530671513,1.47872626781464,2.82123303413391,123.75205993652344,-0.12540259957314,-0.00143692339770,9.98252677917480,1.35660648345947,1.71500110626221,0.80157178640366
230,2530679846,1.47705686092377,2.81740307807922,123.75267791748047,-0.14982363581657,-0.02365386113524,10.00065422058105,1.37955713272095,1.69607222080231,0.84703713655472
231,2530688179,1.48733186721802,2.82943058013916,123.75978088378906,-0.12884396314621,-0.01779383607209,9.97983264923096,1.40322470664978,1.75160372257233,0.85141712427139
232,2530696512,1.48593878746033,2.82603192329407,123.75940704345703,-0.13651219010353,-0.02625415101647,10.02773475646973,1.43383347988129,1.76907265186310,0.77157747745514
233,2530704845,1.49517524242401,2.83842206001282,123.76648712158203,-0.12886020541191,-0.01227836124599,10.01490879058838,1.28424644470215,1.80085980892181,0.84824097156525
234,2530713178,1.49328517913818,2.83457016944885,123.76704406738281,-0.13303522765636,-0.00294439308345,10.01444339752197,1.38957214355469,1.73774623870850,0.80866694450378
235,2530721511,1.50333023071289,2.84632372856140,123.77410888671875,-0.11820761114359,-0.00954363122582,9.99751663208008,1.38662660121918,1.73211133480072,0.84811300039291
236,2530729844,1.51261866092682,2.85906076431274,123.78162384033203,-0.13901273906231,-0.02823369763792,10.01570320129395,1.27825272083282,1.83167386054993,0.89816313982010
237,2530738177,-0.13079153001308,0.71220231056213,122.80944061279297,-0.14663998782635,-0.02098713256419,10.00959873199463,1.30898988246918,1.85854315757751,0.87226712703705
238,2530746510,-0.13095524907112,0.71215027570724,122.80906677246094,-0.15336993336678,-0.03870588168502,9.97719097137451,1.31024491786957,1.80121839046478,0.80638724565506
239,2530754843,-0.13125929236412,0.71165966987610,122.80920410156250,-0.12439160048962,-0.01050025038421,10.01093769073486,1.29321157932281,1.73019027709961,0.84529531002045
240,2530763176,-0.13037548959255,0.71231704950333,122.80483245849609,-0.11894016712904,-0.03550833091140,9.99067211151123,1.43695867061615,1.88577127456665,0.78379565477371
241,2530771509,-0.13117578625679,0.71255838871002,122.80463409423828,-0.13853918015957,-0.00840282719582,10.00489902496338,1.23345351219177,1.81878995895386,0.80518341064453
242,2530779842,-0.13116493821144,0.71086561679840,122.80339050292969,-0.13185283541679,-0.01428035553545,10.00031757354736,1.33114612102509,1.60091519355774,0.88079667091370
243,2530788175,-0.13162328302860,0.71089726686478,122.80379486083984,-0.13135422766209,-0.03120401129127,10.03262805938721,1.27333474159241,1.79379057884216,0.88084799051285
244,2530796508,-0.13191582262516,0.71064597368240,122.80117797851562,-0.13975934684277,-0.03026239760220,10.00838565826416,1.29385173320770,1.77457976341248,0.84588438272476
245,2530804841,-0.13119798898697,0.71050620079041,122.80152893066406,-0.13920897245407,-0.00499008456245,10.00005912780762,1.41439235210419,1.77340161800385,0.87283062934875
246,2530813174,-0.13190852105618,0.70937895774841,122.80189514160156,-0.12245967984200,-0.01983612775803,10.00395870208740,1.24577403068542,1.66746115684509,0.86332774162292
247,2530821507,-0.13221925497055,0.70938527584076,122.80185699462891,-0.12651820480824,-0.00127892196178,10.00850009918213,1.29154658317566,1.79222798347473,0.82570052146912
248,2530829840,-0.13196234405041,0.70865035057068,122.80064392089844,-0.12656037509441,-0.01489648222923,9.99104118347168,1.36001336574554,1.71354103088379,0.80364656448364
249,2530838173,-0.13243556022644,0.70905894041061,122.80066680908203,-0.12313771247864,-0.02155185304582,10.00836563110352,1.27231049537659,1.84035730361938,0.83535706996918
250,2530846506,-0.13263559341431,0.70968288183212,122.79997253417969,-0.11935067176819,-0.00934959482402,9.99905204772949,1.30448186397552,1.87688302993774,0.87162673473358
251,2530854839,-0.13168571889400,0.71050906181335,122.80014801025391,-0.14628180861473,-0.02316218428314,9.99820613861084,1.44320857524872,1.88902437686920,0.85136604309082
252,2530863172,-0.13135720789433,0.70960754156113,122.79850006103516,-0.14653490483761,-0.01781523227692,9.98899364471436,1.36779999732971,1.69343388080597,0.85697543621063
253,2530871505,-0.13160333037376,0.70909065008163,122.79817962646484,-0.12466283142567,-0.03015516139567,9.97477626800537,1.29992234706879,1.72737264633179,0.79314470291138
254,2530879838,-0.13197648525238,0.70769459009171,122.79681396484375,-0.13373693823814,-0.01596144773066,9.99574565887451,1.28527104854584,1.63372707366943,0.84424519538879
255,2530888171,-0.13225419819355,0.70748996734619,122.79685974121094,-0.13397121429443,-0.02247159183025,10.01465988159180,1.29423618316650,1.76625537872314,0.83461421728134
256,2530896504,-0.13246810436249,0.70701134204865,122.79532623291016,-0.13509748876095,-0.03156188502908,10.01528739929199,1.30496847629547,1.74220335483551,0.79788339138031
257,2530904837,-0.13323836028576,0.70742839574814,122.79479217529297,-0.11463277041912,-0.02134224399924,9.97779464721680,1.23698818683624,1.84102308750153,0.76847821474075
258,2530913170,-0.13338968157768,0.70721888542175,122.79374694824219,-0.14655248820782,-0.02709745056927,10.02578926086426,1.31193554401398,1.77545058727264,0.75300723314285
259,2530921503,-0.13333362340927,0.70650517940521,122.79390716552734,-0.13089188933372,-0.02460309676826,9.97551059722900,1.33542382717133,1.70367956161499,0.84918880462646
260,2530929836,-0.13291016221046,0.70669049024582,122.79312896728516,-0.15060554444790,-0.01834642328322,10.01451396942139,1.37881433963776,1.82201743125916,0.88376802206039
261,2530938169,-0.13264003396034,0.70717722177505,122.79273223876953,-0.13053272664547,-0.00263397279195,10.00980949401855,1.36295926570892,1.84765732288361,0.78410297632217
262,2530946502,-0.13294552266598,0.70772212743759,122.79349517822266,-0.14410676062107,-0.03605573251843,9.99250793457031,1.29098320007324,1.86276972293854,0.87969535589218
263,2530954835,-0.13345545530319,0.70583021640778,122.79359436035156,-0.13081520795822,-0.02291745692492,10.00402927398682,1.26780211925507,1.56349301338196,0.84068477153778
264,2530963168,-0.13389149308205,0.70548015832901,122.79250335693359,-0.11988016963005,-0.01950161904097,9.97357940673828,1.27748429775238,1.75583016872406,0.79496335983276
265,2530971501,-0.13458624482155,0.70622068643570,122.79312896728516,-0.11828976124525,-0.01683949120343,9.99400329589844,1.24436521530151,1.87908601760864,0.90717941522598
266,2530979834,-0.13480098545551,0.70661640167236,122.79121398925781,-0.12423659861088,-0.01706652343273,9.98650646209717,1.30261182785034,1.84476280212402,0.82308787107468
267,2530988167,-0.13465623557568,0.70506626367569,122.79090118408203,-0.13762117922306,-0.01483537815511,9.98204803466797,1.34735989570618,1.60360479354858,0.79160791635513
268,2530996500,-0.13525649905205,0.70453035831451,122.78987884521484,-0.14969560503960,-0.01037571020424,9.99037933349609,1.25671112537384,1.73213720321655,0.81622320413589
269,2531004833,-0.13604328036308,0.70392197370529,122.78952026367188,-0.14875395596027,-0.02030580677092,10.01329708099365,1.23445248603821,1.71868944168091,0.78955876827240
270,2531013166,-0.13527867197990,0.70325481891632,122.78918457031250,-0.12079582363367,-0.02586304955184,9.99742412567139,1.41931033134460,1.71518063545227,0.89637023210526
271,2531021499,-0.13455671072006,0.70345544815063,122.78942871093750,-0.12584343552589,-0.04763624072075,9.99668216705322,1.41564750671387,1.81443572044373,0.86240571737289
272,2531029832,-0.13498812913895,0.70328599214554,122.78720092773438,-0.14538638293743,-0.01043219584972,9.98986244201660,1.27827835083008,1.77409315109253,0.73874020576477
273,2531038165,-0.13489007949829,0.70315855741501,122.78773498535156,-0.13012523949146,-0.02754108980298,9.99029827117920,1.34000873565674,1.77557885646820,0.89355260133743
274,2531046498,-0.13525751233101,0.70256495475769,122.78762054443359,-0.13713170588017,-0.02164643257856,10.02651119232178,1.28434896469116,1.72322320938110,0.86509513854980
275,2531054831,-0.13568715751171,0.70129477977753,122.78827667236328,-0.11897546797991,-0.04147383943200,10.01077842712402,1.27645981311798,1.63754379749298,0.90812712907791
276,2531063164,-0.13557420670986,0.70125639438629,122.78758239746094,-0.13855472207069,-0.00606541242450,10.00949382781982,1.34254455566406,1.78910315036774,0.78663873672485
277,2531071497,-0.13510128855705,0.70118212699890,122.78766632080078,-0.12376520782709,-0.01661054603755,9.99302482604980,1.38639593124390,1.78162372112274,0.84096652269363
278,2531079830,-0.13516822457314,0.70166355371475,122.78647613525391,-0.12452249974012,-0.02653006650507,10.01218605041504,1.31951737403870,1.85229349136353,0.86286681890488
279,2531088163,-0.13446080684662,0.70210200548172,122.78580474853516,-0.12393464148045,-0.00638331659138,9.97643280029297,1.41539132595062,1.84268796443939,0.75177770853043
280,2531096496,-0.13581320643425,0.70266640186310,122.78435516357422,-0.14344929158688,-0.02915770187974,10.01703166961670,1.16654908657074,1.86072051525116,0.83233451843262
281,2531104829,-0.13601276278496,0.70272421836853,122.78514099121094,-0.13025575876236,-0.00999045744538,10.00981712341309,1.30317521095276,1.79852902889252,0.92449450492859
282,2531113162,-0.13587942719460,0.70296984910965,122.78350067138672,-0.13451832532883,-0.02074517495930,9.97729206085205,1.34477317333221,1.82201743125916,0.78920024633408
283,2531121495,-0.13606773316860,0.70325207710266,122.78334808349609,-0.12514986097813,-0.00924546923488,9.99231338500977,1.30619800090790,1.82329833507538,0.81230437755585
284,2531129828,-0.13630926609039,0.70201313495636,122.78289794921875,-0.13326983153820,-0.01835026778281,9.98699283599854,1.29848790168762,1.64509975910187,0.89083749055862
285,2531138161,-0.13626177608967,0.70181840658188,122.78317260742188,-0.11929214745760,-0.02314997091889,10.01062774658203,1.33447611331940,1.76686990261078,0.86419874429703
286,2531146494,-0.13619078695774,0.70185351371765,122.78374481201172,-0.12331957370043,-0.00398325035349,9.98927307128906,1.33598732948303,1.79689002037048,0.88146269321442
287,2531154827,-0.13653266429901,0.70114636421204,122.78371429443359,-0.13429495692253,-0.03961057960987,10.03309917449951,1.28716659545898,1.70434582233429,0.82805699110031
288,2531163160,-0.13749875128269,0.70069652795792,122.78272247314453,-0.13522295653820,-0.02772971428931,10.01605129241943,1.21319258213043,1.73987245559692,0.76189541816711
289,2531171493,-0.13775996863842,0.70087188482285,122.78348541259766,-0.14578735828400,-0.01517680659890,10.00743389129639,1.29690003395081,1.81031155586243,0.92398226261139
290,2531179826,-0.13743349909782,0.70163238048553,122.78291320800781,-0.13663014769554,0.00452927732840,10.00540065765381,1.36723649501801,1.88372206687927,0.83592051267624
291,2531188159,-0.13817726075649,0.70222443342209,122.78259277343750,-0.12859708070755,-0.03328867629170,9.99012565612793,1.24049735069275,1.86179625988007,0.79229950904846
292,2531196492,-0.13758389651775,0.70385390520096,122.78206634521484,-0.13557928800583,-0.02381951920688,10.02610588073730,1.39738464355469,1.98633277416229,0.82600790262222
293,2531204825,-0.13701497018337,0.70380538702011,122.78194427490234,-0.13823087513447,-0.01567117497325,10.00181961059570,1.39738452434540,1.78418517112732,0.81701713800430
294,2531213158,-0.13758607208729,0.70336079597473,122.78012084960938,-0.14183558523655,-0.01104993093759,10.01443958282471,1.25937521457672,1.73692703247070,0.79826772212982
295,2531221491,-0.13749742507935,0.70373946428299,122.77976989746094,-0.12705056369305,-0.03918470442295,10.01567554473877,1.34034168720245,1.83697617053986,0.78868800401688
296,2531229824,-0.13760554790497,0.70380938053131,122.78016662597656,-0.13736744225025,-0.00983111839741,10.00791835784912,1.31518852710724,1.79919505119324,0.82821077108383
297,2531238157,-0.13761000335217,0.70312327146530,122.78020477294922,-0.12279281765223,-0.01087574381381,9.99835205078125,1.32797002792358,1.70729136466980,0.83630478382111
298,2531246490,-0.13811449706554,0.70264679193497,122.77930450439453,-0.12350968271494,-0.01895867288113,10.01746463775635,1.26644456386566,1.73275172710419,0.82657134532928
299,2531254823,-0.13830515742302,0.70240879058838,122.77973937988281,-0.13065715134144,-0.00196747691371,9.99040222167969,1.30578815937042,1.76159334182739,0.88310194015503
300,2531263156,-0.13784699141979,0.70370459556580,122.77949523925781,-0.14435814321041,0.00662976596504,9.97251701354980,1.38088905811310,1.94657957553864,0.85605335235596
301,2531271489,-0.13796132802963,0.70477181673050,122.77926635742188,-0.13505162298679,-0.01311204303056,10.01707553863525,1.31677663326263,1.91671335697174,0.80346733331680
302,2531279822,-0.13815645873547,0.70517265796661,122.77788543701172,-0.14228872954845,-0.01364817284048,10.00212478637695,1.30330359935760,1.83940970897675,0.73466753959656
303,2531288155,-0.13884504139423,0.70535105466843,122.77733612060547,-0.14440399408340,-0.01218252629042,9.99480628967285,1.24738752841949,1.81184840202332,0.76604491472244
304,2531296488,-0.13907049596310,0.70573920011520,122.77684783935547,-0.14915402233601,-0.04635745659471,10.00599765777588,1.29851365089417,1.83485007286072,0.85282593965530
305,2531304821,-0.13853837549686,0.70655941963196,122.77621459960938,-0.13524585962296,-0.02197202295065,9.99302768707275,1.39379858970642,1.88925492763519,0.75490283966064
306,2531313154,-0.13883420825005,0.70721858739853,122.77651977539062,-0.12847240269184,-0.02494112588465,10.00878715515137,1.29059898853302,1.86689364910126,0.82037276029587
307,2531321487,-0.13932809233665,0.70724362134933,122.77731323242188,-0.13599298894405,-0.02953161485493,10.01981067657471,1.26846826076508,1.79338085651398,0.92674869298935
308,2531329820,-0.13957017660141,0.70668780803680,122.77681732177734,-0.11834880709648,-0.02604297548532,9.99738788604736,1.29705345630646,1.72117412090302,0.83653521537781
309,2531338153,-0.13907837867737,0.70573365688324,122.77666473388672,-0.13976654410362,-0.01104046311229,9.98766326904297,1.38757443428040,1.67599058151245,0.81038314104080
310,2531346486,-0.13876301050186,0.70527040958405,122.77603912353516,-0.12179784476757,-0.01248159445822,10.00605583190918,1.36395800113678,1.73193204402924,0.85205751657486
311,2531354819,-0.13947987556458,0.70522654056549,122.77612304687500,-0.14344069361687,-0.02244184352458,10.00891876220703,1.24246966838837,1.78467202186584,0.83722686767578
312,2531363152,-0.14027707278728,0.70565354824066,122.77489471435547,-0.14719815552235,-0.02675537392497,9.99811935424805,1.23084080219269,1.84040832519531,0.82687872648239
313,2531371485,-0.13997088372707,0.70608925819397,122.77471160888672,-0.13693441450596,-0.01845603622496,10.02266979217529,1.36628901958466,1.84220147132874,0.80782175064087
314,2531379818,-0.14053706824780,0.70680999755859,122.77240753173828,-0.13786789774895,-0.02785154245794,10.01798343658447,1.25870919227600,1.87416803836823,0.76461052894592
315,2531388151,-0.14036072790623,0.70727252960205,122.77255249023438,-0.13280576467514,-0.01660829223692,9.99588966369629,1.34994697570801,1.84542882442474,0.84811294078827
316,2531396484,-0.14048627018929,0.70654135942459,122.77333831787109,-0.14325721561909,-0.02768583968282,10.01631641387939,1.31073141098022,1.69863343238831,0.85431152582169
317,2531404817,-0.14029344916344,0.70710289478302,122.77313232421875,-0.14000269770622,-0.02432767115533,10.01481628417969,1.35202193260193,1.85887610912323,0.80508095026016
318,2531413150,-0.14016294479370,0.70729631185532,122.77294921875000,-0.12926205992699,-0.02142805978656,10.00848007202148,1.34205782413483,1.81000447273254,0.86366081237793
319,2531421483,-0.14011402428150,0.70690858364105,122.77291107177734,-0.13359481096268,-0.01058857329190,10.03166675567627,1.33585917949677,1.74325346946716,0.82444536685944
320,2531429816,-0.14023558795452,0.70709496736526,122.77207946777344,-0.13994692265987,-0.00222990917973,10.01433277130127,1.31016802787781,1.80831372737885,0.84101772308350
321,2531438149,-0.14004926383495,0.70678806304932,122.77169799804688,-0.13391166925430,-0.00398569926620,10.01895713806152,1.35258531570435,1.75316619873047,0.78384673595428
322,2531446482,-0.13973070681095,0.70616245269775,122.77156066894531,-0.11642788350582,0.00240485090762,10.04425716400146,1.36488008499146,1.71187591552734,0.78400051593781
323,2531454815,-0.14098845422268,0.70748007297516,122.77142333984375,-0.13874129951000,-0.01037246547639,10.03246021270752,1.17779386043549,1.94809079170227,0.81458395719528
324,2531463148,-0.14161282777786,0.70845627784729,122.77244567871094,-0.13750016689301,-0.01981092244387,10.00219058990479,1.25043582916260,1.90259981155396,0.82401001453400
325,2531471481,-0.14125743508339,0.70920395851135,122.77247619628906,-0.12646673619747,-0.01969445124269,10.01264953613281,1.37102758884430,1.88087892532349,0.83484482765198
326,2531479814,-0.14133597910404,0.70977956056595,122.77247619628906,-0.14528326690197,-0.03298310935497,10.02146148681641,1.31508624553680,1.85505974292755,0.86445492506027
327,2531488147,-0.14119081199169,0.71026211977005,122.77188873291016,-0.13630379736423,-0.01692862808704,10.01965713500977,1.34746229648590,1.84773397445679,0.75774586200714
328,2531496480,-0.14095874130726,0.71054720878601,122.77125549316406,-0.13459962606430,-0.02885029464960,10.00618267059326,1.35230362415314,1.81930243968964,0.89844501018524
329,2531504813,-0.14065501093864,0.70939767360687,122.77139282226562,-0.11623905599117,-0.00640391418710,9.96425342559814,1.36434209346771,1.65321946144104,0.84683221578598
330,2531513146,-0.14035452902317,0.70962393283844,122.77066802978516,-0.14488837122917,-0.02026365697384,10.04590129852295,1.36172974109650,1.81246352195740,0.79232519865036
331,2531521479,-0.14054983854294,0.70973747968674,122.77045440673828,-0.12040903419256,-0.01807186193764,10.00951766967773,1.30522465705872,1.80416440963745,0.80487614870071
332,2531529812,-0.14111022651196,0.70988476276398,122.77161407470703,-0.13705238699913,-0.00608753273264,9.98548603057861,1.25730037689209,1.80244815349579,0.92272716760635
333,2531538145,-0.13960462808609,0.70937764644623,122.77173614501953,-0.13582843542099,-0.00243644043803,9.98566913604736,1.50883197784424,1.72914004325867,0.84588456153870
334,2531546478,-0.13925389945507,0.70863550901413,122.77073669433594,-0.12535077333450,-0.00907352659851,10.00025367736816,1.36667311191559,1.69737839698792,0.88991534709930
335,2531554811,-0.13918048143387,0.70914506912231,122.77054595947266,-0.13221269845963,-0.00457263691351,10.00887870788574,1.33734500408173,1.85126900672913,0.80805230140686
336,2531563144,-0.13937829434872,0.70862853527069,122.76992034912109,-0.09920742362738,-0.02037630975246,10.01319122314453,1.29976868629456,1.72230100631714,0.85497754812241
337,2531571477,-0.13970871269703,0.70837074518204,122.77012634277344,-0.13072474300861,-0.02505159936845,10.00553989410400,1.28898525238037,1.76031267642975,0.85651439428329
338,2531579810,-0.14004427194595,0.70899224281311,122.76959228515625,-0.13655258715153,-0.01825586147606,10.02329826354980,1.28340137004852,1.86025941371918,0.84475743770599
339,2531588143,-0.13978783786297,0.70886468887329,122.76969909667969,-0.11391080170870,-0.00335684930906,10.01357269287109,1.36044907569885,1.77324795722961,0.84457826614380
340,2531596476,-0.14045003056526,0.70939975976944,122.76873016357422,-0.14108715951443,-0.03765445947647,10.00463008880615,1.24354553222656,1.85024428367615,0.81376421451569
341,2531604809,-0.14115948975086,0.70949864387512,122.76843261718750,-0.14479799568653,-0.01367832813412,10.00483512878418,1.24508225917816,1.80193579196930,0.79411810636520
342,2531613142,-0.14193707704544,0.71036094427109,122.76795196533203,-0.14618529379368,-0.01019564736634,10.03242969512939,1.23071277141571,1.88994646072388,0.86278992891312
343,2531621475,-0.14196731150150,0.71087551116943,122.76755523681641,-0.12906314432621,-0.02618201822042,9.96905994415283,1.32545983791351,1.85080778598785,0.78297591209412
344,2531629808,-0.14166603982449,0.71135896444321,122.76694488525391,-0.13885509967804,-0.02707090973854,10.00544643402100,1.35845088958740,1.84371221065521,0.88492053747177
345,2531638141,-0.14204132556915,0.71084040403366,122.76696777343750,-0.12871289253235,-0.03073561564088,9.98300933837891,1.28442573547363,1.72701406478882,0.83458858728409
346,2531646474,-0.14160028100014,0.70971363782883,122.76635742187500,-0.12511144578457,-0.02000694163144,9.98107051849365,1.37676513195038,1.65045309066772,0.86276423931122
347,2531654807,-0.14175707101822,0.70899164676666,122.76620483398438,-0.13503269851208,-0.03517591208220,9.99448108673096,1.30963027477264,1.70437121391296,0.81189441680908
348,2531663140,-0.14223812520504,0.70960909128189,122.76544952392578,-0.13261228799820,-0.01613251306117,10.00842094421387,1.26634204387665,1.85854315757751,0.82603341341019
349,2531671473,-0.14293116331100,0.70951431989670,122.76586151123047,-0.14104402065277,-0.02840330824256,9.98491668701172,1.24567162990570,1.77875506877899,0.88031011819839
350,2531679806,-0.14325340092182,0.70934665203094,122.76576995849609,-0.13238352537155,-0.02076313085854,10.02420043945312,1.28624451160431,1.76410377025604,0.81373870372772
351,2531688139,-0.14345303177834,0.70930474996567,122.76551055908203,-0.13764950633049,-0.00377336260863,10.00073719024658,1.30542945861816,1.78456938266754,0.79913842678070
352,2531696472,-0.14391078054905,0.70887303352356,122.76523590087891,-0.12884251773357,-0.00644798623398,9.99470138549805,1.26887786388397,1.73354578018188,0.82055193185806
353,2531704805,-0.14404354989529,0.70861226320267,122.76548004150391,-0.13622263073921,-0.01671873219311,10.00246334075928,1.31360030174255,1.75857067108154,0.85956245660782
354,2531713138,-0.14449813961983,0.70960348844528,122.76456451416016,-0.13934543728828,-0.00800605397671,10.04981994628906,1.26787900924683,1.90382921695709,0.85080242156982
355,2531721471,-0.14435771107674,0.71023660898209,122.76473236083984,-0.13789136707783,-0.02446097694337,9.99802112579346,1.34589993953705,1.86602258682251,0.85082805156708
356,2531729804,-0.14332641661167,0.70994871854782,122.76441192626953,-0.13026121258736,-0.01234207022935,9.99084758758545,1.44756293296814,1.74999034404755,0.83663791418076
357,2531738137,-0.14356827735901,0.71094322204590,122.76420593261719,-0.13532325625420,-0.02682092785835,9.98993110656738,1.29976856708527,1.90987420082092,0.80605435371399
358,2531746470,-0.14384634792805,0.71217191219330,122.76366424560547,-0.11117795854807,-0.02440143749118,10.01634979248047,1.29216134548187,1.93174886703491,0.76881128549576
359,2531754803,-0.14390811324120,0.71136546134949,122.76445770263672,-0.13691353797913,-0.03767397254705,10.01896762847900,1.32049047946930,1.69194817543030,0.92638999223709
360,2531763136,-0.14399568736553,0.71191114187241,122.76375579833984,-0.14392568171024,-0.00359331676736,10.00326824188232,1.31339538097382,1.84955275058746,0.87288177013397
361,2531771469,-0.14414429664612,0.71155387163162,122.76388549804688,-0.13086712360382,-0.02259526588023,10.00254249572754,1.31091082096100,1.74837613105774,0.84350234270096
362,2531779802,-0.14431269466877,0.71126002073288,122.76311492919922,-0.13202966749668,-0.00982475746423,9.97419452667236,1.30217647552490,1.74855566024780,0.88904452323914
363,2531788135,-0.14458121359348,0.71161335706711,122.76344299316406,-0.13819091022015,-0.02844934351742,10.02141094207764,1.29674625396729,1.83185338973999,0.87108898162842
364,2531796468,-0.14531347155571,0.71175062656403,122.76471710205078,-0.14201934635639,-0.03458040207624,10.01080322265625,1.23332548141479,1.79978430271149,0.94472992420197
365,2531804801,-0.14577612280846,0.71070134639740,122.76422119140625,-0.12415064871311,-0.03062998130918,10.02734279632568,1.27474367618561,1.66461789608002,0.77249968051910
366,2531813134,-0.14593523740768,0.71045368909836,122.76239013671875,-0.13268630206585,-0.01613441668451,10.02025794982910,1.30619776248932,1.75437033176422,0.77575272321701
367,2531821467,-0.14622871577740,0.71113234758377,122.76254272460938,-0.13374534249306,-0.02113137580454,10.00242710113525,1.29221248626709,1.87229812145233,0.84808737039566
368,2531829800,-0.14579896628857,0.71161532402039,122.76300811767578,-0.14773869514465,-0.02678348310292,9.96498203277588,1.37561249732971,1.84099769592285,0.94362854957581
369,2531838133,-0.14640584588051,0.71082937717438,122.76248931884766,-0.12452554702759,-0.03730204328895,10.01265621185303,1.25609648227692,1.69607222080231,0.76724880933762
370,2531846466,-0.14650365710258,0.71005904674530,122.76221466064453,-0.11850918829441,-0.02338620461524,10.00702095031738,1.31385660171509,1.69082129001617,0.79324716329575
371,2531854799,-0.14712640643120,0.70935493707657,122.76210784912109,-0.11902447044849,-0.04063121229410,9.99755287170410,1.25397050380707,1.70616436004639,0.81606954336166
372,2531863132,-0.14716415107250,0.70906263589859,122.76162719726562,-0.13485015928745,-0.03642754629254,10.02186965942383,1.31956839561462,1.74863255023956,0.80461990833282
373,2531871465,-0.14688009023666,0.70779198408127,122.76068878173828,-0.13033746182919,-0.00556533690542,10.01852035522461,1.36569988727570,1.63764619827271,0.71727544069290
374,2531879798,-0.14699408411980,0.70849758386612,122.76029205322266,-0.12351324409246,-0.00686741573736,9.98086833953857,1.30973279476166,1.86925017833710,0.86051028966904
375,2531888131,-0.14686244726181,0.70858269929886,122.76026153564453,-0.13973094522953,-0.01946660131216,9.99907875061035,1.34423506259918,1.79993784427643,0.82859486341476
376,2531896464,-0.14673081040382,0.70921057462692,122.76071166992188,-0.11688559502363,-0.00099838268943,9.99105548858643,1.34139192104340,1.85987520217896,0.84765195846558
377,2531904797,-0.14679692685604,0.70994836091995,122.76110839843750,-0.12019240111113,-0.02566986717284,10.00405979156494,1.31892836093903,1.87798464298248,0.87874758243561
378,2531913130,-0.14692817628384,0.70949918031693,122.76136779785156,-0.15116809308529,-0.00037200690713,10.00132179260254,1.30809330940247,1.72975480556488,0.86230319738388
379,2531921463,-0.14744421839714,0.70942443609238,122.76139831542969,-0.12888373434544,-0.01613113656640,10.00324153900146,1.26805818080902,1.78226399421692,0.83374333381653
380,2531929796,-0.14696604013443,0.70901763439178,122.76010894775391,-0.13872419297695,-0.01900518685579,9.98255825042725,1.38158059120178,1.73428857326508,0.80838519334793
381,2531938129,-0.14722695946693,0.70999342203140,122.75974273681641,-0.12805959582329,-0.01345914695412,10.01677513122559,1.29805254936218,1.90797853469849,0.78622895479202
382,2531946462,-0.14660616219044,0.70934355258942,122.75865173339844,-0.12207163125277,-0.00658694049343,9.98770046234131,1.39751267433167,1.70593357086182,0.80533713102341
383,2531954795,-0.14722596108913,0.70987635850906,122.75875854492188,-0.14063912630081,-0.02433414570987,10.00974941253662,1.25448298454285,1.85367667675018,0.84352803230286
384,2531963128,-0.14680778980255,0.70999449491501,122.75798034667969,-0.14071971178055,-0.01302267797291,9.98894500732422,1.37484407424927,1.79701805114746,0.80905121564865
385,2531971461,-0.14693763852119,0.70943212509155,122.75807952880859,-0.13929675519466,-0.01830658689141,10.01756191253662,1.31237101554871,1.72414529323578,0.84145319461823
386,2531979794,-0.14677654206753,0.70983833074570,122.75899505615234,-0.11201705038548,-0.02768223360181,10.01032066345215,1.34272372722626,1.83157134056091,0.87680095434189
387,2531988127,-0.14721280336380,0.71055305004120,122.75914001464844,-0.14484263956547,-0.01422677934170,10.02113056182861,1.27622938156128,1.87644767761230,0.84867650270462
388,2531996460,-0.14718241989613,0.71138542890549,122.75859832763672,-0.15032981336117,-0.05456124618649,9.99460315704346,1.32830309867859,1.88313317298889,0.79688447713852
389,2532004793,-0.14673610031605,0.71017777919769,122.75926208496094,-0.10473993420601,-0.02631479129195,9.98446655273438,1.38083779811859,1.64474141597748,0.91217422485352
390,2532013126,-0.14672635495663,0.70873606204987,122.75956726074219,-0.11861818283796,-0.02395025268197,10.00541973114014,1.32592082023621,1.61110973358154,0.81366181373596
391,2532021459,-0.14732985198498,0.70876109600067,122.75931549072266,-0.12049567699432,-0.01228073332459,10.03974914550781,1.25709521770477,1.79302203655243,0.79993247985840
392,2532029792,-0.14654564857483,0.70821046829224,122.75836181640625,-0.12399061024189,-0.01491495594382,9.97720813751221,1.41797840595245,1.71687078475952,0.79965078830719
393,2532038125,-0.14617341756821,0.70795047283173,122.75794219970703,-0.14406937360764,-0.02887638099492,9.99696254730225,1.37412691116333,1.75982606410980,0.77764827013016
394,2532046458,-0.14646613597870,0.70725858211517,122.75769042968750,-0.12374456226826,-0.03113549575210,10.00516128540039,1.28837037086487,1.70065701007843,0.85108417272568
395,2532054791,-0.14648295938969,0.70758932828903,122.75881195068359,-0.12053791433573,-0.01396316848695,9.99339485168457,1.32507574558258,1.82906126976013,0.96473455429077
396,2532063124,-0.14696197211742,0.70764732360840,122.75870513916016,-0.14471043646336,-0.01947870664299,10.00100231170654,1.26654720306396,1.79117786884308,0.83991634845734
397,2532071457,-0.14697672426701,0.70785421133041,122.75830841064453,-0.10237743705511,-0.01160052046180,10.01436138153076,1.32773947715759,1.81535780429840,0.78138792514801
398,2532079790,-0.14747011661530,0.70740431547165,122.75733947753906,-0.13581240177155,-0.00402505416423,9.99408435821533,1.26439547538757,1.73100996017456,0.85364556312561
399,2532088123,-0.14725603163242,0.70807445049286,122.75737762451172,-0.15662503242493,-0.01702376641333,10.00442028045654,1.35414791107178,1.86950623989105,0.83656096458435
400,2532096456,-0.14788781106472,0.70969963073730,122.75701141357422,-0.13448727130890,-0.03159195929766,10.02307224273682,1.24854040145874,1.97836685180664,0.86455732584000
401,2532104789,-0.14866285026073,0.70976430177689,122.75609588623047,-0.12199322134256,-0.03421954810619,9.99730873107910,1.23693692684174,1.79886198043823,0.72139930725098
402,2532113122,-0.14860376715660,0.70875078439713,122.75582122802734,-0.12676081061363,-0.02241428196430,10.00547599792480,1.33014714717865,1.66118550300598,0.91417205333710
403,2532121455,-0.14763423800468,0.70812648534775,122.75597381591797,-0.12233672291040,-0.01851738430560,10.01155757904053,1.44507825374603,1.71497559547424,0.84913754463196
404,2532129788,-0.14749965071678,0.70881056785583,122.75559997558594,-0.12627835571766,-0.04963114112616,10.01039218902588,1.33916354179382,1.86684250831604,0.84083855152130
405,2532138121,-0.14761404693127,0.71009343862534,122.75563049316406,-0.13498976826668,-0.01116435509175,9.97903633117676,1.31513750553131,1.94447910785675,0.83487045764923
406,2532146454,-0.14730246365070,0.71080005168915,122.75575256347656,-0.13344292342663,-0.03383035585284,9.99625587463379,1.36272859573364,1.86802041530609,0.80100834369659
407,2532154787,-0.14701867103577,0.71014374494553,122.75624847412109,-0.12864375114441,-0.00567059963942,10.00595951080322,1.36234426498413,1.71213233470917,0.88932615518570
408,2532163120,-0.14774551987648,0.71021735668182,122.75625610351562,-0.12912538647652,-0.00916936807334,9.98442935943604,1.23668074607849,1.79176712036133,0.78740721940994
409,2532171453,-0.14758610725403,0.70967566967010,122.75708007812500,-0.12963730096817,-0.01950845494866,9.99486064910889,1.34741127490997,1.72563111782074,0.92913079261780
410,2532179786,-0.14752705395222,0.70965939760208,122.75651550292969,-0.13429951667786,-0.01589760184288,10.01478767395020,1.32986545562744,1.78185439109802,0.88486945629120
411,2532188119,-0.14747644960880,0.70943790674210,122.75618743896484,-0.14400370419025,-0.01372588332742,10.01213169097900,1.33614099025726,1.76315557956696,0.79066020250320
412,2532196452,-0.14741577208042,0.70988559722900,122.75653076171875,-0.14488710463047,-0.00038235401735,10.01871013641357,1.32917392253876,1.83771872520447,0.92367488145828
413,2532204785,-0.14701904356480,0.70972675085068,122.75672149658203,-0.14549276232719,-0.01955419778824,10.00773334503174,1.37574052810669,1.77125012874603,0.85328704118729
414,2532213118,-0.14729245007038,0.70956945419312,122.75587463378906,-0.12544831633568,-0.02494515292346,9.99966716766357,1.29157209396362,1.76410353183746,0.82600784301758
415,2532221451,-0.14767768979073,0.70838218927383,122.75637054443359,-0.13518539071083,-0.02082890644670,9.99867916107178,1.28186428546906,1.64696955680847,0.88937747478485
416,2532229784,-0.14866006374359,0.70831882953644,122.75683593750000,-0.14550241827965,-0.01119820587337,10.02301025390625,1.20443248748779,1.77562987804413,0.89309155941010
417,2532238117,-0.14909708499908,0.70825004577637,122.75669860839844,-0.14149467647076,-0.00805433653295,9.99770355224609,1.27794539928436,1.78211033344269,0.81468635797501
418,2532246450,-0.14873480796814,0.70864921808243,122.75557708740234,-0.14890202879906,-0.02919218316674,9.98245525360107,1.36628878116608,1.83164823055267,0.87508469820023
419,2532254783,-0.14862178266048,0.70835298299789,122.75580596923828,-0.13000495731831,-0.00955394655466,10.01099491119385,1.34233975410461,1.75431907176971,0.85718041658401
420,2532263116,-0.14890144765377,0.70904970169067,122.75647735595703,-0.12059696018696,-0.01852037385106,9.99841022491455,1.28819108009338,1.86668884754181,0.87754368782043
421,2532271449,-0.14963811635971,0.70932644605637,122.75713348388672,-0.12586492300034,-0.01161013729870,9.99028015136719,1.23921668529510,1.82332396507263,0.91112399101257
422,2532279782,-0.14987005293369,0.70823490619659,122.75735473632812,-0.12694619596004,-0.02857731096447,9.98464870452881,1.29684865474701,1.65086305141449,0.82941460609436
423,2532288115,-0.14973868429661,0.70834237337112,122.75706481933594,-0.14482086896896,-0.02017457783222,10.01008605957031,1.34533631801605,1.80447149276733,0.79783219099045
424,2532296448,-0.15053756535053,0.70792114734650,122.75682067871094,-0.12556678056717,-0.01572737284005,9.96418094635010,1.22684514522552,1.73147106170654,0.82546997070312
425,2532304781,-0.15052764117718,0.70729386806488,122.75703430175781,-0.12443383038044,-0.03972340002656,10.03518390655518,1.32981419563293,1.71533405780792,0.85820490121841
426,2532313114,-0.15053467452526,0.70786064863205,122.75611114501953,-0.13255253434181,-0.03707927465439,9.97160720825195,1.32212996482849,1.85101270675659,0.79463040828705
427,2532321447,-0.15017482638359,0.70817446708679,122.75590515136719,-0.14209215342999,0.00623766332865,10.00052928924561,1.37346088886261,1.82716572284698,0.80674594640732
428,2532329780,-0.15058563649654,0.70747578144073,122.75580596923828,-0.11980602890253,-0.01411341968924,10.01444625854492,1.27292513847351,1.69927418231964,0.86888617277145
429,2532338113,-0.15136343240738,0.70727539062500,122.75625610351562,-0.12783639132977,-0.00891005806625,9.98392200469971,1.23596346378326,1.76671612262726,0.88535594940186
430,2532346446,-0.15148414671421,0.70555430650711,122.75646209716797,-0.11728098988533,-0.01529133692384,10.02676296234131,1.30686390399933,1.57729876041412,0.88087350130081
431,2532354779,-0.15187655389309,0.70580583810806,122.75703430175781,-0.14472460746765,-0.02718289382756,9.99922180175781,1.28091657161713,1.81881558895111,0.90049397945404
432,2532363112,-0.15123392641544,0.70533108711243,122.75708007812500,-0.15214630961418,-0.01020160317421,9.99918460845947,1.40097045898438,1.72716772556305,0.82897907495499
433,2532371445,-0.15174800157547,0.70530253648758,122.75702667236328,-0.13151766359806,-0.01419440284371,9.98749256134033,1.26798141002655,1.78641343116760,0.82388174533844
434,2532379778,-0.15143714845181,0.70583504438400,122.75642395019531,-0.11901670694351,-0.02048948779702,9.96581363677979,1.36139667034149,1.84755492210388,0.77234613895416
435,2532388111,-0.15110124647617,0.70697855949402,122.75637054443359,-0.15064764022827,0.00259174779058,10.00135040283203,1.36879920959473,1.92683100700378,0.82370257377625
436,2532396444,-0.14890645444393,0.70645970106125,122.75706481933594,0.33520731329918,-0.06508297473192,9.94620132446289,1.58682751655579,1.72004723548889,0.85326147079468
437,2532404777,-0.14562226831913,0.70937681198120,122.75910186767578,2.20651507377625,0.03170893341303,10.47808933258057,1.71843338012695,2.14035105705261,1.07638692855835
438,2532413110,-0.14940325915813,0.71053385734558,122.75885772705078,-0.61399888992310,-0.13780638575554,9.52227306365967,0.87026929855347,1.94558048248291,0.75464659929276
439,2532421443,-0.15176321566105,0.70605105161667,122.75944519042969,1.08029699325562,-0.12601450085640,10.00695228576660,1.04534244537354,1.25163948535919,0.90131372213364
440,2532429776,-0.14461450278759,0.71312642097473,122.76311492919922,1.51111412048340,-0.06575229018927,10.02363777160645,2.18256354331970,2.66149854660034,0.82954269647598
441,2532438109,-0.15287861227989,0.71046692132950,122.76177978515625,-2.73297977447510,0.06935396790504,9.96536922454834,0.33964478969574,1.47133302688599,0.66840350627899
442,2532446442,-0.14463675022125,0.70486229658127,122.76721191406250,1.04070818424225,0.13445907831192,10.24756717681885,2.31191539764404,1.13063800334930,0.94749623537064
443,2532454775,-0.14683553576469,0.71355170011520,122.76905822753906,0.21755422651768,-0.11545719206333,9.78775882720947,1.06301641464233,2.83311390876770,1.05277073383331
444,2532463108,-0.15864224731922,0.71334469318390,122.76993560791016,-1.59121525287628,0.09133441746235,10.06629943847656,-0.09168615192175,1.79030692577362,0.65874689817429
445,2532471441,-0.15108741819859,0.70912271738052,122.77079772949219,1.84504580497742,-0.02569693699479,10.11467361450195,2.23476505279541,1.28309392929077,0.93051391839981
446,2532479774,-0.14818380773067,0.71405452489853,122.77360534667969,-0.98306411504745,-0.16419483721256,9.69924163818359,1.67217409610748,2.41216945648193,0.78930264711380
447,2532488107,-0.14646376669407,0.71226912736893,122.77411651611328,-0.66288256645203,0.18350224196911,10.27515602111816,1.53470242023468,1.57522416114807,0.89163148403168
448,2532496440,-0.14414051175117,0.71162885427475,122.77718353271484,0.61998462677002,-0.09557624906301,10.03725147247314,1.60199093818665,1.73262357711792,0.77201300859451
449,2532504773,-0.16066977381706,0.71409595012665,122.77661132812500,-0.57265299558640,-0.14897012710571,9.78893852233887,-0.65363681316376,2.08545970916748,0.76297122240067
450,2532513106,-0.16148251295090,0.71353775262833,122.78141021728516,-0.66616010665894,0.07339199632406,10.17259120941162,1.22287487983704,1.74245977401733,1.09805667400360
451,2532521439,-0.14774821698666,0.71089458465576,122.78253936767578,0.76624494791031,-0.25012066960335,9.99443817138672,2.97455525398254,1.47276711463928,0.96565663814545
452,2532529772,-0.14640156924725,0.71290856599808,122.78494262695312,-1.30454730987549,0.06457645446062,9.86419773101807,1.48995447158813,2.05479955673218,0.62475675344467
453,2532538105,-0.14387385547161,0.71081209182739,122.78791046142578,0.33223208785057,0.22137638926506,10.19042873382568,1.62786149978638,1.53808355331421,1.18693804740906
454,2532546438,-0.15006932616234,0.71066719293594,122.79136657714844,0.91879713535309,-0.32370194792747,10.00681304931641,0.57883048057556,1.78861629962921,0.83525454998016
455,2532554771,-0.15983164310455,0.71203637123108,122.78919219970703,-0.74121755361557,0.09149801731110,9.92484855651855,0.16198441386223,1.95623600482941,0.56932759284973
456,2532563104,-0.14692710340023,0.71200364828110,122.79340362548828,-0.24128597974777,0.22163495421410,9.99627876281738,2.87056159973145,1.80490696430206,1.01829397678375
457,2532571437,-0.14475198090076,0.71467465162277,122.79465484619141,0.36266323924065,-0.18023377656937,9.95939445495605,1.58713483810425,2.11071515083313,0.98174238204956
458,2532579770,-0.14914351701736,0.71279144287109,122.79544067382812,-1.10579001903534,0.11674287915230,9.95793247222900,0.80047041177750,1.58687865734100,0.50209021568298
459,2532588103,-0.14134024083614,0.71352165937424,122.79916381835938,0.16562275588512,0.16009514033794,10.04627227783203,2.25984144210815,1.87652468681335,1.27966153621674
460,2532596436,-0.15490056574345,0.71379685401917,122.80107879638672,0.81411802768707,-0.21813197433949,10.08739948272705,-0.30343902111053,1.84086942672729,0.62759995460510
461,2532604769,-0.16818934679031,0.71407371759415,122.79978179931641,-1.14754784107208,0.01799805462360,10.01063919067383,-0.26401871442795,1.82378470897675,0.67516559362411
462,2532613102,-0.16156697273254,0.71168857812881,122.80532836914062,-0.25008812546730,-0.13316880166531,9.93983554840088,2.11504411697388,1.51856541633606,1.05894362926483
463,2532621435,-0.14585773646832,0.71523743867874,122.80535125732422,0.89685881137848,-0.44184511899948,10.12970542907715,3.21433019638062,2.21573376655579,0.83481907844543
464,2532629768,-0.14551931619644,0.71250617504120,122.80698394775391,-1.72032797336578,0.33633598685265,9.95879936218262,1.36902952194214,1.48606109619141,0.62834280729294
465,2532638101,-0.15567298233509,0.71219897270203,122.81053161621094,0.51438277959824,0.17828406393528,10.01733398437500,0.10453169047832,1.75134766101837,1.25765872001648
466,2532646434,-0.16125549376011,0.71269100904465,122.81376647949219,0.69008761644363,-0.35167580842972,9.99662590026855,0.65334230661392,1.86458814144135,0.83720117807388
467,2532654767,-0.15260709822178,0.71105712652206,122.81278228759766,-1.55617761611938,0.10955706238747,9.98160552978516,2.36706280708313,1.59433245658875,0.71307474374771
468,2532663100,-0.14704935252666,0.71103894710541,122.82010650634766,1.16495239734650,0.21569299697876,10.07230186462402,1.98464238643646,1.79668509960175,1.30204844474792
469,2532671433,-0.15719474852085,0.71146833896637,122.81561279296875,-0.45680359005928,-0.00795267336071,9.74328231811523,0.11908055841923,1.84384047985077,0.29156678915024
470,2532679766,-0.15122631192207,0.71131294965744,122.81909942626953,-1.17732858657837,-0.06386404484510,10.08535194396973,2.03669047355652,1.78866779804230,0.90787100791931
471,2532688099,-0.14870704710484,0.71357947587967,122.82119750976562,1.75694119930267,-0.01618826761842,10.16147804260254,1.62896299362183,2.06194615364075,1.08553135395050
472,2532696432,-0.17514069378376,0.71170312166214,122.81674957275391,-1.31817269325256,0.06120847910643,9.75813865661621,-1.84421217441559,1.58864605426788,0.29592126607895
473,2532704765,-0.18968079984188,0.70960545539856,122.81806945800781,-0.28014987707138,-0.01740552857518,10.10041618347168,-0.41831883788109,1.53785300254822,0.98906797170639
474,2532713098,-0.17273668944836,0.70736420154572,122.82143402099609,1.10916602611542,-0.44678673148155,10.07371425628662,3.35377430915833,1.53383171558380,0.93020659685135
475,2532721431,-0.14221610128880,0.71152013540268,122.81806182861328,-1.31264531612396,0.14168632030487,9.79046249389648,4.99626159667969,2.29034805297852,0.42898723483086
476,2532729764,-0.14862418174744,0.71043407917023,122.81932830810547,-0.22874356806278,0.40987306833267,10.18406295776367,0.55928677320480,1.65944373607635,0.98286932706833
477,2532738097,-0.16659353673458,0.70537763834000,122.81476593017578,1.18491220474243,-0.30426591634750,10.12789916992188,-2.12023115158081,1.59545958042145,0.81919449567795
478,2532746430,-0.18178896605968,0.70299649238586,122.81153106689453,-2.08925247192383,-0.09074811637402,9.70210170745850,-0.49849143624306,1.52586543560028,0.45073369145393
479,2532754763,-0.16825872659683,0.70218288898468,122.81550598144531,0.53293460607529,-0.02851760946214,10.09916877746582,2.94307565689087,1.69307541847229,1.30970716476440
480,2532763096,-0.13616445660591,0.70166373252869,122.81590270996094,0.86415088176727,-0.22399294376373,9.92316150665283,5.17228269577026,1.74107646942139,0.88735401630402
481,2532771429,-0.14054919779301,0.70260256528854,122.81179046630859,-2.02618694305420,0.40009576082230,10.01277446746826,0.80461990833282,1.90377795696259,0.34008017182350
482,2532779762,-0.15768077969551,0.70369678735733,122.82293701171875,1.81320750713348,-0.21216498315334,10.14799976348877,-0.75184184312820,1.92529416084290,2.16845011711121
483,2532788095,-0.15822485089302,0.70097762346268,122.82514953613281,-0.45190683007240,-0.21001403033733,9.87438774108887,1.25686502456665,1.46346938610077,1.09874832630157
484,2532796428,-0.14135202765465,0.69877123832703,122.82504272460938,-0.90343558788300,0.21415019035339,9.91941642761230,3.34639716148376,1.54292464256287,0.82336956262589
485,2532804761,-0.13313671946526,0.69710022211075,122.82815551757812,0.95278722047806,0.19683979451656,10.46242237091064,2.30679202079773,1.59041345119476,1.20561063289642
486,2532813094,-0.16429017484188,0.70152312517166,122.82677459716797,-0.96841424703598,-0.20631904900074,9.62505245208740,-2.41740775108337,2.33986043930054,0.66755825281143
487,2532821427,-0.17984552681446,0.69936037063599,122.82553100585938,-0.43898350000381,0.12605065107346,10.06869888305664,-0.53914123773575,1.53244853019714,0.68448930978775
488,2532829760,-0.15921559929848,0.69909870624542,122.82801818847656,1.20867991447449,-0.39370062947273,10.12643241882324,3.79100942611694,1.76881682872772,1.13058686256409
489,2532838093,-0.14685913920403,0.69913023710251,122.82447814941406,-0.89226412773132,-0.07164768129587,9.63138198852539,2.81321167945862,1.79542982578278,0.41003268957138
490,2532846426,-0.14197374880314,0.70003658533096,122.82565307617188,0.07512056082487,0.40757277607918,10.42628860473633,1.90664672851562,1.91397273540497,0.97613298892975
491,2532854759,-0.15138614177704,0.69824635982513,122.82618713378906,-0.01024878211319,-0.19395104050636,10.05332279205322,0.19364359974861,1.57542920112610,0.89811193943024
492,2532863092,-0.16156022250652,0.69731223583221,122.82312774658203,-1.03387427330017,-0.18966104090214,9.59445858001709,0.10537695884705,1.69550859928131,0.46218320727348
493,2532871425,-0.14409962296486,0.70082670450211,122.82610321044922,0.74978190660477,0.18857708573341,10.55429744720459,3.41545367240906,2.21250629425049,1.19336724281311
494,2532879758,-0.14786332845688,0.69664245843887,122.82260894775391,-0.41100236773491,-0.02594336122274,9.65267562866211,0.87303555011749,1.30491709709167,0.41856217384338
495,2532888091,-0.17151401937008,0.69663214683533,122.82183074951172,-0.81332373619080,-0.06801637262106,9.88209724426270,-1.51089394092560,1.78964090347290,0.74194192886353
496,2532896424,-0.16057799756527,0.70040673017502,122.82509613037109,0.79546493291855,-0.06533498317003,10.46327781677246,2.62702107429504,2.25220823287964,1.21670150756836
497,2532904757,-0.13705459237099,0.69842082262039,122.82151794433594,-0.92914545536041,0.08351518213749,9.69880104064941,4.15447568893433,1.55434858798981,0.40567827224731
498,2532913090,-0.14639006555080,0.70172309875488,122.82148742675781,-0.52767932415009,-0.02165734395385,10.02135562896729,0.20017525553703,2.19649744033813,0.83466547727585
499,2532921423,-0.15657062828541,0.70404934883118,122.82465362548828,1.11531412601471,-0.01176387351006,10.15497684478760,0.09728286415339,2.06840062141418,1.21426844596863
500,2532929756,-0.15572258830070,0.69967055320740,122.81993103027344,-0.69285351037979,-0.12846487760544,9.60693550109863,1.43014538288116,1.28232550621033,0.27212566137314
501,2532938089,-0.14778906106949,0.70658594369888,122.82431793212891,0.01107144169509,-0.10351277142763,10.21195888519287,2.27006125450134,2.61931133270264,1.36175501346588
502,2532946422,-0.14644828438759,0.70131552219391,122.82299041748047,0.29477688670158,0.10836391896009,10.18533134460449,1.48454976081848,1.16987895965576,0.66801923513412
503,2532954755,-0.15929755568504,0.70029640197754,122.82136535644531,-0.76730734109879,0.09004431217909,9.80241012573242,-0.21445517241955,1.67032968997955,0.63971549272537
504,2532963088,-0.15512882173061,0.70321160554886,122.82231903076172,-0.17915637791157,-0.06351979076862,10.09197139739990,1.81771421432495,2.15041756629944,0.94193792343140
505,2532971421,-0.15041269361973,0.70739263296127,122.82569122314453,0.30865895748138,-0.08630753308535,10.20144081115723,1.88620650768280,2.29134702682495,1.24072802066803
506,2532979754,-0.16588591039181,0.70133042335510,122.82095336914062,-0.67012840509415,0.01118704676628,9.72573471069336,-0.52853697538376,1.07759094238281,0.26072731614113
507,2532988087,-0.16288261115551,0.70592898130417,122.82558441162109,-0.19586478173733,-0.15860892832279,10.04713344573975,1.67850100994110,2.34144878387451,1.39254367351532
508,2532996420,-0.14489454030991,0.70769590139389,122.82820892333984,0.45775404572487,-0.04551003873348,10.20387935638428,3.47544169425964,2.01133203506470,1.14388048648834
509,2533004753,-0.15686962008476,0.70222371816635,122.82174682617188,-0.68205922842026,0.20638102293015,9.72551155090332,-0.10303325951099,1.13660597801208,0.05535236001015
510,2533013086,-0.16996054351330,0.70890337228775,122.82476806640625,-0.39030158519745,0.06419348716736,9.96090030670166,-0.25592464208603,2.59871768951416,1.20215284824371
511,2533021419,-0.15579870343208,0.71081137657166,122.82788085937500,0.51969397068024,-0.16457562148571,10.39178752899170,3.02050709724426,2.02032256126404,1.20768558979034
512,2533029752,-0.14921307563782,0.70374637842178,122.82211303710938,-0.47854068875313,-0.09551115334034,9.71073818206787,2.11916804313660,0.95556461811066,0.13985371589661
513,2533038085,-0.14735864102840,0.71026551723480,122.82570648193359,-0.14345467090607,0.32965582609177,10.03813934326172,1.54277098178864,2.57215595245361,1.26636779308319
514,2533046418,-0.15341433882713,0.70700037479401,122.82632446289062,0.27924388647079,-0.12356268614531,10.14254760742188,0.59033125638962,1.40596532821655,0.90792208909988
515,2533054751,-0.16845388710499,0.70800554752350,122.82425689697266,-0.28093248605728,-0.29028770327568,9.74755096435547,-0.47625827789307,1.91425418853760,0.58797478675842
516,2533063084,-0.16342270374298,0.70712238550186,122.82440948486328,-0.12213492393494,0.11634565889835,9.98271274566650,1.92327046394348,1.69328033924103,0.85259550809860
517,2533071417,-0.15032085776329,0.70941060781479,122.82651519775391,-0.17500826716423,-0.13125109672546,10.21226596832275,2.89520239830017,2.06589031219482,1.08773398399353
518,2533079750,-0.15655496716499,0.70541620254517,122.82288360595703,-0.10533991456032,-0.01120850536972,9.68374061584473,0.57813888788223,1.32146394252777,0.39433112740517
519,2533088083,-0.15160238742828,0.71130323410034,122.82592773437500,0.00816973205656,-0.01099953800440,10.45761775970459,1.91525316238403,2.49638891220093,1.20181977748871
520,2533096416,-0.15194991230965,0.70717811584473,122.82250976562500,-0.53683930635452,0.13014161586761,9.84791946411133,1.28337574005127,1.30717146396637,0.42683565616608
521,2533104749,-0.16296125948429,0.70868307352066,122.82425689697266,-0.46339875459671,-0.23253372311592,9.84825229644775,0.00140878290404,1.97211658954620,1.04434359073639
522,2533113082,-0.15775623917580,0.71193599700928,122.82701873779297,0.48117563128471,-0.02845672890544,10.19816589355469,1.94089305400848,2.18581628799438,1.16360354423523
523,2533121415,-0.15209639072418,0.70403110980988,122.82283782958984,-0.30769419670105,-0.02294211089611,9.85544776916504,2.01112723350525,0.84411710500717,0.32947590947151
524,2533129748,-0.15599216520786,0.70842456817627,122.82532501220703,-0.15577971935272,0.13721066713333,9.98565769195557,0.84880459308624,2.32556772232056,1.14357316493988
525,2533138081,-0.15751893818378,0.70662271976471,122.82359313964844,-0.20044033229351,-0.11902344971895,10.22135925292969,1.14513552188873,1.57519865036011,0.62613999843597
526,2533146414,-0.15584790706635,0.70645773410797,122.82309722900391,-0.62752169370651,0.08790969848633,9.72513484954834,1.52176725864410,1.77798640727997,0.77357548475266
527,2533154747,-0.15688465535641,0.70964080095291,122.82563018798828,0.16811983287334,-0.06000262126327,10.08226394653320,1.19656884670258,2.17265057563782,1.13745141029358
528,2533163080,-0.15697629749775,0.70871973037720,122.82658386230469,0.93942129611969,-0.05161457881331,10.26562595367432,1.30776035785675,1.68505799770355,0.94462722539902
529,2533171413,-0.15923140943050,0.70370978116989,122.82334899902344,-0.67502808570862,-0.08327339589596,9.70461273193359,1.05832898616791,1.19165110588074,0.44225537776947
530,2533179746,-0.15516434609890,0.71025550365448,122.82711791992188,-0.00405960716307,-0.00554133206606,10.00631332397461,1.80347263813019,2.58406639099121,1.29193067550659
531,2533188079,-0.15564230084419,0.70686852931976,122.82466888427734,-0.37110975384712,0.02113411203027,10.22511005401611,1.27197730541229,1.38557624816895,0.53943568468094
532,2533196412,-0.16233246028423,0.70870941877365,122.82514953613281,-0.82620972394943,0.13154916465282,9.74733448028564,0.51546084880829,2.01978468894958,0.89496135711670
533,2533204745,-0.15552543103695,0.71185815334320,122.82741546630859,0.66125345230103,-0.05629515275359,10.23190021514893,2.13860940933228,2.16852664947510,1.10825097560883
534,2533213078,-0.15519334375858,0.70937967300415,122.82591247558594,-0.36037680506706,-0.11369648575783,9.97315311431885,1.36208808422089,1.50186502933502,0.64855241775513
535,2533221411,-0.16081956028938,0.71117407083511,122.82745361328125,-0.34138050675392,0.01832117512822,9.72562026977539,0.64773273468018,2.00577378273010,1.02159810066223
536,2533229744,-0.15375496447086,0.71271127462387,122.82884979248047,0.13342697918415,-0.04747954010963,10.41481399536133,2.16640090942383,1.98097944259644,1.00167024135590
537,2533238077,-0.15714398026466,0.70883381366730,122.82620239257812,-0.23359657824039,-0.06090658158064,9.72442722320557,0.92131835222244,1.32671487331390,0.51469242572784
538,2533246410,-0.16424702107906,0.71332871913910,122.82633972167969,-0.22923673689365,-0.02162118256092,9.91620349884033,0.46799772977829,2.33589029312134,0.85472142696381
539,2533254743,-0.15754276514053,0.71401715278625,122.82753753662109,0.37530541419983,-0.12728130817413,10.22683048248291,2.12828707695007,1.87401437759399,0.97866880893707
540,2533263076,-0.16016690433025,0.70901316404343,122.82434082031250,-0.82596021890640,0.03059270977974,9.72567081451416,1.01063525676727,1.20020616054535,0.45029821991920
541,2533271409,-0.15836809575558,0.71372210979462,122.82882690429688,0.20213009417057,0.16563425958157,10.11386680603027,1.53326809406281,2.35428118705750,1.37387073040009
542,2533279742,-0.15649120509624,0.71158111095428,122.82701873779297,0.03003918379545,-0.13156148791313,10.18651199340820,1.54863655567169,1.54172086715698,0.61740553379059
543,2533288075,-0.16233119368553,0.71327781677246,122.82543182373047,-0.72111856937408,0.04389050230384,9.67317962646484,0.62670350074768,1.99547696113586,0.64284044504166
544,2533296408,-0.15530058741570,0.71704345941544,122.82883453369141,0.38474640250206,0.16972757875919,10.23961067199707,2.15741014480591,2.24652218818665,1.25309956073761
545,2533304741,-0.16181053221226,0.71836996078491,122.82947540283203,0.57864248752594,-0.17691724002361,10.33244800567627,0.54345721006393,1.95001161098480,0.91079092025757
546,2533313074,-0.17170740664005,0.71328032016754,122.82501220703125,-1.03553128242493,0.01707405783236,9.51916694641113,0.13908529281616,1.19162547588348,0.29438439011574
547,2533321407,-0.15370191633701,0.71764367818832,122.83162689208984,0.23576970398426,-0.04401004314423,10.24995326995850,3.47641539573669,2.31250452995300,1.62837374210358
548,2533329740,-0.15771812200546,0.71618998050690,122.82916259765625,-0.23520241677761,-0.07749827951193,10.08723926544189,0.84050559997559,1.62437808513641,0.54576253890991
549,2533338073,-0.17469872534275,0.71598941087723,122.82817077636719,-0.90062510967255,0.00910342298448,9.46948528289795,-0.71157622337341,1.76822745800018,0.71397113800049
550,2533346406,-0.16605912148952,0.72195512056351,122.83097076416016,0.76489573717117,-0.08470131456852,10.44710159301758,2.35310292243958,2.50909352302551,1.17671775817871
551,2533354739,-0.16130541265011,0.71956402063370,122.82782745361328,-0.31198793649673,-0.28846120834351,10.02701091766357,1.90034568309784,1.50458014011383,0.45631757378578
552,2533363072,-0.16160172224045,0.71955305337906,122.82834625244141,-0.54915684461594,0.36861050128937,9.62919521331787,1.28475880622864,1.79653143882751,0.90482294559479
553,2533371405,-0.15525817871094,0.72230595350266,122.83099365234375,0.15090958774090,0.00175637938082,10.41927909851074,2.08133554458618,2.12047410011292,1.15474081039429
554,2533379738,-0.16629566252232,0.72297865152359,122.82939910888672,-0.19417935609818,-0.19483976066113,9.83607196807861,-0.00193387491163,1.87870180606842,0.63341444730759
555,2533388071,-0.17364548146725,0.71948462724686,122.82673645019531,-0.52439635992050,0.07803036272526,9.73172187805176,0.44753190875053,1.37264120578766,0.51233589649200
556,2533396404,-0.16015633940697,0.72922229766846,122.83394622802734,0.50513720512390,-0.00812790356576,10.44173622131348,2.92652893066406,2.95926356315613,1.70073413848877
557,2533404737,-0.16739837825298,0.71912157535553,122.82765197753906,-0.18480084836483,-0.08257241547108,9.86899948120117,0.46558994054794,0.58105885982513,0.07694515585899
558,2533413070,-0.17258107662201,0.72416704893112,122.83002471923828,-0.27801647782326,-0.05353210493922,9.89357852935791,0.69545203447342,2.40169310569763,1.11716485023499
559,2533421403,-0.15647888183594,0.72179597616196,122.83010864257812,-0.18818429112434,-0.01982931420207,10.21063518524170,3.25610733032227,1.50798678398132,0.84209352731705
560,2533429736,-0.16137985885143,0.72356259822845,122.83024597167969,-0.37489366531372,0.10206016898155,9.84444427490234,0.73259264230728,2.00759243965149,0.85426032543182
561,2533438069,-0.17636327445507,0.72466719150543,122.82901763916016,0.08027938008308,-0.06578691303730,10.00846290588379,-0.47195509076118,1.92327034473419,0.68735796213150
562,2533446402,-0.16851189732552,0.72648513317108,122.83081817626953,0.12786050140858,-0.20901003479958,10.21681594848633,2.25886821746826,2.01443123817444,1.04465091228485
563,2533454735,-0.15901254117489,0.72243183851242,122.82924652099609,-0.31486806273460,-0.00819267798215,9.76845359802246,2.46813654899597,1.30519902706146,0.64591419696808
564,2533463068,-0.16222129762173,0.72647237777710,122.83095550537109,-0.17314514517784,0.08239889889956,10.09783458709717,0.93207633495331,2.27994847297668,1.04664874076843
565,2533471401,-0.16358028352261,0.72356015443802,122.82998657226562,-0.08036394417286,-0.01125446241349,10.04843902587891,1.16462802886963,1.44174861907959,0.71783900260925
566,2533479734,-0.16530331969261,0.72445756196976,122.82902526855469,-0.48068669438362,-0.05308094248176,9.83293437957764,1.11406540870667,1.90370118618011,0.72828954458237
567,2533488067,-0.16421902179718,0.72807687520981,122.83242797851562,0.21608600020409,0.06007827818394,10.12778282165527,1.45089268684387,2.22503161430359,1.24326372146606
568,2533496400,-0.16736601293087,0.72210741043091,122.83054351806641,-0.35414439439774,-0.06853138655424,10.14291763305664,0.94447368383408,1.08102309703827,0.60764646530151
569,2533504733,-0.16761960089207,0.72508913278580,122.83245849609375,-0.23979444801807,0.01408448722214,9.72966766357422,1.29195654392242,2.14834284782410,1.06419467926025
570,2533513066,-0.15882880985737,0.72677147388458,122.83344268798828,0.06832502782345,-0.00176415406168,10.27530765533447,2.37321019172668,1.99452948570251,0.96455526351929
571,2533521399,-0.16708223521709,0.72650367021561,122.83214569091797,-0.23233403265476,-0.06049668416381,10.03716087341309,0.33713456988335,1.76041531562805,0.67752212285995
572,2533529732,-0.17353971302509,0.72532743215561,122.83097076416016,-0.29913347959518,0.00635689729825,9.58191299438477,0.54630035161972,1.65350127220154,0.69427376985550
573,2533538065,-0.16285154223442,0.73202997446060,122.83544921875000,0.56113421916962,-0.13671320676804,10.40917110443115,2.60076665878296,2.59395337104797,1.37410104274750
574,2533546398,-0.16632857918739,0.72664523124695,122.83169555664062,-0.05456188693643,0.03346815332770,9.86577320098877,0.90802454948425,1.15233314037323,0.38365000486374
575,2533554731,-0.16916517913342,0.72741132974625,122.83129882812500,-0.71862906217575,-0.04861270636320,9.86659240722656,0.98576372861862,1.88382446765900,0.78704857826233
576,2533563064,-0.15957093238831,0.73110026121140,122.83495330810547,-0.08721958845854,0.03241073340178,10.21277713775635,2.46552419662476,2.23576426506042,1.27371907234192
577,2533571397,-0.16879332065582,0.72765105962753,122.83052825927734,-0.44648054242134,0.06140701472759,9.88583850860596,0.22535403072834,1.37807130813599,0.30252969264984
578,2533579730,-0.17551578581333,0.73081380128860,122.83242797851562,-0.03538310527802,-0.03555946424603,9.90341472625732,0.50990259647369,2.17206168174744,1.06903576850891
579,2533588063,-0.16659127175808,0.73063439130783,122.83300018310547,0.41693285107613,-0.14641076326370,10.32642269134521,2.39493083953857,1.77089130878448,0.90277361869812
580,2533596396,-0.16739983856678,0.72462117671967,122.83065032958984,-0.26797634363174,0.05052440240979,9.76089382171631,1.22720360755920,1.07444036006927,0.54932290315628
581,2533604729,-0.17028641700745,0.72678130865097,122.83192443847656,-0.40556356310844,-0.07625581324100,10.12470531463623,0.97649157047272,2.05062437057495,0.98763370513916
582,2533613062,-0.16230168938637,0.72767478227615,122.83263397216797,-0.11039956659079,0.03794465586543,10.00901317596436,2.27769470214844,1.89988458156586,0.92469942569733
583,2533621395,-0.16657860577106,0.72554200887680,122.83061218261719,-0.24827498197556,0.14628811180592,9.70737075805664,0.81394350528717,1.53654658794403,0.59040808677673
584,2533629728,-0.17301233112812,0.73288208246231,122.83416748046875,-0.00228681927547,-0.25169754028320,10.41370010375977,0.54243266582489,2.67381858825684,1.26649582386017
585,2533638061,-0.16809824109077,0.72574800252914,122.83055877685547,-0.00490030925721,0.10616950690746,9.82273197174072,1.91945397853851,0.93540626764297,0.39850625395775
586,2533646394,-0.16431578993797,0.72666776180267,122.83234405517578,-0.55065232515335,-0.00312522612512,9.97539424896240,1.77122449874878,1.90505886077881,1.04229450225830
587,2533654727,-0.16758799552917,0.72904109954834,122.83473968505859,0.37210571765900,-0.01289839297533,10.19959545135498,0.92767083644867,2.07523989677429,1.12054598331451
588,2533663060,-0.16948385536671,0.72265303134918,122.82952117919922,-0.65391290187836,-0.06260167807341,9.86882781982422,1.10074603557587,1.02979469299316,0.20637388527393
589,2533671393,-0.16493947803974,0.72706961631775,122.83327484130859,0.11043184250593,0.07720922678709,9.93380737304688,1.86463928222656,2.32108521461487,1.28634691238403
590,2533679726,-0.17414717376232,0.72776997089386,122.83180236816406,0.66861951351166,-0.19242718815804,10.41259670257568,0.21600484848022,1.87752342224121,0.66425395011902
591,2533688059,-0.18113957345486,0.72299975156784,122.82908630371094,-1.12158727645874,-0.07257989794016,9.48814582824707,0.48938557505608,1.21916067600250,0.50736671686172
592,2533696392,-0.16315066814423,0.72363281250000,122.83374023437500,0.90018868446350,0.06611815094948,10.32104778289795,3.47275233268738,1.86827659606934,1.39697468280792
593,2533704725,-0.16394636034966,0.72043114900589,122.83068084716797,-0.38137114048004,-0.06813147664070,10.05774211883545,1.23463177680969,1.40719473361969,0.46558994054794
594,2533713058,-0.17710439860821,0.72691643238068,122.83332824707031,-1.22303426265717,0.18153882026672,9.66113662719727,-0.26363453269005,2.57333421707153,1.15960764884949
595,2533721391,-0.17021171748638,0.72658133506775,122.83412170410156,0.49665361642838,-0.24610118567944,10.20837879180908,2.15046882629395,1.75121974945068,0.92838805913925
596,2533729724,-0.16905541718006,0.72552919387817,122.83532714843750,-0.23331223428249,-0.04937532171607,10.12086486816406,1.45742428302765,1.66787087917328,0.98417574167252
597,2533738057,-0.17863364517689,0.72154062986374,122.83367156982422,0.00875507947057,0.23655882477760,9.44608688354492,0.17807017266750,1.31237089633942,0.63367056846619
598,2533746390,-0.16693872213364,0.72723793983459,122.83641815185547,-0.15518961846828,-0.11596685647964,10.36816501617432,2.71718335151672,2.47761344909668,1.16872620582581
599,2533754723,-0.16896668076515,0.72885572910309,122.83599853515625,-0.43902236223221,-0.09187331050634,9.89819145202637,1.08286738395691,1.98500096797943,0.78297597169876
600,2533763056,-0.17761629819870,0.72789543867111,122.83576202392578,-0.21834844350815,0.08820398151875,9.92953872680664,0.28239694237709,1.67765569686890,0.79844701290131
601,2533771389,-0.17198838293552,0.73016399145126,122.83717346191406,0.31860396265984,-0.19125226140022,10.35060691833496,1.99793601036072,2.06279110908508,1.00446212291718
602,2533779722,-0.17402946949005,0.72917544841766,122.83554077148438,-0.08543172478676,-0.09477917850018,9.83025455474854,1.07677114009857,1.67660534381866,0.63397794961929
603,2533788055,-0.17595903575420,0.72832769155502,122.83512115478516,-0.20316448807716,-0.04372693598270,9.87330055236816,1.09518802165985,1.68946385383606,0.78143912553787
604,2533796388,-0.16437767446041,0.73058110475540,122.83837127685547,0.00342186517082,0.04041674360633,10.21883869171143,2.70460700988770,2.06391811370850,1.21921193599701
605,2533804721,-0.17251177132130,0.72811043262482,122.83522796630859,-0.54027569293976,-0.04584256932139,9.86109542846680,0.35416799783707,1.49543583393097,0.45490878820419
606,2533813054,-0.17749430239201,0.73217552900314,122.83715820312500,0.02648811042309,0.01829693838954,9.87909507751465,0.71822315454483,2.27966690063477,1.07269859313965
607,2533821387,-0.16910701990128,0.73203569650650,122.83823394775391,0.35069632530212,-0.13689979910851,10.35373592376709,2.33025503158569,1.77434921264648,0.96286469697952
608,2533829720,-0.17437328398228,0.73066908121109,122.83588409423828,-0.43286630511284,0.03270104154944,9.82142543792725,0.69271135330200,1.63375270366669,0.55452257394791
609,2533838053,-0.17166584730148,0.73096954822540,122.83603668212891,-0.38340401649475,0.05794622376561,9.86001777648926,1.65032529830933,1.82639753818512,0.85259550809860
610,2533846386,-0.16175717115402,0.73283094167709,122.83887481689453,-0.16184505820274,0.00954760424793,10.27917480468750,2.50389432907104,2.01594305038452,1.17231249809265
611,2533854719,-0.17540985345840,0.73212945461273,122.83622741699219,-0.29960516095161,0.04730184376240,9.75828266143799,-0.30843377113342,1.70718872547150,0.51364225149155
612,2533863052,-0.17944273352623,0.73592281341553,122.83798980712891,0.29004290699959,-0.10151069611311,10.04636192321777,0.83228325843811,2.24675226211548,1.05366718769073
613,2533871385,-0.17029485106468,0.73610866069794,122.83760833740234,0.04088656231761,-0.19189062714577,10.26580715179443,2.42343950271606,1.81479406356812,0.78932827711105
614,2533879718,-0.16990317404270,0.72963398694992,122.83406829833984,-0.71962589025497,0.16940009593964,9.63473701477051,1.37258994579315,1.01898550987244,0.40516594052315
615,2533888051,-0.16586698591709,0.73572981357574,122.83840942382812,-0.13533866405487,-0.00895202253014,10.17305946350098,1.80244827270508,2.52018475532532,1.35645306110382
616,2533896384,-0.16962334513664,0.73327708244324,122.83753967285156,0.08727491647005,-0.12902246415615,10.09572315216064,0.86975693702698,1.49940609931946,0.73144006729126
617,2533904717,-0.17779964208603,0.73029381036758,122.83498382568359,-0.52936762571335,0.00796826742589,9.70896148681641,0.34809744358063,1.43452525138855,0.52634686231613
618,2533913050,-0.17100083827972,0.73849564790726,122.84082031250000,0.35324481129646,-0.03843450918794,10.24575805664062,2.12723636627197,2.77256131172180,1.53629040718079
619,2533921383,-0.17399793863297,0.73360729217529,122.83842468261719,0.10830137133598,-0.02054988406599,9.99537467956543,0.96947312355042,1.20581567287445,0.54453301429749
620,2533929716,-0.18062309920788,0.73436492681503,122.83835601806641,-0.25383633375168,-0.15209013223648,9.81832122802734,0.52555286884308,1.88615548610687,0.82682746648788
621,2533938049,-0.16515362262726,0.73390358686447,122.83916473388672,0.04636906832457,0.11697155237198,10.15063953399658,3.17936706542969,1.73459589481354,0.92989909648895
622,2533946382,-0.17008596658707,0.73229712247849,122.83632659912109,-0.68281644582748,0.06481024622917,10.05009841918945,0.73328423500061,1.60281074047089,0.49458527565002
623,2533954715,-0.18958470225334,0.73603367805481,122.83708953857422,-0.37712755799294,0.06935612112284,9.67831611633301,-1.01746153831482,2.24045181274414,0.92720973491669
624,2533963048,-0.18717432022095,0.73788404464722,122.84017181396484,0.54682421684265,-0.22236871719360,10.40577983856201,1.60414266586304,2.01107621192932,1.20489346981049
625,2533971381,-0.17332440614700,0.73559844493866,122.83898925781250,-0.28417113423347,-0.19214104115963,9.84589862823486,2.98979616165161,1.51751542091370,0.68948400020599
626,2533979714,-0.16792167723179,0.73645389080048,122.84070587158203,-0.27396032214165,0.21476419270039,9.78675270080566,1.96619999408722,1.89506936073303,1.04047596454620
627,2533988047,-0.17169961333275,0.73758655786514,122.84095001220703,0.04962904378772,0.01055852696300,10.43285846710205,0.87060219049454,1.92844438552856,0.86366075277328
628,2533996380,-0.17609231173992,0.73868834972382,122.83988952636719,-0.36945587396622,-0.24102555215359,9.71892452239990,0.79442536830902,1.92521715164185,0.70743948221207
629,2534004713,-0.17050388455391,0.74002915620804,122.83973693847656,0.13323865830898,0.12478393316269,10.09468746185303,1.99542593955994,1.95282948017120,0.81548041105270
630,2534013046,-0.17129020392895,0.73975753784180,122.83931732177734,-0.07587300986052,-0.03881056606770,10.17031288146973,1.22630715370178,1.76202869415283,0.79278612136841
631,2534021379,-0.17739202082157,0.73508453369141,122.83733367919922,-0.56817197799683,-0.03265295922756,9.61794948577881,0.59691411256790,1.23035395145416,0.59635061025620
632,2534029712,-0.16758738458157,0.73741298913956,122.84146118164062,0.20140507817268,-0.10747975111008,10.25762271881104,2.48926830291748,2.07103919982910,1.33788275718689
633,2534038045,-0.16848360002041,0.73430198431015,122.83872985839844,-0.22421890497208,0.16374777257442,10.09171104431152,1.22220873832703,1.41808068752289,0.50506144762039
634,2534046378,-0.18236912786961,0.73486006259918,122.83905792236328,-0.44713827967644,-0.01197659224272,9.71539306640625,-0.34639409184456,1.85979819297791,0.86947518587112
635,2534054711,-0.18193219602108,0.73997098207474,122.83958435058594,0.79885673522949,-0.32081475853920,10.29447841644287,1.37627851963043,2.40443396568298,0.89967447519302
636,2534063044,-0.17315493524075,0.73659259080887,122.83610534667969,-0.78399038314819,0.02661933749914,9.68763542175293,2.37917828559875,1.39126276969910,0.40629303455353
637,2534071377,-0.16966624557972,0.73942869901657,122.83949279785156,-0.39456987380981,0.07419213652611,10.06083774566650,1.73936021327972,2.13095045089722,1.24047172069550
638,2534079710,-0.17388235032558,0.73874497413635,122.83950805664062,0.70531499385834,-0.08299084007740,10.12740325927734,0.81350821256638,1.70857203006744,0.83389711380005
639,2534088043,-0.17539678514004,0.73853063583374,122.83577728271484,-1.16815149784088,-0.06890369206667,9.86839485168457,1.14887523651123,1.76827871799469,0.38674932718277
640,2534096376,-0.17008787393570,0.74129080772400,122.83892059326172,0.04691173881292,0.17996516823769,9.85230541229248,1.95280385017395,2.12070512771606,1.20822358131409
641,2534104709,-0.17778813838959,0.74239891767502,122.83843994140625,0.67237406969070,-0.08787001669407,10.49779129028320,0.40140068531036,1.92434632778168,0.77559894323349
642,2534113042,-0.18418893218040,0.73695772886276,122.83435821533203,-0.92619299888611,-0.02361868694425,9.53854465484619,0.55749380588531,1.14388036727905,0.34077176451683
643,2534121375,-0.16513063013554,0.74108260869980,122.83802795410156,0.26836636662483,-0.02023413404822,10.35576438903809,3.60812377929688,2.28366279602051,1.27635741233826
644,2534129708,-0.16680474579334,0.74062156677246,122.83671569824219,-0.28674897551537,0.00529373018071,10.02854347229004,1.12005937099457,1.73987269401550,0.67795765399933
645,2534138041,-0.19317071139812,0.74049663543701,122.83541107177734,-0.91785609722137,0.00166674738284,9.50432968139648,-1.83639943599701,1.77670550346375,0.67772710323334
646,2534146374,-0.19625294208527,0.74286556243896,122.84027099609375,1.01890194416046,-0.12960334122181,10.54454803466797,0.94193792343140,2.07147455215454,1.41285562515259
647,2534154707,-0.17779622972012,0.73986077308655,122.83714294433594,-0.34962576627731,-0.19875496625900,9.83685779571533,3.54529166221619,1.43106722831726,0.45793128013611
648,2534163040,-0.16439057886600,0.74629586935043,122.83987426757812,-0.50576883554459,0.13539409637451,9.64335250854492,2.92545318603516,2.56503534317017,1.17518103122711
649,2534171373,-0.17123262584209,0.74511682987213,122.83999633789062,0.53777378797531,0.08880010992289,10.46660518646240,0.50324285030365,1.64996647834778,0.84680658578873
650,2534179706,-0.18133229017258,0.74273896217346,122.83553314208984,-1.05387842655182,-0.19177487492561,9.75306606292725,0.11454686522484,1.51036918163300,0.29423072934151
651,2534188039,-0.16945354640484,0.74732923507690,122.84010314941406,-0.19493779540062,0.06488467007875,9.68625736236572,2.74354028701782,2.34126901626587,1.38383460044861
652,2534196372,-0.17025291919708,0.75296407938004,122.84192657470703,1.07376658916473,0.06800438463688,10.72574329376221,1.22159421443939,2.46560072898865,1.04844188690186
653,2534204705,-0.19359822571278,0.74502468109131,122.83722686767578,-1.02043998241425,-0.18857267498970,9.40359973907471,-1.46927094459534,0.84012126922607,0.26707962155342
654,2534213038,-0.18653948605061,0.75232714414597,122.84286499023438,-0.23208197951317,-0.03248349949718,10.04698562622070,2.15853691101074,2.66582679748535,1.52801704406738
655,2534221371,-0.16201087832451,0.75185006856918,122.84390258789062,0.49101978540421,-0.04349632188678,10.56778144836426,4.26748514175415,1.73428857326508,0.95792120695114
656,2534229704,-0.17477945983410,0.74646532535553,122.83781433105469,-0.98139148950577,0.17002308368683,9.40274810791016,-0.20221157371998,1.14874708652496,0.10901418328285
657,2534238037,-0.19202198088169,0.75352478027344,122.84317779541016,0.01981462724507,-0.01054867822677,10.17337703704834,-0.75266158580780,2.63611483573914,1.47981119155884
658,2534246370,-0.18430317938328,0.75238847732544,122.84390258789062,0.71504360437393,-0.32960090041161,10.41490840911865,2.24572825431824,1.65562736988068,0.92687672376633
659,2534254703,-0.17125794291496,0.74517101049423,122.83946228027344,-0.90639030933380,-0.15684875845909,9.32807445526123,2.89781522750854,0.92574954032898,0.29919984936714
660,2534263036,-0.16168117523193,0.75177305936813,122.84514617919922,-0.04501527175307,0.47099226713181,10.34467506408691,2.46134877204895,2.58263206481934,1.51833510398865
661,2534271369,-0.17884543538094,0.75136172771454,122.84494018554688,0.22596818208694,-0.19118034839630,10.27982616424561,-0.73560237884521,1.74210095405579,0.80920487642288
662,2534279702,-0.19309328496456,0.74790364503860,122.83840179443359,-0.86721783876419,-0.09541892260313,9.37626171112061,-0.37825819849968,1.37983894348145,0.04515789449215
663,2534288035,-0.17497125267982,0.75704461336136,122.84379577636719,0.35047209262848,0.07453582435846,10.35797309875488,3.49168157577515,2.88634014129639,1.48444747924805
664,2534296368,-0.16845373809338,0.75552564859390,122.84364318847656,0.21997517347336,-0.08519580960274,10.22541141510010,2.10218572616577,1.60967528820038,0.81232982873917
665,2534304701,-0.18514619767666,0.74983650445938,122.83916473388672,-0.60989439487457,0.04583554342389,9.44607257843018,-0.67184859514236,1.11114561557770,0.29510164260864
666,2534313034,-0.17459334433079,0.75666594505310,122.84383392333984,0.00689807720482,-0.05211450159550,10.43492698669434,2.57878971099854,2.60801577568054,1.39605259895325
667,2534321367,-0.16286444664001,0.74703532457352,122.83718109130859,-1.32967066764832,0.10270670056343,9.77055358886719,2.74341297149658,0.63830673694611,0.03255569189787
668,2534329700,-0.18763907253742,0.75598490238190,122.83860778808594,-2.22921776771545,-0.01968781836331,9.99386310577393,-1.65571701526642,2.86144304275513,1.00200331211090
669,2534338033,-0.18896794319153,0.74699670076370,122.83595275878906,-0.80463761091232,0.01955587230623,10.29909992218018,1.17080092430115,0.71430414915085,0.51295059919357
670,2534346366,-0.16936092078686,0.74966424703598,122.83786773681641,-0.75948351621628,0.02396838925779,9.71440410614014,3.66826629638672,2.09757542610168,1.06391298770905
671,2534354699,-0.17128498852253,0.75190138816833,122.83859252929688,-1.73812973499298,-0.33319339156151,9.78395652770996,1.09288251399994,2.05976867675781,0.92206114530563
672,2534363032,-0.17639911174774,0.75019931793213,122.83979034423828,-0.84246903657913,0.31959220767021,10.16294860839844,0.70610755681992,1.56597745418549,0.97595357894897
673,2534371365,-0.17145076394081,0.74642980098724,122.84101104736328,-0.97054612636566,-0.01292848680168,9.93955802917480,1.91630351543427,1.33762657642365,0.97807955741882
674,2534379698,-0.17302240431309,0.74860733747482,122.84042358398438,0.29126119613647,-0.09883639961481,10.16504001617432,1.13235414028168,2.02800726890564,0.76245898008347
675,2534388031,-0.16949433088303,0.74877512454987,122.84147644042969,-0.37037611007690,0.01087213028222,10.15671920776367,1.74614810943604,1.81072163581848,0.96022653579712
676,2534396364,-0.17209959030151,0.74783200025558,122.84281158447266,0.26611259579659,0.09062899649143,9.87881469726562,1.00410354137421,1.65211808681488,0.98847883939743
677,2534404697,-0.17676566541195,0.74542397260666,122.84201812744141,-0.46735861897469,-0.19886930286884,9.99032402038574,0.76758182048798,1.50373494625092,0.73935496807098
678,2534413030,-0.16334910690784,0.74607729911804,122.84289550781250,0.23138606548309,-0.10752058774233,9.81363391876221,2.92814278602600,1.84414815902710,0.94034981727600
679,2534421363,-0.17213945090771,0.74667203426361,122.84348297119141,-0.49487969279289,0.17832903563976,9.98635196685791,0.26941055059433,1.86248779296875,0.90359336137772
680,2534429696,-0.18640887737274,0.74418097734451,122.84225463867188,0.31288680434227,0.04004876688123,10.06186866760254,-0.39091163873672,1.46790063381195,0.68205583095551
681,2534438029,-0.17980179190636,0.74793487787247,122.84229278564453,-0.31921303272247,-0.18988186120987,9.92548942565918,2.11706805229187,2.24285936355591,0.84024935960770
682,2534446362,-0.16239516437054,0.74880713224411,122.84326171875000,0.21627078950405,0.05950556695461,10.16806888580322,3.40817880630493,1.87117111682892,0.95973974466324
683,2534454695,-0.16927993297577,0.74837470054626,122.84259033203125,0.07562544941902,0.13215348124504,10.01184082031250,0.49919575452805,1.74082016944885,0.75195705890656
684,2534463028,-0.17605346441269,0.74978286027908,122.84218597412109,-0.52070945501328,-0.02395873144269,9.96066856384277,0.50718742609024,1.93802416324615,0.79247879981995
685,2534471361,-0.16843503713608,0.75146293640137,122.84262084960938,-0.24130968749523,-0.11010753363371,10.09455966949463,2.23783874511719,1.99332523345947,0.88776373863220
686,2534479694,-0.17183925211430,0.75069707632065,122.84194946289062,-0.19946759939194,-0.02727627754211,9.95767211914062,0.91255831718445,1.67729687690735,0.75223881006241
687,2534488027,-0.17419256269932,0.75270509719849,122.84153747558594,-0.57926112413406,0.05083073675632,10.05784130096436,1.04180765151978,2.03241276741028,0.78658753633499
688,2534496360,-0.17114156484604,0.75031840801239,122.84156799316406,0.05313146114349,-0.27671664953232,9.96065235137939,1.68667185306549,1.48104071617126,0.82751911878586
689,2534504693,-0.16949267685413,0.74963557720184,122.84170532226562,0.26182034611702,-0.07111507654190,9.97122192382812,1.52263820171356,1.70918655395508,0.85021328926086
690,2534513026,-0.16986386477947,0.75125008821487,122.84281158447266,-0.90216958522797,0.20630584657192,10.02472114562988,1.27225899696350,1.96312618255615,0.98051291704178
691,2534521359,-0.16724087297916,0.74788701534271,122.84381866455078,0.49919974803925,-0.04664549231529,10.15845298767090,1.63972079753876,1.38759982585907,0.95518028736115
692,2534529692,-0.16829203069210,0.74961978197098,122.84434509277344,-0.48999038338661,-0.23845179378986,9.88733005523682,1.19172787666321,1.97567701339722,0.89293789863586
