sep=,
DeviceTag:,Xsens DOT
FirmwareVersion:,3.0.0
AppVersion:,2023.6.0
StartTime: ,2025-02-06_09:46:40_000 PST
© Movella Technologies B. V. 2005-2025

PacketCounter,SampleTimeFine,Euler_X,Euler_Y,Euler_Z,Acc_X,Acc_Y,Acc_Z,Gyr_X,Gyr_Y,Gyr_Z
0,917723818,-0.25019955635071,-0.39902579784393,39.51493453979492,0.00000000000000,0.00000000000000,0.00000000000000,0.00000000000000,0.00000000000000,0.00000000000000
1,917740485,-0.25673064589500,-0.41942203044891,39.56135940551758,0.05223678424954,-0.04462215676904,9.74464035034180,0.09422271698713,-1.04830217361450,-0.87450718879700
2,917757152,-0.25734624266624,-0.41703826189041,39.60268783569336,0.06801426410675,-0.06897984445095,9.75926399230957,0.15318316221237,-0.95731300115585,-0.93027883768082
3,917773819,-0.27551084756851,-0.42664697766304,39.61952972412109,0.06435590237379,-0.03557738289237,9.76932239532471,0.16227567195892,-1.06302952766418,-0.88190931081772
4,917790486,-0.27573341131210,-0.43572533130646,39.66490554809570,0.04723884165287,-0.06623516231775,9.73822021484375,0.16961370408535,-0.99254333972931,-0.88767212629318
5,917807153,-0.28191196918488,-0.43870070576668,39.70129013061523,0.06098483502865,-0.03828994929790,9.75466156005859,0.14660069346428,-0.98601210117340,-0.94583851099014
6,917823820,-0.28152740001678,-0.44634088873863,39.71953582763672,0.06395512074232,-0.07176020741463,9.75831604003906,0.11973297595978,-1.07536208629608,-0.85318470001221
7,917840487,-0.28449761867523,-0.45550814270973,39.75283432006836,0.05695878714323,-0.06494291871786,9.75923252105713,0.17871901392937,-1.03023242950439,-0.83604973554611
8,917857154,-0.28711622953415,-0.46443814039230,39.77148437500000,0.05342985689640,-0.06074305251241,9.76107120513916,0.21387243270874,-1.01624798774719,-0.88690370321274
9,917873821,-0.29051908850670,-0.47365462779999,39.79748153686523,0.07010620087385,-0.06018207594752,9.76742267608643,0.11966894567013,-1.04424262046814,-0.87692767381668
10,917890488,-0.29263916611671,-0.48466196656227,39.82213592529297,0.05377618223429,-0.04520169273019,9.75647544860840,0.15489919483662,-1.03927373886108,-0.88435524702072
11,917907155,-0.29330265522003,-0.49488428235054,39.82268142700195,0.05317070707679,-0.07133624702692,9.75923252105713,0.12780097126961,-1.01390421390533,-0.88596892356873
12,917923822,-0.29392594099045,-0.50538408756256,39.82932281494141,0.06611312925816,-0.03516040369868,9.76373100280762,0.17063823342323,-1.04087448120117,-0.79752826690674
13,917940489,-0.29340794682503,-0.51736289262772,39.84612274169922,0.04803498089314,-0.06135034188628,9.77480602264404,0.12620018422604,-1.08608114719391,-0.92609125375748
14,917957156,-0.29355072975159,-0.52817046642303,39.86150741577148,0.06389117985964,-0.04631701111794,9.75275802612305,0.09678398817778,-1.04184782505035,-0.84655100107193
15,917973823,-0.29147151112556,-0.53883510828018,39.86271667480469,0.05595410242677,-0.08166877180338,9.74824237823486,0.19416347146034,-1.00394105911255,-0.87713247537613
16,917990490,-0.29057782888412,-0.55017590522766,39.87866592407227,0.06246248260140,-0.04263230413198,9.77930450439453,0.17783538997173,-1.04495978355408,-0.88525182008743
17,918007157,-0.28914040327072,-0.56239837408066,39.87926101684570,0.04789628833532,-0.05872681364417,9.74552536010742,0.16714207828045,-1.08107376098633,-0.93109846115112
18,918023824,-0.28730106353760,-0.57402509450912,39.89477539062500,0.06479629129171,-0.04346922412515,9.76281452178955,0.19266514480114,-1.05967426300049,-0.87218922376633
19,918040491,-0.28613620996475,-0.58503091335297,39.91126251220703,0.06609863787889,-0.06403592973948,9.75275421142578,0.12626422941685,-1.00573408603668,-0.83102971315384
20,918057158,-0.28344440460205,-0.59650588035583,39.91907119750977,0.06804869323969,-0.06997726112604,9.76190662384033,0.22607691586018,-1.01778471469879,-0.89935159683228
21,918073825,-0.28201520442963,-0.60939085483551,39.92129516601562,0.07544395327568,-0.06479957699776,9.75270080566406,0.16559250652790,-1.08763051033020,-0.90895634889603
22,918090492,-0.28103393316269,-0.62131512165070,39.90701675415039,0.06123356521130,-0.07815845310688,9.74549007415771,0.14334785938263,-1.01145827770233,-0.87452000379562
23,918107159,-0.28204688429832,-0.63277906179428,39.90893936157227,0.06225812062621,-0.06410864740610,9.75646114349365,0.04147336632013,-0.98228549957275,-0.91596144437790
24,918123826,-0.28110876679420,-0.64536815881729,39.93407440185547,0.05695068091154,-0.06664275377989,9.76291942596436,0.15757572650909,-1.04908335208893,-0.83439773321152
25,918140493,-0.27955618500710,-0.65759676694870,39.93293762207031,0.06140179932117,-0.04602631181479,9.74638557434082,0.19482938945293,-1.03179490566254,-0.93207174539566
26,918157160,-0.27721264958382,-0.66910016536713,39.92131805419922,0.05915088206530,-0.05273136869073,9.76656627655029,0.22616656124592,-0.98740804195404,-0.85109722614288
27,918173827,-0.27580070495605,-0.68236249685287,39.92203140258789,0.05805184319615,-0.05590032041073,9.74278354644775,0.16148164868355,-1.09421288967133,-0.92287671566010
28,918190494,-0.27506989240646,-0.69479328393936,39.91932296752930,0.05108379200101,-0.05462406575680,9.73827934265137,0.11546845734119,-1.04602265357971,-0.90877705812454
29,918207161,-0.27397888898849,-0.70634090900421,39.92342758178711,0.05268426612020,-0.06795513629913,9.77034378051758,0.13274422287941,-0.99920266866684,-0.85561794042587
30,918223828,-0.27381679415703,-0.71856379508972,39.93539810180664,0.06887329369783,-0.04099673777819,9.75094032287598,0.08043027669191,-1.04367911815643,-0.86353212594986
31,918240495,-0.27129673957825,-0.73086482286453,39.94367218017578,0.05653590708971,-0.07187173515558,9.75477504730225,0.20982563495636,-1.04233431816101,-0.88301062583923
32,918257162,-0.26949259638786,-0.74378573894501,39.95499801635742,0.04357454925776,-0.03743885457516,9.74846172332764,0.17095835506916,-1.08111202716827,-0.98771524429321
33,918273829,-0.26752251386642,-0.75487697124481,39.96466445922852,0.06185351312160,-0.06801230460405,9.76207065582275,0.17153464257717,-0.98096626996994,-0.79190623760223
34,918290496,-0.26403677463531,-0.76705646514893,39.96330642700195,0.04960613325238,-0.04654140025377,9.75760936737061,0.26462402939796,-1.04376876354218,-0.90872585773468
35,918307163,-0.26278951764107,-0.77929478883743,39.95806121826172,0.05209765210748,-0.06877866387367,9.77777767181396,0.12349803745747,-1.05181109905243,-0.94318765401840
36,918323830,-0.26053228974342,-0.79048383235931,39.95685195922852,0.05239379405975,-0.06560052186251,9.77596187591553,0.18920740485191,-0.99078887701035,-0.86658006906509
37,918340497,-0.25881868600845,-0.80226469039917,39.99357604980469,0.05394166707993,-0.05691261216998,9.76038742065430,0.15682016313076,-1.02873408794403,-0.97127193212509
38,918357164,-0.25616130232811,-0.81453222036362,40.00555038452148,0.06506084650755,-0.05357019975781,9.74561786651611,0.21449996531010,-1.06025063991547,-0.80603170394897
39,918373831,-0.25514963269234,-0.82611960172653,40.00904846191406,0.05871507152915,-0.04400637373328,9.74478244781494,0.11101184040308,-1.01585090160370,-0.94066476821899
40,918390498,-0.25356778502464,-0.83756941556931,40.00438308715820,0.04938698932528,-0.08128491789103,9.75507068634033,0.14173427224159,-1.00742435455322,-0.86874443292618
41,918407165,-0.25135242938995,-0.84872961044312,40.00786590576172,0.06753668189049,-0.04034541547298,9.77034568786621,0.18569846451283,-0.99409282207489,-0.90592116117477
42,918423832,-0.24908910691738,-0.85991567373276,40.02125549316406,0.06986325234175,-0.07459375262260,9.77040386199951,0.18330368399620,-0.99245363473892,-0.89115542173386
43,918440499,-0.24726696312428,-0.87210243940353,40.02114868164062,0.06306941807270,-0.05042635649443,9.75490093231201,0.16071327030659,-1.05079936981201,-0.89013093709946
44,918457166,-0.24641881883144,-0.88459676504135,40.02032470703125,0.06068250536919,-0.05556185543537,9.76046562194824,0.09993435442448,-1.06839537620544,-0.92411905527115
45,918473833,-0.24503618478775,-0.89619946479797,40.00942993164062,0.06469059735537,-0.04512584954500,9.76040649414062,0.13259056210518,-1.01558196544647,-0.77605199813843
46,918490500,-0.24267019331455,-0.90849810838699,40.00185775756836,0.07213903963566,-0.05196758359671,9.76400756835938,0.18603144586086,-1.05718970298767,-0.90670239925385
47,918507167,-0.24019002914429,-0.92017996311188,40.00493240356445,0.05443407222629,-0.07913094013929,9.76343154907227,0.19152536988258,-1.01783597469330,-0.90843129158020
48,918523834,-0.23851026594639,-0.93190312385559,40.00204849243164,0.05794470757246,-0.05113798007369,9.76334762573242,0.14908511936665,-1.02381634712219,-0.88680124282837
49,918540501,-0.23611073195934,-0.94513851404190,40.02565383911133,0.06210786104202,-0.06972134113312,9.76520252227783,0.18946354091167,-1.11622714996338,-0.93864142894745
50,918557168,-0.23489277064800,-0.95709103345871,40.02545547485352,0.06257626414299,-0.04202255234122,9.72944068908691,0.12269122153521,-1.04111790657043,-0.81609743833542
51,918573835,-0.23279520869255,-0.96878230571747,40.03623962402344,0.06602938473225,-0.06262487173080,9.74869632720947,0.17113766074181,-1.02614724636078,-0.89681577682495
52,918590502,-0.23145645856857,-0.97986555099487,40.03850936889648,0.05506463348866,-0.06132689118385,9.79468345642090,0.12591843307018,-0.99036633968353,-0.88338202238083
53,918607169,-0.22908104956150,-0.99038606882095,40.03561401367188,0.04823246970773,-0.06108815968037,9.76552772521973,0.18947634100914,-0.95964384078979,-0.90526813268661
54,918623836,-0.22769911587238,-1.00136494636536,40.03306579589844,0.06891887634993,-0.05673435702920,9.74505710601807,0.13081046938896,-0.99200534820557,-0.88997733592987
55,918640503,-0.22619009017944,-1.01346611976624,40.03409194946289,0.05698269233108,-0.05198935791850,9.74253749847412,0.13711118698120,-1.05916202068329,-0.88094872236252
56,918657170,-0.22437559068203,-1.02523970603943,40.04118728637695,0.05856104567647,-0.06162343919277,9.75813674926758,0.15482234954834,-1.04266738891602,-0.90323179960251
57,918673837,-0.22294066846371,-1.03775727748871,40.03929519653320,0.06203017011285,-0.04014540091157,9.75256252288818,0.13302595913410,-1.09038388729095,-0.90708661079407
58,918690504,-0.22086551785469,-1.04889738559723,40.05679321289062,0.04591472819448,-0.07840333878994,9.76672935485840,0.16986982524395,-1.00967812538147,-0.84113383293152
59,918707171,-0.21865545213223,-1.06129193305969,40.05728530883789,0.05256949365139,-0.03667335584760,9.76012325286865,0.18005087971687,-1.08997404575348,-0.87143373489380
60,918723838,-0.21601413190365,-1.07202291488647,40.05681991577148,0.06370446830988,-0.07166608422995,9.76373004913330,0.20440855622292,-0.99381119012833,-0.81441980600357
61,918740505,-0.21404862403870,-1.08292949199677,40.05919265747070,0.06136919558048,-0.04192220047116,9.76188850402832,0.16515709459782,-1.00652790069580,-0.90338557958603
62,918757172,-0.21217359602451,-1.09381520748138,40.06466674804688,0.05213895067573,-0.06723156571388,9.77408885955811,0.15842095017433,-1.00898671150208,-0.83855986595154
63,918773839,-0.21054284274578,-1.10638463497162,40.06816482543945,0.06309121847153,-0.07036236673594,9.76660442352295,0.14379610121250,-1.11329436302185,-0.91451412439346
64,918790506,-0.20941418409348,-1.11729490756989,40.07186889648438,0.06247495859861,-0.05168699845672,9.77209854125977,0.11640331149101,-1.01755428314209,-0.86766856908798
65,918807173,-0.20684687793255,-1.12825083732605,40.07244110107422,0.04902432486415,-0.06527123600245,9.76787376403809,0.20321756601334,-1.02260005474091,-0.87916880846024
66,918823840,-0.20508711040020,-1.14006352424622,40.07799911499023,0.04996262490749,-0.04184962436557,9.77881240844727,0.15557792782784,-1.07869160175323,-0.85566902160645
67,918840507,-0.20352521538734,-1.15017819404602,40.08060455322266,0.05598747730255,-0.07527881115675,9.76145172119141,0.14106836915016,-0.98218303918839,-0.90894353389740
68,918857174,-0.20333531498909,-1.16144382953644,40.08026123046875,0.07101590931416,-0.04452875256538,9.75833797454834,0.06147687882185,-1.05584502220154,-0.90143889188766
69,918873841,-0.20229384303093,-1.17254805564880,40.07630920410156,0.07749761641026,-0.07349658012390,9.76658248901367,0.11242053657770,-1.04795646667480,-0.88233196735382
70,918890508,-0.19996090233326,-1.18309032917023,40.07703399658203,0.07070289552212,-0.05221756175160,9.75571155548096,0.19158940017223,-1.01610708236694,-0.88732641935349
71,918907175,-0.19985213875771,-1.19309329986572,40.07035446166992,0.07485077530146,-0.06090393662453,9.76576328277588,0.05608541145921,-0.98634505271912,-0.96132141351700
72,918923842,-0.19948548078537,-1.20558893680573,40.07046508789062,0.05186939984560,-0.04834745451808,9.76171207427979,0.07355327159166,-1.13939380645752,-0.92028999328613
73,918940509,-0.19699697196484,-1.21731054782867,40.07229614257812,0.08328860253096,-0.06037191674113,9.74826717376709,0.20022086799145,-1.09802937507629,-0.92011070251465
74,918957176,-0.19572584331036,-1.22800755500793,40.07290649414062,0.05610962584615,-0.07041881233454,9.77461814880371,0.12845408916473,-1.03805708885193,-0.90876412391663
75,918973843,-0.19406996667385,-1.23906576633453,40.07918930053711,0.05786715820432,-0.06916539371014,9.76272296905518,0.15326000750065,-1.06568050384521,-0.91227316856384
76,918990510,-0.19193877279758,-1.25074875354767,40.08266448974609,0.05455445498228,-0.06697098910809,9.76467514038086,0.18469959497452,-1.10872268676758,-0.85436278581619
77,919007177,-0.19032256305218,-1.26065981388092,40.08013153076172,0.05102093145251,-0.04917485639453,9.76292419433594,0.15664087235928,-1.00805175304413,-0.78454262018204
78,919023844,-0.18866944313049,-1.27074646949768,40.08333206176758,0.05978006869555,-0.05773414298892,9.77745628356934,0.15521936118603,-1.02386760711670,-0.91811275482178
79,919040511,-0.18677888810635,-1.27981829643250,40.08567810058594,0.06544042378664,-0.04800525680184,9.78191757202148,0.17179077863693,-0.96950483322144,-0.85528492927551
80,919057178,-0.18518620729446,-1.28986394405365,40.08443832397461,0.05749664083123,-0.04417652636766,9.76292228698730,0.15159517526627,-1.03138506412506,-0.95248502492905
81,919073845,-0.18384508788586,-1.29934263229370,40.08337020874023,0.05964303389192,-0.05292207002640,9.75655174255371,0.13754659891129,-1.00432515144348,-0.87121605873108
82,919090512,-0.18314608931541,-1.30944871902466,40.07876968383789,0.05844389274716,-0.04536212980747,9.74744987487793,0.09847441315651,-1.04657328128815,-0.88621217012405
83,919107179,-0.18097899854183,-1.31886565685272,40.08580780029297,0.05739146098495,-0.05876207724214,9.76132774353027,0.18457150459290,-1.01140701770782,-0.98327147960663
84,919123846,-0.17912577092648,-1.32932293415070,40.08863449096680,0.06309667974710,-0.05817334353924,9.75665950775146,0.17066383361816,-1.08086884021759,-0.78542631864548
85,919140513,-0.17718529701233,-1.33922696113586,40.09117507934570,0.05683998391032,-0.07247246801853,9.77892398834229,0.17299458384514,-1.05167031288147,-0.95765888690948
86,919157180,-0.17574732005596,-1.34839534759521,40.09363555908203,0.06090438738465,-0.04910102486610,9.76505374908447,0.14671593904495,-1.01489031314850,-0.86967921257019
87,919173847,-0.17531152069569,-1.35744512081146,40.09177780151367,0.06879000365734,-0.08438989520073,9.75040435791016,0.08660294115543,-1.01398110389709,-0.88938826322556
88,919190514,-0.17389526963234,-1.36666512489319,40.08998870849609,0.06925569474697,-0.06294403970242,9.78241157531738,0.14763800799847,-1.02896463871002,-0.93526059389114
89,919207181,-0.17251051962376,-1.37623333930969,40.09384536743164,0.05990939959884,-0.05195076018572,9.74238014221191,0.14770202338696,-1.05592191219330,-0.89258974790573
90,919223848,-0.17025387287140,-1.38610267639160,40.08875656127930,0.06141792982817,-0.05681683495641,9.75070190429688,0.19829992949963,-1.08012592792511,-0.98995643854141
91,919240515,-0.16857472062111,-1.39551246166229,40.09554672241211,0.05977889895439,-0.05366617813706,9.77916717529297,0.16692437231541,-1.05893146991730,-0.86989694833755
92,919257182,-0.16655160486698,-1.40496313571930,40.10246276855469,0.07109568268061,-0.06765414029360,9.76891136169434,0.18832378089428,-1.06934297084808,-0.87263745069504
93,919273849,-0.16520020365715,-1.41456556320190,40.10370635986328,0.06451836228371,-0.05825654417276,9.75996971130371,0.14981509745121,-1.08295619487762,-0.88353574275970
94,919290516,-0.16283774375916,-1.42229306697845,40.10487747192383,0.06251037865877,-0.06974185258150,9.76381683349609,0.21069645881653,-0.97813624143600,-0.89201354980469
95,919307183,-0.16059197485447,-1.43106222152710,40.10476303100586,0.06328193843365,-0.06371644139290,9.76383399963379,0.20504885911942,-1.04635548591614,-0.94425052404404
96,919323850,-0.15977315604687,-1.43955421447754,40.10501480102539,0.06048828363419,-0.06522119790316,9.74934005737305,0.12234545499086,-1.03739118576050,-0.87419980764389
97,919340517,-0.15786424279213,-1.44785726070404,40.10377883911133,0.06450071185827,-0.03913942724466,9.74825286865234,0.18672299385071,-1.03348541259766,-0.95304864645004
98,919357184,-0.15762057900429,-1.45525050163269,40.10752868652344,0.07653583586216,-0.06774793565273,9.74902629852295,0.08856231719255,-0.98543578386307,-0.89758419990540
99,919373851,-0.15562941133976,-1.46375870704651,40.10744857788086,0.06581235677004,-0.05022951588035,9.76947593688965,0.19611002504826,-1.05852150917053,-0.84083926677704
100,919390518,-0.15509116649628,-1.47060239315033,40.10805511474609,0.05685078352690,-0.07199805229902,9.77909374237061,0.10874512046576,-0.96471512317657,-0.89874970912933
101,919407185,-0.15367026627064,-1.47811877727509,40.10997390747070,0.06375802308321,-0.06880923360586,9.76520347595215,0.16550287604332,-1.01460874080658,-0.82246226072311
102,919423852,-0.15338154137135,-1.48519217967987,40.10671997070312,0.06773868203163,-0.04916521906853,9.76230621337891,0.09478618949652,-0.99377280473709,-0.97635614871979
103,919440519,-0.15231157839298,-1.49202620983124,40.10693740844727,0.05784908682108,-0.05835165455937,9.75266170501709,0.14702330529690,-0.98780500888824,-0.82962095737457
104,919457186,-0.15114510059357,-1.49997150897980,40.10923004150391,0.05366425216198,-0.03888911381364,9.75459766387939,0.15031452476978,-1.06183838844299,-0.94345659017563
105,919473853,-0.15033449232578,-1.50757110118866,40.10935974121094,0.06969884037971,-0.08655886352062,9.77366065979004,0.13083606958389,-1.04963397979736,-0.87021702528000
106,919490520,-0.15048187971115,-1.51564991474152,40.11141967773438,0.06100351735950,-0.03253340721130,9.76823902130127,0.07788182795048,-1.08551752567291,-0.82992827892303
107,919507187,-0.14961653947830,-1.52374494075775,40.11448287963867,0.04942391067743,-0.06194960698485,9.77342987060547,0.13563844561577,-1.09394383430481,-0.91447567939758
108,919523854,-0.14982978999615,-1.53105819225311,40.11645507812500,0.06150609999895,-0.04220406338573,9.75286865234375,0.07427042722702,-1.05606269836426,-0.82501065731049
109,919540521,-0.14857140183449,-1.53837561607361,40.11476516723633,0.05239592120051,-0.07051190733910,9.77997112274170,0.16084134578705,-1.06486082077026,-0.90186160802841
110,919557188,-0.14664889872074,-1.54532587528229,40.11590194702148,0.05199436098337,-0.06466941535473,9.76263713836670,0.20394754409790,-1.05102992057800,-0.86163693666458
111,919573855,-0.14454118907452,-1.55291855335236,40.11250686645508,0.06987256556749,-0.04626561328769,9.75836563110352,0.21567812561989,-1.09849023818970,-0.88712143898010
112,919590522,-0.14329287409782,-1.55937612056732,40.11374664306641,0.06391449272633,-0.07431577146053,9.76339054107666,0.16408134996891,-1.03786504268646,-0.92903667688370
113,919607189,-0.14291910827160,-1.56535196304321,40.11616134643555,0.05260119587183,-0.04219561442733,9.77376556396484,0.11431587487459,-1.01720833778381,-0.89709764719009
114,919623856,-0.14212360978127,-1.57172751426697,40.11454772949219,0.05961880460382,-0.08026988804340,9.75641632080078,0.13718800246716,-1.04987740516663,-0.97690659761429
115,919640523,-0.13988892734051,-1.57809841632843,40.11537551879883,0.07333718240261,-0.04650198668242,9.74850749969482,0.23000846803188,-1.05806064605713,-0.87933528423309
116,919657190,-0.13927990198135,-1.58443737030029,40.11818695068359,0.06870189309120,-0.05436397343874,9.75888729095459,0.13096413016319,-1.06377220153809,-0.92267191410065
117,919673857,-0.13912121951580,-1.59058272838593,40.11926651000977,0.06164051592350,-0.05615160241723,9.75557613372803,0.10617103427649,-1.05995595455170,-0.88535416126251
118,919690524,-0.13903351128101,-1.59659671783447,40.12115478515625,0.06228690221906,-0.03759136423469,9.75462055206299,0.10459586232901,-1.06067323684692,-0.83611375093460
119,919707191,-0.33000406622887,-0.34667867422104,40.92772293090820,0.06805884093046,-0.06459596753120,9.76015663146973,0.15831850469112,-1.02165222167969,-0.95936208963394
120,919723858,-0.33025234937668,-0.34743800759315,40.90671920776367,0.06533604115248,-0.05411826446652,9.78594493865967,0.14047926664352,-1.07893502712250,-0.81869715452194
121,919740525,-0.33026632666588,-0.34696373343468,40.89814376831055,0.05983420833945,-0.08894443511963,9.74797439575195,0.15469430387020,-1.00424826145172,-0.87245821952820
122,919757192,-0.32954066991806,-0.34739318490028,40.89089202880859,0.07440507411957,-0.04407649859786,9.75733470916748,0.19885058701038,-1.05863690376282,-0.92560452222824
123,919773859,-0.32930395007133,-0.34848254919052,40.88847351074219,0.06572294980288,-0.06675148010254,9.76430892944336,0.16997227072716,-1.09809327125549,-0.79460835456848
124,919790526,-0.33002179861069,-0.34865975379944,40.88373947143555,0.07058664411306,-0.05350069329143,9.75223159790039,0.11253581196070,-1.04293644428253,-0.96666175127029
125,919807193,-0.32996788620949,-0.34847861528397,40.88196945190430,0.05729129910469,-0.05913484841585,9.75103473663330,0.15877953171730,-1.02148580551147,-0.88726240396500
126,919823860,-0.33140149712563,-0.34845659136772,40.87744522094727,0.06494376063347,-0.05582829937339,9.75815010070801,0.06896860152483,-1.03042471408844,-0.91913741827011
127,919840527,-0.33184355497360,-0.34917670488358,40.87389373779297,0.06200773268938,-0.05488381534815,9.74736309051514,0.12954261898994,-1.07673227787018,-0.83654922246933
128,919857194,-0.33211404085159,-0.34948664903641,40.86901473999023,0.04435710236430,-0.06789692491293,9.76839542388916,0.13914740085602,-1.05113244056702,-0.82615047693253
129,919873861,-0.33318755030632,-0.34906011819839,40.86151885986328,0.07596967369318,-0.04733155667782,9.76987648010254,0.09102112799883,-1.00719392299652,-0.94341820478439
130,919890528,-0.33400771021843,-0.34917217493057,40.86039352416992,0.06342748552561,-0.06319855898619,9.75591182708740,0.10720834136009,-1.04005479812622,-0.77473282814026
131,919907195,-0.33441999554634,-0.34961742162704,40.85403442382812,0.06384950876236,-0.03450759500265,9.76680469512939,0.13050310313702,-1.05984055995941,-0.93994748592377
132,919923862,-0.33543151617050,-0.35081148147583,40.85161972045898,0.07298085838556,-0.07884047925472,9.76408672332764,0.09397941082716,-1.10441958904266,-0.83661323785782
133,919940529,-0.33536684513092,-0.35166487097740,40.84638595581055,0.06871322542429,-0.04666747897863,9.76782131195068,0.15899723768234,-1.08378863334656,-0.88882476091385
134,919957196,-0.33565816283226,-0.35192680358887,40.84263229370117,0.05897290632129,-0.06495321542025,9.77394485473633,0.13802044093609,-1.04887855052948,-0.88194775581360
135,919973863,-0.33641034364700,-0.35152506828308,40.84138488769531,0.06269679963589,-0.06365259736776,9.76656913757324,0.11098624020815,-1.00884568691254,-0.76672899723053
136,919990530,-0.33739909529686,-0.35172185301781,40.83475112915039,0.05442152172327,-0.05093188583851,9.75596237182617,0.09508074820042,-1.04429388046265,-1.00979351997375
137,920007197,-0.33680102229118,-0.35111966729164,40.83247756958008,0.05588415265083,-0.05232921987772,9.78073883056641,0.19121803343296,-0.99770432710648,-0.80370092391968
138,920023864,-0.33781719207764,-0.35123777389526,40.82720947265625,0.06150304526091,-0.03809582814574,9.77408599853516,0.09340310841799,-1.04002916812897,-0.93025320768356
139,920040531,-0.33697515726089,-0.35163822770119,40.82164764404297,0.05559825897217,-0.07468274980783,9.77103710174561,0.20506168901920,-1.05757403373718,-0.89894181489944
140,920057198,-0.33727699518204,-0.35208794474602,40.81932830810547,0.07786770910025,-0.05331944674253,9.76547718048096,0.13738010823727,-1.06028890609741,-0.84501415491104
141,920073865,-0.33685857057571,-0.35217496752739,40.81415939331055,0.07462657243013,-0.07147949188948,9.75668811798096,0.17885988950729,-1.03787791728973,-0.99440032243729
142,920090532,-0.33568298816681,-0.35190948843956,40.81040573120117,0.06126493215561,-0.05583202838898,9.76918411254883,0.22615376114845,-1.01752865314484,-0.80034565925598
143,920107199,-0.33544057607651,-0.35247856378555,40.80457305908203,0.06823567301035,-0.06516705453396,9.77272510528564,0.16862761974335,-1.06737089157104,-0.92356836795807
144,920123866,-0.33614683151245,-0.35168692469597,40.80177307128906,0.05958639830351,-0.04328123107553,9.75290870666504,0.11300963163376,-0.98547422885895,-0.88489311933517
145,920140533,-0.33598029613495,-0.35304087400436,40.79780960083008,0.06063822284341,-0.05838961899281,9.76044940948486,0.16459360718727,-1.11420357227325,-0.92417007684708
146,920157200,-0.33559906482697,-0.35409793257713,40.79442596435547,0.06975084543228,-0.05506542325020,9.75369834899902,0.17734874784946,-1.09732496738434,-0.85151976346970
147,920173867,-0.33442127704620,-0.35415431857109,40.79307937622070,0.06886958330870,-0.05088159441948,9.76940441131592,0.22544936835766,-1.03654587268829,-0.84871512651443
148,920190534,-0.33419597148895,-0.35485053062439,40.79164505004883,0.06899701803923,-0.06606300175190,9.75497341156006,0.16784642636776,-1.07552850246429,-0.89156520366669
149,920207201,-0.33419573307037,-0.35449600219727,40.78772354125977,0.06218884512782,-0.06040614470840,9.76361274719238,0.15445098280907,-1.01181685924530,-0.88575106859207
150,920223868,-0.33467850089073,-0.35466200113297,40.78533554077148,0.06327664107084,-0.06741967797279,9.75823402404785,0.12613613903522,-1.04274427890778,-0.89566332101822
151,920240535,-0.33470255136490,-0.35333842039108,40.78034591674805,0.05645593628287,-0.04076716676354,9.76671695709229,0.15320876240730,-0.95365047454834,-0.89004129171371
152,920257202,-0.33455738425255,-0.35328394174576,40.78018951416016,0.04960899427533,-0.06630181521177,9.77467536926270,0.16323615610600,-1.03037333488464,-0.84160774946213
153,920273869,-0.33396625518799,-0.35380595922470,40.77601623535156,0.05218073353171,-0.04941270500422,9.76263713836670,0.19035999476910,-1.06529629230499,-0.90362882614136
154,920290536,-0.33428046107292,-0.35387668013573,40.77457809448242,0.06399427354336,-0.04664339497685,9.77411460876465,0.13527987897396,-1.03835177421570,-0.85160952806473
155,920307203,-0.33376511931419,-0.35414564609528,40.76789093017578,0.06675531715155,-0.05279290303588,9.74756908416748,0.18528869748116,-1.05004394054413,-0.96673858165741
156,920323870,-0.33430030941963,-0.35385978221893,40.76478958129883,0.06675670295954,-0.06328041106462,9.76886844635010,0.12167954444885,-1.01650404930115,-0.85382497310638
157,920340537,-0.33415207266808,-0.35364109277725,40.76215362548828,0.07211055606604,-0.05544320493937,9.76867485046387,0.16322334110737,-1.02134490013123,-0.83512771129608
158,920357204,-0.33436143398285,-0.35369417071342,40.75672912597656,0.06310371309519,-0.06100559234619,9.76561164855957,0.14165744185448,-1.03686618804932,-0.92721813917160
159,920373871,-0.33499774336815,-0.35368749499321,40.75519943237305,0.04926027357578,-0.06503642350435,9.75361061096191,0.11683872342110,-1.03379273414612,-0.83151632547379
160,920390538,-0.33484002947807,-0.35343325138092,40.75106430053711,0.07327485084534,-0.05085806176066,9.76620769500732,0.16323614120483,-1.01830971240997,-0.89994072914124
161,920407205,-0.33495458960533,-0.35318493843079,40.74752426147461,0.07076669484377,-0.07893738150597,9.78043365478516,0.14742030203342,-1.01937270164490,-0.87741434574127
162,920423872,-0.33527290821075,-0.35364031791687,40.74523544311523,0.04324620962143,-0.05151363834739,9.76336383819580,0.13576650619507,-1.06149268150330,-0.88682699203491
163,920440539,-0.33632034063339,-0.35477596521378,40.74013137817383,0.05881248041987,-0.04693746194243,9.75998783111572,0.09041922539473,-1.10128200054169,-0.96346008777618
164,920457206,-0.33613869547844,-0.35544332861900,40.73538589477539,0.06309101730585,-0.05392185226083,9.75901699066162,0.16578459739685,-1.07476007938385,-0.87851554155350
165,920473873,-0.33467990159988,-0.35594657063484,40.73269653320312,0.06846112757921,-0.05146826431155,9.75244426727295,0.24129083752632,-1.06420767307281,-0.90014564990997
166,920490540,-0.33397442102432,-0.35646697878838,40.72849273681641,0.06456391513348,-0.07397496700287,9.75755977630615,0.19673754274845,-1.06580841541290,-0.84735769033432
167,920507207,-0.33524280786514,-0.35645627975464,40.72469329833984,0.07026546448469,-0.04968754574656,9.74161434173584,0.07786901295185,-1.03349804878235,-0.94696563482285
168,920523874,-0.33476960659027,-0.35758110880852,40.72190093994141,0.07464128732681,-0.06016832217574,9.75903606414795,0.18256092071533,-1.10221695899963,-0.85589963197708
169,920540541,-0.33429887890816,-0.35820919275284,40.71836471557617,0.06251570582390,-0.05023997649550,9.75604915618896,0.18276582658291,-1.07117438316345,-0.88555914163589
170,920557208,-0.33471861481667,-0.35836806893349,40.71664810180664,0.06898100674152,-0.06323228776455,9.77431488037109,0.12919685244560,-1.04361498355865,-0.87198430299759
171,920573875,-0.33430802822113,-0.35837328433990,40.71675109863281,0.06912332028151,-0.04564731568098,9.75137329101562,0.17862938344479,-1.03495800495148,-0.82410144805908
172,920590542,-0.33313161134720,-0.35851863026619,40.71381378173828,0.06293486803770,-0.06738143414259,9.77036190032959,0.22442486882210,-1.04255199432373,-0.93025320768356
173,920607209,-0.33240944147110,-0.35870364308357,40.71231842041016,0.06894759088755,-0.06392216682434,9.75824737548828,0.19814622402191,-1.04598426818848,-0.80980956554413
174,920623876,-0.33250355720520,-0.35887077450752,40.71002197265625,0.05597097054124,-0.05495762079954,9.75899600982666,0.14893144369125,-1.04390966892242,-0.83886718750000
175,920640543,-0.33301702141762,-0.35915070772171,40.70692443847656,0.06591465324163,-0.05058594048023,9.75673770904541,0.12256316840649,-1.05136287212372,-0.91195291280746
176,920657210,-0.33332711458206,-0.35933512449265,40.70485687255859,0.07544314116240,-0.04528423771262,9.76182651519775,0.13618911802769,-1.04511332511902,-0.85741066932678
177,920673877,-0.33344766497612,-0.35881280899048,40.70184326171875,0.06726251542568,-0.06279373168945,9.76256561279297,0.14581951498985,-1.00262188911438,-0.95052576065063
178,920690544,-0.33403241634369,-0.35973930358887,40.69985580444336,0.06692583113909,-0.05062612146139,9.76353645324707,0.11873407661915,-1.08919286727905,-0.90434610843658
179,920707211,-0.33416679501534,-0.36082527041435,40.69767379760742,0.06507581472397,-0.06700436025858,9.75935649871826,0.14624209702015,-1.09918177127838,-0.89685422182083
180,920723878,-0.33336231112480,-0.36106359958649,40.69440841674805,0.06010919064283,-0.05039110779762,9.75962829589844,0.20177045464516,-1.04796922206879,-0.92154490947723
181,920740545,-0.33419218659401,-0.36044961214066,40.69121551513672,0.05846307054162,-0.06936561316252,9.75822353363037,0.10419886559248,-0.99771702289581,-0.90758591890335
182,920757212,-0.33429840207100,-0.36051291227341,40.68806457519531,0.06172916293144,-0.03575748950243,9.79362964630127,0.14736905694008,-1.03764724731445,-0.89305078983307
183,920773879,-0.33564457297325,-0.35972896218300,40.68637847900391,0.05984203517437,-0.06873559951782,9.77769184112549,0.07284892350435,-0.98711347579956,-0.93464577198029
184,920790546,-0.33577084541321,-0.36005374789238,40.68322372436523,0.07310287654400,-0.03157874941826,9.73363780975342,0.14593477547169,-1.05341196060181,-0.92904937267303
185,920807213,-0.33603513240814,-0.36002057790756,40.68284225463867,0.06645079702139,-0.07260286062956,9.77032375335693,0.13786675035954,-1.03290903568268,-0.87805449962616
186,920823880,-0.33650779724121,-0.35933765769005,40.68184280395508,0.05082209780812,-0.05562148988247,9.77945613861084,0.12573915719986,-0.99286353588104,-0.83771461248398
187,920840547,-0.33742043375969,-0.35991191864014,40.67757034301758,0.07253652811050,-0.05164214223623,9.77649593353271,0.09848722815514,-1.06915092468262,-0.88007795810699
188,920857214,-0.33819630742073,-0.36090227961540,40.67578125000000,0.04592225700617,-0.05745454132557,9.76539421081543,0.10811760276556,-1.09412324428558,-0.82284635305405
189,920873881,-0.33868327736855,-0.35969835519791,40.67387390136719,0.06727379560471,-0.04606623947620,9.77339267730713,0.12407432496548,-0.96280694007874,-0.89850640296936
190,920890548,-0.33963647484779,-0.35896646976471,40.67143249511719,0.06481436640024,-0.07545959204435,9.75287532806396,0.09602841734886,-0.99046880006790,-0.87052446603775
191,920907215,-0.33953413367271,-0.35855010151863,40.66642761230469,0.04772224277258,-0.05497476458549,9.75931835174561,0.16026507318020,-1.01025462150574,-0.87805461883545
192,920923882,-0.33902299404144,-0.35868087410927,40.66329193115234,0.06115819513798,-0.05942733958364,9.76332664489746,0.18450747430325,-1.04251360893250,-0.89009249210358
193,920940549,-0.33973643183708,-0.35884815454483,40.66126251220703,0.07078003138304,-0.05307246372104,9.77111339569092,0.11084536463022,-1.04506218433380,-0.85921645164490
194,920957216,-0.34020096063614,-0.35985624790192,40.65809249877930,0.06674760580063,-0.06525212526321,9.73678016662598,0.12515006959438,-1.09508383274078,-0.94555675983429
195,920973883,-0.33999505639076,-0.35959792137146,40.65563583374023,0.07425389438868,-0.06175244227052,9.75023365020752,0.16610476374626,-1.01915478706360,-0.88231915235519
196,920990550,-0.33980095386505,-0.36025583744049,40.65462493896484,0.06577751785517,-0.04622342437506,9.75715637207031,0.16570776700974,-1.07415819168091,-0.88782578706741
197,921007217,-0.34074431657791,-0.36079522967339,40.65270996093750,0.06483094394207,-0.06622923910618,9.74932670593262,0.09670715034008,-1.06689703464508,-0.88498276472092
198,921023884,-0.34121915698051,-0.36176389455795,40.64866638183594,0.06252692639828,-0.05500076338649,9.77611732482910,0.12507322430611,-1.09316277503967,-0.86439025402069
199,921040551,-0.34160384535789,-0.36094006896019,40.64621353149414,0.06638950109482,-0.05827990546823,9.76876449584961,0.13122026622295,-0.98532062768936,-0.81256288290024
200,921057218,-0.34125593304634,-0.36082074046135,40.64245986938477,0.06777495145798,-0.05152639746666,9.76784229278564,0.17448012530804,-1.02809381484985,-0.91048032045364
201,921073885,-0.34120875597000,-0.36076986789703,40.64027786254883,0.06378661841154,-0.05780477449298,9.76923084259033,0.15582126379013,-1.03116738796234,-0.93286561965942
202,921090552,-0.34092718362808,-0.36067783832550,40.63756561279297,0.07565043866634,-0.04131304100156,9.76299571990967,0.17027962207794,-1.02896463871002,-0.88822287321091
203,921107219,-0.34141322970390,-0.36005684733391,40.63607025146484,0.05222897604108,-0.06323183327913,9.77768230438232,0.12402309477329,-0.99730718135834,-0.87135678529739
204,921123886,-0.34178689122200,-0.35951721668243,40.63516616821289,0.05976907163858,-0.06270535290241,9.76453876495361,0.13150198757648,-1.00285243988037,-0.87321382761002
205,921140553,-0.34149587154388,-0.35907527804375,40.63322448730469,0.05201569199562,-0.07294356822968,9.76253890991211,0.17111203074455,-1.00848722457886,-0.89657247066498
206,921157220,-0.34191942214966,-0.35855513811111,40.63055038452148,0.07252538949251,-0.07048360258341,9.78158569335938,0.12801866233349,-1.00313413143158,-0.90592116117477
207,921173887,-0.34131976962090,-0.35800817608833,40.62578964233398,0.07047639787197,-0.04195111989975,9.77056694030762,0.18930988013744,-1.00292921066284,-0.86108624935150
208,921190554,-0.34074667096138,-0.35918346047401,40.62807464599609,0.05285166203976,-0.07199163734913,9.75566005706787,0.18837499618530,-1.10485506057739,-0.89999192953110
209,921207221,-0.34137180447578,-0.35947331786156,40.62643432617188,0.05655889958143,-0.04936851933599,9.76821136474609,0.11581422388554,-1.05264353752136,-0.89301234483719
210,921223888,-0.34158480167389,-0.35967579483986,40.62565994262695,0.05862468481064,-0.05735776573420,9.76100730895996,0.14081221818924,-1.04709827899933,-0.90206640958786
211,921240555,-0.34123507142067,-0.36023446917534,40.62424087524414,0.04877335950732,-0.04296073690057,9.75891113281250,0.17458257079124,-1.06826722621918,-0.88991320133209
212,921257222,-0.34136030077934,-0.36045601963997,40.62389373779297,0.06389556825161,-0.06741661578417,9.76757144927979,0.14555057883263,-1.04841744899750,-0.85791015625000
213,921273889,-0.34140822291374,-0.36188045144081,40.62203979492188,0.05544373765588,-0.06122177839279,9.76639461517334,0.15124940872192,-1.12133681774139,-0.87007623910904
214,921290556,-0.34177225828171,-0.36204841732979,40.62009429931641,0.07446247339249,-0.04706153646111,9.76703357696533,0.13101536035538,-1.04493415355682,-0.89766114950180
215,921307223,-0.34137910604477,-0.36255964636803,40.61796188354492,0.06107702851295,-0.08884473145008,9.76212882995605,0.17679803073406,-1.06662797927856,-0.89661091566086
216,921323890,-0.34124633669853,-0.36276045441628,40.61706924438477,0.07068114727736,-0.04131042584777,9.74738788604736,0.16198112070560,-1.04717528820038,-0.85602772235870
217,921340557,-0.34188908338547,-0.36314961314201,40.61530303955078,0.05204165354371,-0.07866655290127,9.76390647888184,0.11518671363592,-1.05852162837982,-0.89133477210999
218,921357224,-0.34258621931076,-0.36317580938339,40.61365509033203,0.06391584873199,-0.04392324760556,9.75924587249756,0.11172899603844,-1.03780102729797,-0.82981306314468
219,921373891,-0.34117901325226,-0.36290833353996,40.60440444946289,0.07081779837608,-0.06985334306955,9.75560188293457,0.23810204863548,-1.01962876319885,-0.86281496286392
220,921390558,-0.34017175436020,-0.36361894011497,40.60221862792969,0.05816069990396,-0.04261364415288,9.75263118743896,0.21433345973492,-1.07727003097534,-0.93559342622757
221,921407225,-0.34106251597404,-0.36455145478249,40.59984588623047,0.06903711706400,-0.06630790978670,9.76522827148438,0.09957577288151,-1.09103703498840,-0.89558637142181
222,921423892,-0.34064230322838,-0.36536976695061,40.59657287597656,0.06356552988291,-0.04789744690061,9.77572727203369,0.17856532335281,-1.08426237106323,-0.98032605648041
223,921440559,-0.34081935882568,-0.36587616801262,40.59346389770508,0.07041846215725,-0.04831061512232,9.76256275177002,0.14286123216152,-1.06596219539642,-0.88076955080032
224,921457226,-0.34023714065552,-0.36631456017494,40.58564376831055,0.06716708093882,-0.07752880454063,9.76699161529541,0.18801641464233,-1.06158220767975,-0.92418289184570
225,921473893,-0.33971926569939,-0.36724761128426,40.58327865600586,0.06454672664404,-0.05261439830065,9.75880813598633,0.18435382843018,-1.09119069576263,-0.91242682933807
226,921490560,-0.34085947275162,-0.36618721485138,40.58278656005859,0.06302589923143,-0.08003880828619,9.74659919738770,0.08520704507828,-0.97237324714661,-0.85546410083771
227,921507227,-0.34116792678833,-0.36654007434845,40.57878875732422,0.07486920803785,-0.03140171617270,9.76005840301514,0.13570249080658,-1.05640864372253,-0.89043837785721
228,921523894,-0.34191378951073,-0.36649328470230,40.57626342773438,0.04797732457519,-0.05943915992975,9.75510978698730,0.10845056176186,-1.03253757953644,-0.87485295534134
229,921540561,-0.34315419197083,-0.36601379513741,40.57331085205078,0.06393118202686,-0.04100820794702,9.74754428863525,0.07797146588564,-1.00606691837311,-0.97403824329376
230,921557228,-0.34284943342209,-0.36548459529877,40.56927490234375,0.05979050323367,-0.05182414501905,9.78119564056396,0.17154747247696,-1.00372326374054,-0.90020966529846
231,921573895,-0.34355652332306,-0.36726063489914,40.56795120239258,0.05865569040179,-0.06820010393858,9.77523899078369,0.11120393127203,-1.14240300655365,-0.86784785985947
232,921590562,-0.34370630979538,-0.36793673038483,40.56574249267578,0.06526912003756,-0.06048454716802,9.75103473663330,0.14471814036369,-1.07665550708771,-0.88496994972229
233,921607229,-0.34338182210922,-0.36860162019730,40.56342315673828,0.06820823252201,-0.06363865733147,9.75932693481445,0.17273843288422,-1.07511866092682,-0.90402591228485
234,921623896,-0.34367489814758,-0.36803418397903,40.56157302856445,0.06113876774907,-0.06008916720748,9.76182460784912,0.13487008213997,-1.00094437599182,-0.93588811159134
235,921640563,-0.34422013163567,-0.36852008104324,40.55928802490234,0.06069876253605,-0.06460002064705,9.74925994873047,0.12125692516565,-1.06501460075378,-0.86615753173828
236,921657230,-0.34400534629822,-0.36828568577766,40.55893325805664,0.05548195540905,-0.05350670218468,9.77172756195068,0.16642493009567,-1.02195954322815,-0.89754587411880
237,921673897,-0.34444776177406,-0.36936518549919,40.56031036376953,0.05380496382713,-0.06628847122192,9.76028060913086,0.12637947499752,-1.10015499591827,-0.86862915754318
238,921690564,-0.34446871280670,-0.36915400624275,40.55962753295898,0.06303903460503,-0.06081327423453,9.77169704437256,0.15237633883953,-1.02368843555450,-0.83305299282074
239,921707231,-0.33914196491241,-0.35613068938255,40.55493927001953,0.07006407529116,-0.05856246873736,9.74289321899414,0.11234371364117,-1.04520297050476,-0.93734806776047
240,921723898,-0.33968862891197,-0.35588738322258,40.55385589599609,0.05872698500752,-0.05630999058485,9.74848937988281,0.11934876441956,-1.02560925483704,-0.84087765216827
241,921740565,-0.33952409029007,-0.35684305429459,40.55095672607422,0.05966073647141,-0.06868666410446,9.77448177337646,0.16076450049877,-1.09621071815491,-0.93558067083359
242,921757232,-0.34046411514282,-0.35713121294975,40.54831695556641,0.06602513045073,-0.05805387720466,9.76491165161133,0.09529843926430,-1.05657494068146,-0.96375465393066
243,921773899,-0.34104707837105,-0.35747832059860,40.54663848876953,0.06903816759586,-0.05867519602180,9.76307868957520,0.11710766702890,-1.05959737300873,-0.88659632205963
244,921790566,-0.34242004156113,-0.35733145475388,40.54866790771484,0.07647361606359,-0.05636465176940,9.74984931945801,0.06928876042366,-1.03077030181885,-0.89073294401169
245,921807233,-0.34191125631332,-0.35736304521561,40.54408264160156,0.06394899636507,-0.06788912415504,9.76765441894531,0.18231759965420,-1.04063117504120,-0.94824630022049
246,921823900,-0.34130707383156,-0.35815477371216,40.54167556762695,0.07465069741011,-0.05952237173915,9.76695919036865,0.18809327483177,-1.08640110492706,-0.94329011440277
247,921840567,-0.34078603982925,-0.35873791575432,40.53998565673828,0.07008913159370,-0.03650522977114,9.76905441284180,0.18286828696728,-1.07400465011597,-0.89722573757172
248,921857234,-0.34097638726234,-0.35972630977631,40.53724670410156,0.05985990539193,-0.05622891336679,9.75837326049805,0.14028714597225,-1.09905374050140,-0.87252223491669
249,921873901,-0.34072756767273,-0.35928824543953,40.53686904907227,0.06485995650291,-0.05750321224332,9.75640201568604,0.16716770827770,-1.01341772079468,-0.82640665769577
250,921890568,-0.34116077423096,-0.36003246903419,40.53492736816406,0.06127017736435,-0.05934144929051,9.75506496429443,0.12552143633366,-1.08330190181732,-0.90239948034286
251,921907235,-0.34157764911652,-0.36048293113708,40.53300857543945,0.05777513608336,-0.07122948020697,9.76673412322998,0.12652035057545,-1.06688404083252,-0.90501201152802
252,921923902,-0.34118828177452,-0.36116066575050,40.53163528442383,0.06388224661350,-0.05958321690559,9.76725578308105,0.17597848176956,-1.08043336868286,-0.82559978961945
253,921940569,-0.34130743145943,-0.36217623949051,40.52948760986328,0.05438105762005,-0.06811949610710,9.77658843994141,0.14394977688789,-1.10012936592102,-0.92766624689102
254,921957236,-0.34220770001411,-0.36273497343063,40.52927780151367,0.06726107001305,-0.05614522844553,9.76832008361816,0.09884580969810,-1.07323622703552,-0.84072411060333
255,921973903,-0.34153431653976,-0.36156269907951,40.52951812744141,0.06624110788107,-0.05706797912717,9.75026893615723,0.19203762710094,-0.96923589706421,-0.84575700759888
256,921990570,-0.34157478809357,-0.36181560158730,40.52739715576172,0.04916971921921,-0.05693967640400,9.75638675689697,0.14900828897953,-1.05401384830475,-0.92732059955597
257,922007237,-0.34144210815430,-0.36329910159111,40.52620315551758,0.05001133307815,-0.05760871991515,9.75104618072510,0.15979123115540,-1.12893104553223,-0.88384300470352
258,922023904,-0.34197559952736,-0.36332720518112,40.52742385864258,0.06492792814970,-0.06627290695906,9.77412509918213,0.12010435760021,-1.04148924350739,-0.85815358161926
259,922040571,-0.34148263931274,-0.36293870210648,40.52600479125977,0.06414562463760,-0.05594179406762,9.78252696990967,0.18115223944187,-1.01608145236969,-0.93292981386185
260,922057238,-0.34097811579704,-0.36306381225586,40.52439498901367,0.05937639251351,-0.08093053847551,9.75684452056885,0.18229199945927,-1.04711127281189,-0.90985280275345
261,922073905,-0.34069636464119,-0.36309888958931,40.52263259887695,0.06734141707420,-0.04427820816636,9.75684165954590,0.16917829215527,-1.04155325889587,-0.86340403556824
262,922090572,-0.34033188223839,-0.36271390318871,40.52524185180664,0.06128446385264,-0.07283589988947,9.75613117218018,0.17442891001701,-1.01787436008453,-0.77346515655518
263,922107239,-0.34017977118492,-0.36232593655586,40.52147674560547,0.06234250217676,-0.05212224274874,9.77524662017822,0.16046997904778,-1.01603019237518,-0.93624669313431
264,922123906,-0.34047779440880,-0.36367583274841,40.52078628540039,0.06708516925573,-0.08290641009808,9.75900936126709,0.13424256443977,-1.12132406234741,-0.82051563262939
265,922140573,-0.33977305889130,-0.36355927586555,40.51823043823242,0.05468724295497,-0.04230902716517,9.74955558776855,0.19389456510544,-1.03212785720825,-0.93426167964935
266,922157240,-0.34087386727333,-0.36323148012161,40.51353454589844,0.05605304986238,-0.04913302138448,9.76815032958984,0.08601383864880,-1.02071726322174,-0.87250930070877
267,922173907,-0.34011340141296,-0.36395290493965,40.51209640502930,0.08281442523003,-0.05624157562852,9.77273368835449,0.19749312102795,-1.08275115489960,-0.90870010852814
268,922190574,-0.34067621827126,-0.36339652538300,40.51033782958984,0.05281948670745,-0.04346483573318,9.76143932342529,0.11747905611992,-1.00606691837311,-0.93380063772202
269,922207241,-0.34126916527748,-0.36339542269707,40.50696563720703,0.06299684941769,-0.07005251199007,9.77133750915527,0.11618561297655,-1.03967070579529,-0.91386115550995
270,922223908,-0.34159338474274,-0.36330166459084,40.50795745849609,0.07204154133797,-0.04657385125756,9.74199676513672,0.13183498382568,-1.03426647186279,-0.92767906188965
271,922240575,-0.34162759780884,-0.36296862363815,40.50821304321289,0.06520765274763,-0.07232136279345,9.76706218719482,0.15044260025024,-1.02070450782776,-0.82347393035889
272,922257242,-0.34214824438095,-0.36363536119461,40.50822067260742,0.05756686255336,-0.04970050230622,9.77034282684326,0.12103921175003,-1.07948565483093,-0.87034505605698
273,922273909,-0.34154590964317,-0.36414372920990,40.50804901123047,0.07019673287868,-0.07414144277573,9.78643703460693,0.18738892674446,-1.07055974006653,-0.86578613519669
274,922290576,-0.34190040826797,-0.36432704329491,40.50653457641602,0.06035209819674,-0.03622958064079,9.76304626464844,0.13111782073975,-1.05131173133850,-0.87996280193329
275,922307243,-0.34131655097008,-0.36552947759628,40.50498580932617,0.05775439739227,-0.05810542032123,9.77669906616211,0.18628756701946,-1.11191141605377,-0.90820074081421
276,922323910,-0.34245795011520,-0.36661916971207,40.50327682495117,0.06259729713202,-0.04656359925866,9.77269458770752,0.08326048403978,-1.10485494136810,-0.89242327213287
277,922340577,-0.34244346618652,-0.36762201786041,40.50168991088867,0.05798225849867,-0.07892689108849,9.77291202545166,0.15253001451492,-1.10066711902618,-0.88143527507782
278,922357244,-0.34231224656105,-0.36814501881599,40.50100708007812,0.06653568148613,-0.06255266070366,9.76300716400146,0.15995772182941,-1.07152009010315,-0.85566914081573
279,922373911,-0.34293749928474,-0.36846294999123,40.50042343139648,0.06263989955187,-0.05632118508220,9.75063037872314,0.11439270526171,-1.05981492996216,-0.81687855720520
280,922390578,-0.34280064702034,-0.36841115355492,40.49908065795898,0.07138431817293,-0.06638599187136,9.76681900024414,0.15990649163723,-1.03664839267731,-0.92322260141373
281,922407245,-0.34453812241554,-0.36779794096947,40.49806976318359,0.05760678648949,-0.03686377406120,9.77789497375488,0.04796618223190,-1.00344157218933,-0.86363470554352
282,922423912,-0.34612530469894,-0.36813342571259,40.49519729614258,0.06661552190781,-0.06743308156729,9.78149509429932,0.05530422553420,-1.05953347682953,-0.95062822103500
283,922440579,-0.34699016809464,-0.36853805184364,40.49345397949219,0.06035843864083,-0.04323258250952,9.76812076568604,0.10004960745573,-1.06479668617249,-0.86961513757706
284,922457246,-0.34707650542259,-0.36901414394379,40.49265289306641,0.05186884477735,-0.05192529037595,9.77659130096436,0.14681838452816,-1.06816470623016,-0.89215427637100
285,922473913,-0.34656155109406,-0.37035828828812,40.49095153808594,0.06387273222208,-0.03807375952601,9.75269889831543,0.18188217282295,-1.12055552005768,-0.94181734323502
286,922490580,-0.34745362401009,-0.37011924386024,40.49046325683594,0.05231863632798,-0.06895626336336,9.76907062530518,0.09788533300161,-1.02585256099701,-0.92396527528763
287,922507247,-0.34636384248734,-0.37008267641068,40.48899078369141,0.05931678414345,-0.06088694557548,9.76949977874756,0.21621599793434,-1.03781378269196,-0.91265726089478
288,922523914,-0.34759843349457,-0.37097153067589,40.49017333984375,0.06562178581953,-0.04557843506336,9.75701332092285,0.07744640111923,-1.09387993812561,-0.90542185306549
289,922540581,-0.34909588098526,-0.37085354328156,40.48960494995117,0.05730649083853,-0.05458655580878,9.74526882171631,0.06159214675426,-1.03308832645416,-0.93382614850998
290,922557248,-0.34814760088921,-0.37110441923141,40.48900604248047,0.06782129406929,-0.05180050060153,9.74915122985840,0.20798152685165,-1.05511522293091,-0.87286806106567
291,922573915,-0.34846326708794,-0.37111830711365,40.48756790161133,0.05772023275495,-0.06856893748045,9.77354335784912,0.13241125643253,-1.04173254966736,-0.89917230606079
292,922590582,-0.34826919436455,-0.37113752961159,40.48814010620117,0.07190507650375,-0.03535857051611,9.75087451934814,0.16354349255562,-1.04187345504761,-0.84553921222687
293,922607249,-0.34927937388420,-0.37081071734428,40.48675918579102,0.07151260972023,-0.07245301455259,9.79495906829834,0.09045764803886,-1.02039718627930,-0.90072178840637
294,922623916,-0.34923666715622,-0.37212061882019,40.48471069335938,0.05672594532371,-0.06643002480268,9.75607013702393,0.15333682298660,-1.11840426921844,-0.93739926815033
295,922640583,-0.34967792034149,-0.37114924192429,40.48212051391602,0.06007893010974,-0.05769268795848,9.76592350006104,0.12466341257095,-0.98233669996262,-0.92961299419403
296,922657250,-0.34924411773682,-0.37093663215637,40.48069000244141,0.05607597902417,-0.06246647238731,9.75741767883301,0.17713102698326,-1.02774798870087,-0.89722561836243
297,922673917,-0.34900924563408,-0.37126371264458,40.48034286499023,0.06948245316744,-0.04999968037009,9.77097129821777,0.16579741239548,-1.06016099452972,-0.88500839471817
298,922690584,-0.34881356358528,-0.37095513939857,40.48026275634766,0.06613180786371,-0.05833511799574,9.76432323455811,0.16337700188160,-1.02167785167694,-0.88763368129730
299,922707251,-0.34925520420074,-0.37176120281219,40.47973251342773,0.07068115472794,-0.05788961052895,9.75220012664795,0.12458657473326,-1.08891105651855,-0.89529192447662
300,922723918,-0.34897044301033,-0.37135019898415,40.47905349731445,0.06055976077914,-0.06307657808065,9.75348472595215,0.16867884993553,-1.01636326313019,-0.85671925544739
301,922740585,-0.34887471795082,-0.37148305773735,40.47901153564453,0.06958510726690,-0.06205245479941,9.76025295257568,0.15722995996475,-1.04878878593445,-0.84779310226440
302,922757252,-0.34864991903305,-0.37123379111290,40.47834777832031,0.06511677801609,-0.06383948028088,9.77750587463379,0.16426065564156,-1.02568626403809,-0.87128007411957
303,922773919,-0.34822675585747,-0.37098392844200,40.47794342041016,0.07404883950949,-0.05578813329339,9.74922370910645,0.17695175111294,-1.02514839172363,-0.86284065246582
304,922790586,-0.34875440597534,-0.37109678983688,40.47644424438477,0.05935575440526,-0.05490739643574,9.74898529052734,0.12019400298595,-1.04734170436859,-0.90193831920624
305,922807253,-0.34772267937660,-0.37208178639412,40.47632217407227,0.05607814341784,-0.05660346895456,9.76798629760742,0.21388524770737,-1.10037279129028,-0.78607940673828
306,922823920,-0.34871500730515,-0.36936807632446,40.47518920898438,0.06959415227175,-0.05541367828846,9.75227165222168,0.09143093228340,-0.87700438499451,-0.91487288475037
307,922840587,-0.34993007779121,-0.36913070082664,40.47532653808594,0.05924797058105,-0.06435047090054,9.76373291015625,0.07873983681202,-1.02717161178589,-0.82296162843704
308,922857254,-0.35095208883286,-0.36882743239403,40.47474670410156,0.06034080311656,-0.05247883498669,9.74529170989990,0.08972769230604,-1.02234375476837,-0.89991509914398
309,922873921,-0.35160255432129,-0.36804127693176,40.47302246093750,0.06932616233826,-0.05959895625710,9.78345489501953,0.11169057339430,-0.99354225397110,-0.89702081680298
310,922890588,-0.35122755169868,-0.36878541111946,40.47298812866211,0.06287255883217,-0.05738434195518,9.76496410369873,0.17451855540276,-1.08535110950470,-0.87969386577606
311,922907255,-0.35132375359535,-0.36903712153435,40.47204208374023,0.06807236373425,-0.07327613979578,9.76320075988770,0.14530724287033,-1.05520474910736,-0.86372423171997
312,922923922,-0.35208362340927,-0.36959186196327,40.46741485595703,0.06192235276103,-0.04964478313923,9.77467250823975,0.10562037676573,-1.07387638092041,-0.95453411340714
313,922940589,-0.35303902626038,-0.36963549256325,40.46483993530273,0.06466723978519,-0.05578822270036,9.77480125427246,0.09310857206583,-1.04279553890228,-0.89749467372894
314,922957256,-0.35277867317200,-0.36944416165352,40.46292114257812,0.05133810639381,-0.05674649029970,9.77636623382568,0.16785922646523,-1.02961778640747,-0.85189121961594
315,922973923,-0.35406902432442,-0.36863651871681,40.46195983886719,0.05720162019134,-0.05432803556323,9.77142238616943,0.07286173105240,-0.99169814586639,-0.98475718498230
316,922990590,-0.35332170128822,-0.37016737461090,40.46221160888672,0.06770015507936,-0.06260363012552,9.76624011993408,0.19593076407909,-1.13288819789886,-0.86901336908340
317,923007257,-0.35284343361855,-0.36988639831543,40.46133422851562,0.06138279289007,-0.04627151414752,9.76686000823975,0.17957702279091,-1.02381634712219,-0.91083884239197
318,923023924,-0.35127961635590,-0.36978483200073,40.46161270141602,0.06940153241158,-0.06715771555901,9.78145503997803,0.24520958960056,-1.03456091880798,-0.83677971363068
319,923040591,-0.35187298059464,-0.36945959925652,40.46142959594727,0.06926757097244,-0.04584285989404,9.76756572723389,0.11583984643221,-1.02137053012848,-0.88479077816010
320,923057258,-0.35176751017570,-0.36937877535820,40.46118164062500,0.05165924504399,-0.06851182132959,9.74603271484375,0.15766538679600,-1.03604650497437,-0.88180679082870
321,923073925,-0.35163643956184,-0.36971879005432,40.46101760864258,0.05737194046378,-0.04920371994376,9.77116775512695,0.15857462584972,-1.06069886684418,-0.88415044546127
322,923090592,-0.35147097706795,-0.37054216861725,40.46093368530273,0.07317902147770,-0.06637585908175,9.73618888854980,0.16146886348724,-1.09084486961365,-0.86768144369125
323,923107259,-0.35164287686348,-0.37032121419907,40.45967102050781,0.07642778009176,-0.04902404546738,9.77080249786377,0.14019751548767,-1.02728700637817,-0.92869091033936
324,923123926,-0.35150164365768,-0.36998298764229,40.45881652832031,0.06794346123934,-0.06618355959654,9.76119041442871,0.16039313375950,-1.02025628089905,-0.86321204900742
325,923140593,-0.35188901424408,-0.37047502398491,40.45897293090820,0.07784759253263,-0.05963287502527,9.76221084594727,0.12801867723465,-1.07077741622925,-0.84648686647415
326,923157260,-0.35241618752480,-0.36917382478714,40.45818328857422,0.06884956359863,-0.04925526678562,9.76135444641113,0.11901582032442,-0.96235883235931,-0.90266841650009
327,923173927,-0.35284495353699,-0.36831051111221,40.46068954467773,0.06309580057859,-0.05299898609519,9.79170608520508,0.12589281797409,-0.98941862583160,-0.82068210840225
328,923190594,-0.35323622822762,-0.36851418018341,40.46246337890625,0.06051512062550,-0.03778937086463,9.75975608825684,0.12800586223602,-1.05325818061829,-0.79982060194016
329,923207261,-0.35274240374565,-0.36797571182251,40.46119689941406,0.05477397516370,-0.07011755555868,9.77409362792969,0.18087048828602,-1.00869214534760,-0.85454213619232
330,923223928,-0.35247051715851,-0.36784240603447,40.46096038818359,0.06071629747748,-0.04169545322657,9.78245162963867,0.16746222972870,-1.03246080875397,-0.88000118732452
331,923240595,-0.35391360521317,-0.36797836422920,40.46002578735352,0.05899398401380,-0.07314199954271,9.76417350769043,0.06433269381523,-1.04927539825439,-0.88700616359711
332,923257262,-0.35531675815582,-0.36868780851364,40.46165466308594,0.07184512168169,-0.04755419865251,9.73692131042480,0.06665064394474,-1.08332753181458,-0.83761215209961
333,923273929,-0.35471820831299,-0.36945712566376,40.46082687377930,0.07539859414101,-0.06066549196839,9.76746559143066,0.18690226972103,-1.08633708953857,-0.94720882177353
334,923290596,-0.35475632548332,-0.36947995424271,40.45965576171875,0.07352161407471,-0.05413378775120,9.76875782012939,0.14779168367386,-1.04196310043335,-0.93568319082260
335,923307263,-0.35507658123970,-0.36947053670883,40.45674896240234,0.05416600033641,-0.06302293390036,9.76842308044434,0.13127148151398,-1.03951704502106,-0.95129400491714
336,923323930,-0.35570150613785,-0.36823481321335,40.45538711547852,0.05566770955920,-0.05347127467394,9.77943420410156,0.11318892240524,-0.96617496013641,-0.92134004831314
337,923340597,-0.35624718666077,-0.36780107021332,40.45388412475586,0.05139434710145,-0.05492557585239,9.75440502166748,0.11836268752813,-1.01504397392273,-0.89415210485458
338,923357264,-0.35736197233200,-0.36753502488136,40.45368957519531,0.06061893701553,-0.08402422815561,9.79020118713379,0.08445147424936,-1.02463603019714,-0.87510913610458
339,923373931,-0.35758224129677,-0.36722189188004,40.45383453369141,0.05504119768739,-0.04517111554742,9.76731777191162,0.13785396516323,-1.02286887168884,-0.84173583984375
340,923390598,-0.35821387171745,-0.36752575635910,40.45470809936523,0.05235441774130,-0.06940672546625,9.74625396728516,0.11308648437262,-1.05944383144379,-0.85908842086792
341,923407265,-0.35821840167046,-0.36752197146416,40.45381164550781,0.05947719141841,-0.04274904355407,9.76372051239014,0.15100607275963,-1.04072070121765,-0.88832521438599
342,923423932,-0.35758498311043,-0.36837410926819,40.45368957519531,0.06531201303005,-0.08504888415337,9.78080749511719,0.18866957724094,-1.09199750423431,-0.82420396804810
343,923440599,-0.35743579268456,-0.36963689327240,40.45263290405273,0.05807557329535,-0.06628134101629,9.76862239837646,0.16023945808411,-1.11673939228058,-0.88580244779587
344,923457266,-0.35607242584229,-0.36984971165657,40.45277404785156,0.05200733989477,-0.07027433812618,9.76414394378662,0.23263376951218,-1.05396270751953,-0.83092719316483
345,923473933,-0.35668659210205,-0.37032580375671,40.45091629028320,0.07590102404356,-0.05496729910374,9.76532363891602,0.11389327049255,-1.06930470466614,-0.96178251504898
346,923490600,-0.35644659399986,-0.37095254659653,40.45151519775391,0.05843153223395,-0.04172666370869,9.76445960998535,0.16598951816559,-1.07908868789673,-0.82315379381180
347,923507267,-0.35563230514526,-0.37179207801819,40.45095443725586,0.07335025817156,-0.06935948133469,9.78307914733887,0.20009280741215,-1.09119057655334,-0.88814604282379
348,923523934,-0.35522466897964,-0.37187525629997,40.44918441772461,0.06569675356150,-0.05350345373154,9.75626373291016,0.17497956752777,-1.04599690437317,-0.95124280452728
349,923540601,-0.35452336072922,-0.37225425243378,40.45006179809570,0.06959933787584,-0.07588874548674,9.75293731689453,0.19280599057674,-1.06391310691833,-0.81649440526962
350,923557268,-0.35474172234535,-0.37182733416557,40.44915771484375,0.04867992550135,-0.04344996437430,9.76402378082275,0.13787956535816,-1.01537704467773,-0.91173529624939
351,923573935,-0.35434544086456,-0.37119916081429,40.44947052001953,0.06410778313875,-0.07323346287012,9.75131797790527,0.17495395243168,-1.00328791141510,-0.83822685480118
352,923590602,-0.35374674201012,-0.37169668078423,40.45116806030273,0.06605954468250,-0.03866334632039,9.76360034942627,0.18750417232513,-1.07132804393768,-0.89180850982666
353,923607269,-0.35375687479973,-0.37123805284500,40.44768905639648,0.05996446311474,-0.06469154357910,9.76786136627197,0.14939245581627,-1.01335358619690,-0.92472088336945
354,923623936,-0.35514187812805,-0.37225544452667,40.44847488403320,0.06383284926414,-0.04959579184651,9.76284885406494,0.06862282752991,-1.10256266593933,-0.82271826267242
355,923640603,-0.35555735230446,-0.37191689014435,40.44729995727539,0.05540885403752,-0.04942264035344,9.76774692535400,0.12562388181686,-1.02025616168976,-0.92917746305466
356,923657270,-0.35491108894348,-0.37245729565620,40.44784545898438,0.05628280714154,-0.06580593436956,9.75909900665283,0.19075696170330,-1.07442712783813,-0.77454078197479
357,923673937,-0.35457447171211,-0.37133046984673,40.44801712036133,0.06693091243505,-0.05886961892247,9.77562332153320,0.17090712487698,-0.97292393445969,-0.91722911596298
358,923690604,-0.35476782917976,-0.37138473987579,40.44752120971680,0.06506673991680,-0.06349309533834,9.77069187164307,0.13928826153278,-1.04466533660889,-0.86482566595078
359,923707271,-0.34859514236450,-0.36384546756744,40.44433212280273,0.04561668634415,-0.06611139327288,9.77501487731934,0.09989593178034,-1.08398056030273,-0.92730778455734
360,923723938,-0.34806793928146,-0.36406123638153,40.44211959838867,0.05199197679758,-0.06461343914270,9.76357364654541,0.18163885176182,-1.05611407756805,-0.89668786525726
361,923740605,-0.34858536720276,-0.36515927314758,40.44042968750000,0.05774480104446,-0.04256005957723,9.78123664855957,0.11800409853458,-1.10832548141479,-0.88786411285400
362,923757272,-0.34918990731239,-0.36505946516991,40.43860626220703,0.05557528883219,-0.06217796355486,9.76655483245850,0.11381644755602,-1.03645634651184,-0.91779267787933
363,923773939,-0.34846666455269,-0.36529606580734,40.43815612792969,0.04921060055494,-0.06182201951742,9.75743484497070,0.19302371144295,-1.05713856220245,-0.88504678010941
364,923790606,-0.34937992691994,-0.36497572064400,40.43694686889648,0.05965605750680,-0.08079183101654,9.76622676849365,0.09438920021057,-1.02344501018524,-0.91601270437241
365,923807273,-0.34910166263580,-0.36434668302536,40.43439102172852,0.05390639230609,-0.07320764660835,9.74490261077881,0.16563093662262,-1.00472223758698,-0.94889932870865
366,923823940,-0.34972837567329,-0.36446955800056,40.43348312377930,0.06443932652473,-0.04706504940987,9.75917720794678,0.11251019686460,-1.05050492286682,-0.80587798357010
367,923840607,-0.35006758570671,-0.36407223343849,40.43214797973633,0.06097316741943,-0.05709988251328,9.79232978820801,0.12932491302490,-1.01927006244659,-0.90485823154449
368,923857274,-0.35101974010468,-0.36329340934753,40.43218612670898,0.04768200591207,-0.05576524883509,9.77199935913086,0.09282682090998,-0.99593710899353,-0.84714007377625
369,923873941,-0.35138615965843,-0.36251008510590,40.43077850341797,0.06269836425781,-0.07179403305054,9.76820087432861,0.12748081982136,-0.99625724554062,-0.88854300975800
370,923890608,-0.35099902749062,-0.36300945281982,40.42982864379883,0.06066350638866,-0.05627238377929,9.76287555694580,0.17243109643459,-1.07251906394958,-0.92910069227219
371,923907275,-0.35244143009186,-0.36193516850471,40.43138885498047,0.06821889430285,-0.06920413672924,9.76541519165039,0.06360274553299,-0.97913515567780,-0.82672673463821
372,923923942,-0.35360142588615,-0.36140260100365,40.43050003051758,0.07286316156387,-0.06053473055363,9.76500129699707,0.08018696308136,-1.01084363460541,-0.88003963232040
373,923940609,-0.35299158096313,-0.36110582947731,40.43045043945312,0.06047888100147,-0.06804399937391,9.77056407928467,0.18651805818081,-1.02536594867706,-0.87281668186188
374,923957276,-0.35267034173012,-0.36130905151367,40.42911148071289,0.07431656122208,-0.05456814542413,9.76350307464600,0.16907583177090,-1.05489742755890,-0.85764122009277
375,923973943,-0.35328710079193,-0.36207568645477,40.42914199829102,0.06737989932299,-0.05880714207888,9.76194763183594,0.11251019686460,-1.08920562267303,-0.89851909875870
376,923990610,-0.35274824500084,-0.36272683739662,40.43008422851562,0.06323009729385,-0.06290140002966,9.75088119506836,0.18263775110245,-1.08186757564545,-0.81630235910416
377,924007277,-0.35328575968742,-0.36332386732101,40.42574691772461,0.06586771458387,-0.04208554327488,9.76439571380615,0.11660820245743,-1.07816648483276,-0.97530597448349
378,924023944,-0.35368105769157,-0.36374056339264,40.42804336547852,0.06662889569998,-0.06480213999748,9.77980327606201,0.12744238972664,-1.06856191158295,-0.76478242874146
379,924040611,-0.35438066720963,-0.36423993110657,40.42837524414062,0.06975749880075,-0.06552691757679,9.76412200927734,0.10786147415638,-1.07315933704376,-0.80882340669632
380,924057278,-0.35430371761322,-0.36426982283592,40.42875671386719,0.06552864611149,-0.06856864690781,9.77054595947266,0.15456624329090,-1.04498529434204,-0.85861462354660
381,924073945,-0.35611268877983,-0.36384335160255,40.42917251586914,0.05538792535663,-0.06028833985329,9.77556133270264,0.04133249819279,-1.01760542392731,-0.84571850299835
382,924090612,-0.35632130503654,-0.36422577500343,40.42812347412109,0.05333663150668,-0.04420394822955,9.75547790527344,0.13690628111362,-1.06615424156189,-0.92569428682327
383,924107279,-0.35561290383339,-0.36364039778709,40.42917633056641,0.05170021206141,-0.07096047699451,9.74648666381836,0.19317740201950,-1.00858974456787,-0.75768774747849
384,924123946,-0.35638740658760,-0.36468043923378,40.42672729492188,0.04943294823170,-0.05529996752739,9.75604629516602,0.10254683345556,-1.10456037521362,-0.98341238498688
385,924140613,-0.35734218358994,-0.36384031176567,40.42714691162109,0.04967986419797,-0.06256212294102,9.76381683349609,0.09178951382637,-0.99229991436005,-0.86121416091919
386,924157280,-0.35698935389519,-0.36315062642097,40.42545318603516,0.05523587390780,-0.03525241836905,9.76287937164307,0.17094556987286,-1.00166141986847,-0.87896376848221
387,924173947,-0.35612455010414,-0.36386561393738,40.42477798461914,0.05841335281730,-0.06987456232309,9.74424362182617,0.20164239406586,-1.08656775951385,-0.89077132940292
388,924190614,-0.35499879717827,-0.36454036831856,40.42574691772461,0.04901334270835,-0.05100510641932,9.76282310485840,0.21741980314255,-1.08350670337677,-0.81612306833267
389,924207281,-0.35471546649933,-0.36420720815659,40.42252731323242,0.06226984784007,-0.06128364056349,9.76922416687012,0.16659140586853,-1.02326571941376,-0.87364912033081
390,924223948,-0.35572001338005,-0.36462277173996,40.42191696166992,0.05110402405262,-0.05500061810017,9.76520442962646,0.08902333676815,-1.06784462928772,-0.91633284091949
391,924240615,-0.35610681772232,-0.36423242092133,40.41978073120117,0.05085559561849,-0.05676409602165,9.77484226226807,0.12613613903522,-1.01943659782410,-0.95596843957901
392,924257282,-0.35441398620605,-0.36335933208466,40.41996002197266,0.05709517747164,-0.06877800077200,9.77565765380859,0.25152313709259,-0.99076336622238,-0.84204316139221
393,924273949,-0.35486057400703,-0.36417809128761,40.41896820068359,0.05197118967772,-0.03969013690948,9.76486873626709,0.12226861715317,-1.09230482578278,-0.89018213748932
394,924290616,-0.35533329844475,-0.36512050032616,40.41772079467773,0.05695442110300,-0.05947988852859,9.75586700439453,0.12128252536058,-1.09984767436981,-0.89912086725235
395,924307283,-0.35527577996254,-0.36418277025223,40.41675949096680,0.05014422535896,-0.05358852446079,9.76245021820068,0.15283738076687,-0.98733115196228,-0.90773969888687
396,924323950,-0.35496056079865,-0.36392450332642,40.41700363159180,0.06147529184818,-0.07072138041258,9.75629043579102,0.16875568032265,-1.02802979946136,-0.85575878620148
397,924340617,-0.35481902956963,-0.36402490735054,40.41660690307617,0.06541990488768,-0.04977377504110,9.76674747467041,0.15801113843918,-1.04860949516296,-0.88783860206604
398,924357284,-0.35530185699463,-0.36372485756874,40.41463470458984,0.06801023334265,-0.05971823260188,9.74764347076416,0.11995065957308,-1.02553248405457,-0.93999880552292
399,924373951,-0.35448545217514,-0.36348524689674,40.41316223144531,0.07114073634148,-0.05088273808360,9.75662326812744,0.19791573286057,-1.02826011180878,-0.95788931846619
400,924390618,-0.35436850786209,-0.36390790343285,40.41326141357422,0.07071303576231,-0.07373616099358,9.75388622283936,0.15692260861397,-1.06886923313141,-0.84241443872452
401,924407285,-0.35390675067902,-0.36326152086258,40.41274261474609,0.06675624847412,-0.07571800798178,9.76307678222656,0.17697735130787,-1.00423562526703,-0.90339839458466
402,924423952,-0.35457327961922,-0.36430048942566,40.41263961791992,0.06482243537903,-0.05985570698977,9.78911590576172,0.10961594432592,-1.10602033138275,-0.85483670234680
403,924440619,-0.35486260056496,-0.36448633670807,40.41225814819336,0.05494925007224,-0.04812467843294,9.77566051483154,0.13274420797825,-1.05451333522797,-0.83615225553513
404,924457286,-0.35578194260597,-0.36465591192245,40.41046142578125,0.06147037446499,-0.06862132251263,9.77201271057129,0.09377449005842,-1.05306613445282,-0.90697121620178
405,924473953,-0.35602557659149,-0.36419707536697,40.41062164306641,0.07018980383873,-0.06209523230791,9.77761745452881,0.13544635474682,-1.01647841930389,-0.82681638002396
406,924490620,-0.35693687200546,-0.36491557955742,40.41009140014648,0.06952773034573,-0.04013095051050,9.76827907562256,0.09467092901468,-1.08547890186310,-0.94623553752899
407,924507287,-0.35683396458626,-0.36559635400772,40.40966033935547,0.06165447458625,-0.06301209330559,9.77110671997070,0.15593650937080,-1.08504366874695,-0.79381442070007
408,924523954,-0.35695716738701,-0.36495366692543,40.40758132934570,0.07026586681604,-0.03557657077909,9.74298477172852,0.14168305695057,-1.00415861606598,-0.95400905609131
409,924540621,-0.35608389973640,-0.36470767855644,40.40697479248047,0.05292306467891,-0.04995073005557,9.76151275634766,0.20164237916470,-1.02797853946686,-0.93618255853653
410,924557288,-0.35556703805923,-0.36465266346931,40.40789413452148,0.06224296241999,-0.05783374980092,9.76738929748535,0.18106257915497,-1.04059278964996,-0.84185099601746
411,924573955,-0.35526704788208,-0.36401593685150,40.40758514404297,0.05685411766171,-0.05466604232788,9.75542259216309,0.16715489327908,-1.00486302375793,-0.90216886997223
412,924590622,-0.35596916079521,-0.36309194564819,40.40798187255859,0.05218259990215,-0.06598876416683,9.76586914062500,0.10688818991184,-0.98783051967621,-0.83934092521667
413,924607289,-0.35491821169853,-0.36373478174210,40.40794754028320,0.04934647306800,-0.04591028764844,9.76792335510254,0.21250215172768,-1.08153474330902,-0.91342562437057
414,924623956,-0.35529312491417,-0.36379638314247,40.40708923339844,0.06565723568201,-0.07054200023413,9.77702617645264,0.12750642001629,-1.04771316051483,-0.84999579191208
415,924640623,-0.35480502247810,-0.36483189463615,40.40719223022461,0.05687656253576,-0.05667471140623,9.77630710601807,0.17828358709812,-1.10516238212585,-0.86339133977890
416,924657290,-0.35494077205658,-0.36303639411926,40.40573120117188,0.04959229752421,-0.07025147229433,9.77056598663330,0.14077378809452,-0.93533742427826,-0.96042490005493
417,924673957,-0.35562887787819,-0.36309269070625,40.40618896484375,0.06212385743856,-0.05243724584579,9.75227832794189,0.10837374627590,-1.04753375053406,-0.80192083120346
418,924690624,-0.35449784994125,-0.36378198862076,40.40485000610352,0.06538572162390,-0.04467069357634,9.74741172790527,0.21741980314255,-1.08391654491425,-0.92866528034210
419,924707291,-0.35450860857964,-0.36435234546661,40.40367889404297,0.05924861133099,-0.06052463129163,9.76929473876953,0.14894424378872,-1.07802557945251,-0.86266130208969
420,924723958,-0.35416030883789,-0.36453178524971,40.40126419067383,0.05480337888002,-0.06082124263048,9.77578353881836,0.16970334947109,-1.05387306213379,-0.95470046997070
421,924740625,-0.35360178351402,-0.36476135253906,40.39940643310547,0.06945357471704,-0.05650534108281,9.75388050079346,0.18222795426846,-1.05686962604523,-0.90286040306091
422,924757292,-0.35458546876907,-0.36496698856354,40.39925003051758,0.07396702468395,-0.03742027655244,9.75874805450439,0.09136690199375,-1.05615246295929,-0.81887644529343
423,924773959,-0.35520741343498,-0.36464008688927,40.39861679077148,0.05721822753549,-0.06767541170120,9.77494621276855,0.11126797646284,-1.02341949939728,-0.95454692840576
424,924790626,-0.35399273037910,-0.36509355902672,40.39990997314453,0.05851851776242,-0.05021525919437,9.74794101715088,0.22258077561855,-1.07077741622925,-0.86344259977341
425,924807293,-0.35470348596573,-0.36557734012604,40.39699554443359,0.06153498589993,-0.06618583202362,9.75572299957275,0.10603018105030,-1.07163548469543,-0.97435837984085
426,924823960,-0.35459697246552,-0.36577972769737,40.39682388305664,0.07250941544771,-0.05458874627948,9.77473640441895,0.15560355782509,-1.05607557296753,-0.83129858970642
427,924840627,-0.35614770650864,-0.36575490236282,40.39625930786133,0.05670846998692,-0.05831691995263,9.76247882843018,0.05671292170882,-1.04198873043060,-0.84722971916199
428,924857294,-0.35613089799881,-0.36516055464745,40.39346694946289,0.05712091550231,-0.04915941506624,9.75794506072998,0.15019927918911,-1.00756514072418,-0.88573843240738
429,924873961,-0.35609382390976,-0.36478561162949,40.39338684082031,0.06462901830673,-0.06756304949522,9.75597095489502,0.15160797536373,-1.02128088474274,-0.86350649595261
430,924890628,-0.35665139555931,-0.36516299843788,40.39262771606445,0.06899828463793,-0.05393289774656,9.77111339569092,0.11527634412050,-1.06553959846497,-0.89034861326218
431,924907295,-0.35681518912315,-0.36512106657028,40.39120101928711,0.04367829114199,-0.05674517527223,9.77210807800293,0.13898091018200,-1.04077196121216,-0.93410789966583
432,924923962,-0.35786968469620,-0.36505231261253,40.39113616943359,0.06222470104694,-0.06091987714171,9.78681087493896,0.08619313687086,-1.03894078731537,-0.85990804433823
433,924940629,-0.35781309008598,-0.36526855826378,40.39116287231445,0.06007571145892,-0.05408208444715,9.76142692565918,0.15267090499401,-1.05701041221619,-0.90280920267105
434,924957296,-0.35770371556282,-0.36575704813004,40.39099884033203,0.06676810979843,-0.05406849086285,9.76740550994873,0.15592370927334,-1.07214760780334,-0.86670809984207
435,924973963,-0.35791239142418,-0.36607953906059,40.38906097412109,0.05232881009579,-0.04655268415809,9.75380706787109,0.13722644746304,-1.06334960460663,-0.86802726984024
436,924990630,-0.35812610387802,-0.36541238427162,40.39065170288086,0.04902055114508,-0.05988818779588,9.74299335479736,0.13681663572788,-1.00363349914551,-0.81097495555878
437,925007297,-0.35845464468002,-0.36491081118584,40.39048004150391,0.05986123904586,-0.05077826604247,9.78233242034912,0.12906880676746,-1.01384031772614,-0.88689100742340
438,925023964,-0.35892257094383,-0.36402410268784,40.38982391357422,0.05542818829417,-0.05619804933667,9.75110244750977,0.12101359665394,-0.98989236354828,-0.91293901205063
439,925040631,-0.35850024223328,-0.36562573909760,40.38957214355469,0.05623229965568,-0.05121543258429,9.76616001129150,0.17417272925377,-1.13966250419617,-0.88549500703812
440,925057298,-0.35913354158401,-0.36535450816154,40.38835906982422,0.06978138536215,-0.04794712364674,9.74977111816406,0.11108867824078,-1.02664661407471,-0.90784209966660
441,925073965,-0.35915994644165,-0.36505207419395,40.38871383666992,0.05336068570614,-0.06532693654299,9.76298427581787,0.14770202338696,-1.02639055252075,-0.84037834405899
442,925090632,-0.35756176710129,-0.36440223455429,40.38755035400391,0.05244029313326,-0.05058564990759,9.75385761260986,0.24528639018536,-1.00460696220398,-0.86363458633423
443,925107299,-0.35708591341972,-0.36542013287544,40.38574600219727,0.07349263876677,-0.07912725955248,9.76049613952637,0.17761766910553,-1.10409939289093,-0.87790089845657
444,925123966,-0.35699638724327,-0.36525848507881,40.38488006591797,0.06393527239561,-0.04991654306650,9.73924636840820,0.15466868877411,-1.03383111953735,-0.87783682346344
445,925140633,-0.35746690630913,-0.36575955152512,40.38486480712891,0.04969676211476,-0.05504777282476,9.75185489654541,0.12060378491879,-1.07392752170563,-0.90478140115738
446,925157300,-0.35781687498093,-0.36488953232765,40.38390731811523,0.06093510985374,-0.05163567885756,9.77284240722656,0.12830041348934,-0.99095535278320,-0.87814414501190
447,925173967,-0.35840713977814,-0.36545211076736,40.38264465332031,0.05712977424264,-0.05199738591909,9.77836418151855,0.11364995688200,-1.07775676250458,-0.91334879398346
448,925190634,-0.35926815867424,-0.36505731940269,40.38199234008789,0.05909625440836,-0.05855956673622,9.75095939636230,0.09723221510649,-1.01921904087067,-0.88730078935623
449,925207301,-0.35863310098648,-0.36369925737381,40.38225936889648,0.07357568293810,-0.05124291032553,9.75287532806396,0.18735049664974,-0.96278142929077,-0.86933338642120
450,925223968,-0.35933059453964,-0.36398294568062,40.38182830810547,0.07050953805447,-0.06616789847612,9.75868797302246,0.10750290751457,-1.05996882915497,-0.90408992767334
451,925240635,-0.35979193449020,-0.36363139748573,40.38196182250977,0.07608626037836,-0.04521645978093,9.76053237915039,0.12078309059143,-1.02268958091736,-0.87080621719360
452,925257302,-0.35849717259407,-0.36476829648018,40.38139724731445,0.07074833661318,-0.06325935572386,9.75211524963379,0.22680686414242,-1.11155295372009,-0.91267013549805
453,925273969,-0.35750135779381,-0.36430236697197,40.38079071044922,0.05818478763103,-0.05424758046865,9.76683521270752,0.20904444158077,-1.01582527160645,-0.86218744516373
454,925290636,-0.35821154713631,-0.36399599909782,40.38063049316406,0.06490029394627,-0.07260498404503,9.77144336700439,0.10609421133995,-1.02516114711761,-0.85910117626190
455,925307303,-0.35802409052849,-0.36416459083557,40.37920379638672,0.06324505060911,-0.05826007574797,9.75131797790527,0.16029068827629,-1.05327105522156,-0.94407123327255
456,925323970,-0.35916450619698,-0.36431905627251,40.38043212890625,0.05220956355333,-0.06781095266342,9.75446128845215,0.08146759122610,-1.05323266983032,-0.79952603578568
457,925340637,-0.35803961753845,-0.36446055769920,40.37836456298828,0.05171541869640,-0.05749887600541,9.77220058441162,0.21598550677299,-1.05095314979553,-0.95790213346481
458,925357304,-0.35815572738647,-0.36373308300972,40.37720870971680,0.05229151248932,-0.04804847016931,9.76858520507812,0.14196479320526,-0.99977886676788,-0.91374582052231
459,925373971,-0.35862377285957,-0.36438304185867,40.37667846679688,0.06222756206989,-0.06724084913731,9.75611877441406,0.12080870568752,-1.08310985565186,-0.88677573204041
460,925390638,-0.35815739631653,-0.36520457267761,40.37633895874023,0.06455846130848,-0.05207934603095,9.76318645477295,0.17654192447662,-1.09226632118225,-0.89800679683685
461,925407305,-0.35744592547417,-0.36491501331329,40.37606811523438,0.05609166994691,-0.06679624319077,9.76059532165527,0.19217848777771,-1.02636480331421,-0.90060657262802
462,925423972,-0.35666421055794,-0.36579176783562,40.37736892700195,0.05940341576934,-0.04211305826902,9.77002811431885,0.19604599475861,-1.09627485275269,-0.83517891168594
463,925440639,-0.35671383142471,-0.36653876304626,40.37746810913086,0.05930083990097,-0.06872312724590,9.77030754089355,0.14634457230568,-1.08868050575256,-0.84492450952530
464,925457306,-0.35674518346786,-0.36589762568474,40.37613677978516,0.04969640448689,-0.04496593773365,9.76677513122559,0.14637017250061,-1.00504231452942,-0.95937490463257
465,925473973,-0.35708960890770,-0.36545825004578,40.37504577636719,0.06344503164291,-0.05326298996806,9.77658176422119,0.12858216464520,-1.01655530929565,-0.93002277612686
466,925490640,-0.35767564177513,-0.36449363827705,40.37425231933594,0.06491570919752,-0.06227274239063,9.77796173095703,0.11350908875465,-0.98597365617752,-0.90786767005920
467,925507307,-0.35781961679459,-0.36395657062531,40.37211227416992,0.05471924319863,-0.04883436858654,9.77015495300293,0.14014628529549,-1.01042103767395,-0.95893955230713
468,925523974,-0.35818779468536,-0.36429616808891,40.37283706665039,0.06803698092699,-0.05854079872370,9.74306583404541,0.12648190557957,-1.06450212001801,-0.85041832923889
469,925540641,-0.35890299081802,-0.36541050672531,40.37263488769531,0.06483928859234,-0.05320061370730,9.76227951049805,0.10654243826866,-1.11061787605286,-0.89216721057892
470,925557308,-0.35913839936256,-0.36513471603394,40.37076950073242,0.06769177317619,-0.07044759392738,9.75819396972656,0.13475480675697,-1.02665936946869,-0.89833980798721
471,925573975,-0.35906103253365,-0.36502173542976,40.37159347534180,0.05576680228114,-0.04072717577219,9.73816967010498,0.15333682298660,-1.03757047653198,-0.86665701866150
472,925590642,-0.35859537124634,-0.36458188295364,40.36981964111328,0.05361272022128,-0.07193140685558,9.76662921905518,0.17638824880123,-1.01658082008362,-0.96321690082550
473,925607309,-0.35885530710220,-0.36453026533127,40.36952590942383,0.06305512785912,-0.05682447925210,9.76527404785156,0.13434500992298,-1.04093849658966,-0.83647233247757
474,925623976,-0.35883206129074,-0.36408191919327,40.36946487426758,0.06911148875952,-0.06609278172255,9.77248096466064,0.14940528571606,-1.01624798774719,-0.92592477798462
475,925640643,-0.35926109552383,-0.36471328139305,40.37015533447266,0.05708381906152,-0.05281202495098,9.76962852478027,0.12421519309282,-1.08164989948273,-0.80653107166290
476,925657310,-0.35919296741486,-0.36497622728348,40.36940002441406,0.06063401699066,-0.06899960339069,9.76630687713623,0.15264528989792,-1.05927729606628,-0.96281975507736
477,925673977,-0.35847687721252,-0.36424160003662,40.37034988403320,0.07128033787012,-0.06552013009787,9.78177452087402,0.19180709123611,-0.99913853406906,-0.87161296606064
478,925690644,-0.35768452286720,-0.36385199427605,40.36778640747070,0.06652414798737,-0.04672595486045,9.76473045349121,0.19695526361465,-1.02049958705902,-0.89812219142914
479,925707311,-0.35109323263168,-0.36170881986618,40.36576461791992,0.05142048373818,-0.06532743573189,9.74660873413086,0.10380186140537,-0.96942794322968,-0.89022058248520
480,925723978,-0.35166046023369,-0.36274075508118,40.36556625366211,0.06568100303411,-0.05421843007207,9.75756359100342,0.11416219919920,-1.10591793060303,-0.85336387157440
481,925740645,-0.35262846946716,-0.36213982105255,40.36424636840820,0.04987881332636,-0.06729350239038,9.76347637176514,0.09006065130234,-1.00777006149292,-0.93000990152359
482,925757312,-0.35232812166214,-0.36103740334511,40.36667251586914,0.05390296503901,-0.05301313474774,9.75734138488770,0.16555409133434,-0.97768801450729,-0.86344248056412
483,925773979,-0.35220471024513,-0.36232286691666,40.36573791503906,0.06218062713742,-0.04885300621390,9.77784061431885,0.15571881830692,-1.12050449848175,-0.91722923517227
484,925790646,-0.35135126113892,-0.36171638965607,40.36512374877930,0.06042956188321,-0.06196505576372,9.77140331268311,0.19896584749222,-1.00782120227814,-0.87138241529465
485,925807313,-0.35115140676498,-0.36209279298782,40.36523056030273,0.05628796294332,-0.06431328505278,9.75955390930176,0.16026507318020,-1.06620550155640,-0.86546587944031
486,925823980,-0.35112544894218,-0.36306539177895,40.36406707763672,0.06020867452025,-0.05543411523104,9.76007938385010,0.14943088591099,-1.10244750976562,-0.87582617998123
487,925840647,-0.35219427943230,-0.36190286278725,40.36286926269531,0.06052080914378,-0.05986095219851,9.77450466156006,0.08311961591244,-0.97378212213516,-0.92743587493896
488,925857314,-0.35192999243736,-0.36156660318375,40.35904312133789,0.05249285697937,-0.06655520945787,9.76518726348877,0.16382524371147,-1.02313768863678,-0.93625950813293
489,925873981,-0.35172992944717,-0.36161369085312,40.35840606689453,0.05388884618878,-0.05141681432724,9.77329063415527,0.16000895202160,-1.04616355895996,-0.90773969888687
490,925890648,-0.35221123695374,-0.36239802837372,40.35896301269531,0.06450487673283,-0.04820451885462,9.77021694183350,0.11861880123615,-1.09115219116211,-0.86054825782776
491,925907315,-0.35168933868408,-0.36097678542137,40.35945129394531,0.06583610922098,-0.05802486836910,9.78005123138428,0.18002527952194,-0.95902919769287,-0.80806791782379
492,925923982,-0.35132357478142,-0.36063596606255,40.35858535766602,0.05858281254768,-0.05808463320136,9.76392841339111,0.16938318312168,-1.02348351478577,-0.91696017980576
493,925940649,-0.35112339258194,-0.35986751317978,40.35723114013672,0.06354494392872,-0.07481396943331,9.76877307891846,0.15979124605656,-0.99748659133911,-0.89101469516754
494,925957316,-0.35112932324409,-0.36145111918449,40.35743331909180,0.05956779047847,-0.03677804768085,9.74283504486084,0.14765080809593,-1.13862526416779,-0.92073798179626
495,925973983,-0.35059872269630,-0.36064562201500,40.35703277587891,0.05557006970048,-0.06289000809193,9.75939178466797,0.17974354326725,-0.99488687515259,-0.91895812749863
496,925990650,-0.35131362080574,-0.36178308725357,40.35620117187500,0.05869128182530,-0.04783743247390,9.74313545227051,0.10480075329542,-1.11175763607025,-0.92028987407684
497,926007317,-0.35199657082558,-0.36300504207611,40.35953521728516,0.05853844806552,-0.06336450576782,9.76821136474609,0.10697785019875,-1.11787915229797,-0.81002724170685
498,926023984,-0.35226470232010,-0.36283272504807,40.35794067382812,0.07707372307777,-0.04064762964845,9.77164936065674,0.13237284123898,-1.03383111953735,-0.88124340772629
499,926040651,-0.35246619582176,-0.36289042234421,40.35637664794922,0.06050592288375,-0.06692252308130,9.76244258880615,0.13507497310638,-1.04658603668213,-0.93240469694138
500,926057318,-0.35197603702545,-0.36220777034760,40.35513687133789,0.06157435849309,-0.05195161700249,9.76225948333740,0.17675964534283,-1.00282680988312,-0.94266271591187
501,926073985,-0.35310503840446,-0.36273685097694,40.35379409790039,0.05950354784727,-0.05767665058374,9.76690196990967,0.08045589178801,-1.07579743862152,-0.86367309093475
502,926090652,-0.35310149192810,-0.36367744207382,40.35294723510742,0.06422521173954,-0.04962747916579,9.77842140197754,0.14747151732445,-1.10023200511932,-0.93447941541672
503,926107319,-0.35209402441978,-0.36426052451134,40.35181808471680,0.07330114394426,-0.05425728857517,9.74616336822510,0.20885235071182,-1.07846117019653,-0.88919603824615
504,926123986,-0.35188841819763,-0.36442032456398,40.35051727294922,0.05397062376142,-0.06773411482573,9.74631023406982,0.16032910346985,-1.05341196060181,-0.86679786443710
505,926140653,-0.35253244638443,-0.36394581198692,40.35025024414062,0.05979460850358,-0.05581957474351,9.75013351440430,0.10841216146946,-1.01514661312103,-0.89866006374359
506,926157320,-0.35303881764412,-0.36442065238953,40.35091018676758,0.05360805243254,-0.05555253848433,9.76912689208984,0.11832426488400,-1.07309520244598,-0.83042776584625
507,926173987,-0.35343375802040,-0.36404755711555,40.34954833984375,0.05945232138038,-0.04769324511290,9.74618816375732,0.12351084500551,-1.02105021476746,-0.92122477293015
508,926190654,-0.35360723733902,-0.36422371864319,40.34938430786133,0.05598513782024,-0.07566551119089,9.76474952697754,0.13803324103355,-1.05425715446472,-0.87916880846024
509,926207321,-0.35242441296577,-0.36474722623825,40.34898757934570,0.05270258337259,-0.04470876604319,9.75638484954834,0.21876446902752,-1.07528507709503,-0.87615919113159
510,926223988,-0.35277977585793,-0.36583650112152,40.34761428833008,0.06406939774752,-0.06509877741337,9.76780700683594,0.12576477229595,-1.10975980758667,-0.90398740768433
511,926240655,-0.35289689898491,-0.36656442284584,40.34749221801758,0.04325907304883,-0.05521633476019,9.74803256988525,0.14154218137264,-1.08757925033569,-0.85191684961319
512,926257322,-0.35252144932747,-0.36774241924286,40.34640121459961,0.04880056530237,-0.06091814860702,9.74613666534424,0.16984422504902,-1.11453664302826,-0.92390131950378
513,926273989,-0.35399287939072,-0.36815622448921,40.34444046020508,0.06350717693567,-0.05422389879823,9.75972747802734,0.05909489840269,-1.06808793544769,-0.89928758144379
514,926290656,-0.35517692565918,-0.36779615283012,40.34398651123047,0.05824909359217,-0.04388369992375,9.77458095550537,0.07713904976845,-1.02234375476837,-0.89296120405197
515,926307323,-0.35593551397324,-0.36829388141632,40.34204101562500,0.05939377099276,-0.05791591480374,9.75768756866455,0.10204740613699,-1.07365882396698,-0.91333609819412
516,926323990,-0.35687908530235,-0.36740645766258,40.34263992309570,0.05766869708896,-0.04350362345576,9.75612640380859,0.09189196676016,-0.99148041009903,-0.79481339454651
517,926340657,-0.35683816671371,-0.36702239513397,40.34260177612305,0.05115257576108,-0.07567588239908,9.77067661285400,0.14973823726177,-1.02093493938446,-0.90124666690826
518,926357324,-0.35740584135056,-0.36676600575447,40.33946609497070,0.05629846081138,-0.05108912289143,9.75838375091553,0.11358591169119,-1.02788889408112,-0.93705338239670
519,926373991,-0.35683289170265,-0.36666530370712,40.33898925781250,0.06056923791766,-0.07532332837582,9.76917171478271,0.18207427859306,-1.03776252269745,-0.90283477306366
520,926390658,-0.35660678148270,-0.36766067147255,40.33747863769531,0.06413340568542,-0.04704243689775,9.76721763610840,0.16116151213646,-1.10367679595947,-0.92108398675919
521,926407325,-0.35740715265274,-0.36822220683098,40.33725357055664,0.06287464499474,-0.06481605023146,9.76480197906494,0.09975505620241,-1.07753896713257,-0.86291742324829
522,926423992,-0.35733875632286,-0.36823093891144,40.33702468872070,0.06758281588554,-0.06990741938353,9.75356197357178,0.15146709978580,-1.04442191123962,-0.94078010320663
523,926440659,-0.35812008380890,-0.36862847208977,40.33687973022461,0.05319269001484,-0.05956839025021,9.78102493286133,0.10067712515593,-1.06765258312225,-0.86396765708923
524,926457326,-0.35912117362022,-0.36914137005806,40.33600234985352,0.05590535327792,-0.06060627102852,9.74956130981445,0.08813969790936,-1.07413268089294,-0.92305612564087
525,926473993,-0.36045360565186,-0.36917710304260,40.33675003051758,0.06675072759390,-0.05560427159071,9.74907875061035,0.06822583079338,-1.04666304588318,-0.85009825229645
526,926490660,-0.36100903153419,-0.36956033110619,40.33707427978516,0.05729004368186,-0.05590238049626,9.76962280273438,0.11432868242264,-1.06717872619629,-0.82720059156418
527,926507327,-0.36090174317360,-0.36957070231438,40.33642196655273,0.06199863553047,-0.05710090324283,9.77309608459473,0.15420764684677,-1.04453706741333,-0.88590484857559
528,926523994,-0.36081239581108,-0.36851987242699,40.33544540405273,0.06853449344635,-0.05635413154960,9.75488281250000,0.15381066501141,-0.98160660266876,-0.85776925086975
529,926540661,-0.35971069335938,-0.36891680955887,40.33472061157227,0.06062743067741,-0.05197280645370,9.73881816864014,0.21341140568256,-1.06752443313599,-0.86658006906509
530,926557328,-0.35981771349907,-0.36839637160301,40.33522415161133,0.06317977607250,-0.06519678235054,9.75234985351562,0.14169587194920,-1.01352000236511,-0.83087599277496
531,926573995,-0.35948774218559,-0.36777636408806,40.33551025390625,0.05273556709290,-0.05444720759988,9.76526069641113,0.16779519617558,-1.00688648223877,-0.83887994289398
532,926590662,-0.35896703600883,-0.36679351329803,40.33350753784180,0.06192563101649,-0.04839645698667,9.76867294311523,0.17926968634129,-0.98517978191376,-0.88211411237717
533,926607329,-0.35836020112038,-0.36727398633957,40.33436965942383,0.06220500916243,-0.06021909043193,9.77134418487549,0.18452030420303,-1.07280075550079,-0.86177772283554
534,926623996,-0.35924255847931,-0.36594831943512,40.33341598510742,0.05834335461259,-0.05816059559584,9.75382804870605,0.09390256553888,-0.96448475122452,-0.93065023422241
535,926640663,-0.35926094651222,-0.36704733967781,40.33271789550781,0.05605975538492,-0.05472797900438,9.76489162445068,0.14635735750198,-1.10933709144592,-0.93659234046936
536,926657330,-0.36052697896957,-0.36680492758751,40.33201217651367,0.05355721712112,-0.05255309119821,9.74980163574219,0.07200369983912,-1.02931034564972,-0.91083890199661
537,926673997,-0.36084741353989,-0.36759284138680,40.33042526245117,0.04841657727957,-0.06434725224972,9.76450157165527,0.12806989252567,-1.09080636501312,-0.93290418386459
538,926690664,-0.36288842558861,-0.36832842230797,40.33085250854492,0.05964354425669,-0.05735232308507,9.76758670806885,0.02513246238232,-1.08880865573883,-0.84945803880692
539,926707331,-0.36242905259132,-0.36846268177032,40.32968139648438,0.04685852304101,-0.05282846838236,9.77186107635498,0.17568391561508,-1.05110669136047,-0.92167311906815
540,926723998,-0.36247324943542,-0.36855018138885,40.33030319213867,0.05768094956875,-0.05433629080653,9.74373626708984,0.14501270651817,-1.04978775978088,-0.83260482549667
541,926740665,-0.36194860935211,-0.36943876743317,40.32884979248047,0.05487965419888,-0.06625957041979,9.78238201141357,0.17875742912292,-1.09736335277557,-0.94368714094162
542,926757332,-0.36202725768089,-0.36966609954834,40.32730865478516,0.04763788729906,-0.05279356613755,9.75467109680176,0.14265632629395,-1.05708742141724,-0.94696563482285
543,926773999,-0.36196026206017,-0.36874377727509,40.32768249511719,0.06243294849992,-0.05703217163682,9.76404380798340,0.15272212028503,-0.98966199159622,-0.80842643976212
544,926790666,-0.36189082264900,-0.36838173866272,40.32570648193359,0.05556676909328,-0.07181731611490,9.76706409454346,0.15069872140884,-1.02125513553619,-0.95879870653152
545,926807333,-0.36187282204628,-0.36777186393738,40.32814025878906,0.06272118538618,-0.05779149010777,9.76960468292236,0.14932842552662,-1.00802612304688,-0.87475049495697
546,926824000,-0.36200568079948,-0.36745586991310,40.32522583007812,0.06491719186306,-0.04854074120522,9.74058532714844,0.13873758912086,-1.02411091327667,-0.98584562540054
547,926840667,-0.36225384473801,-0.36759319901466,40.32460021972656,0.05934080481529,-0.05548514425755,9.77196979522705,0.13332049548626,-1.05295085906982,-0.87787526845932
548,926857334,-0.36193180084229,-0.36746692657471,40.32463836669922,0.06599423289299,-0.05925405398011,9.76221370697021,0.16674508154392,-1.03623867034912,-0.84872794151306
549,926874001,-0.36181178689003,-0.36656835675240,40.32378005981445,0.05934353545308,-0.05283984541893,9.75521945953369,0.15512971580029,-0.99008446931839,-0.91842013597488
550,926890668,-0.36133524775505,-0.36618578433990,40.32341003417969,0.06202556565404,-0.07163303345442,9.77077865600586,0.17682367563248,-1.02160096168518,-0.85391461849213
551,926907335,-0.36132523417473,-0.36608579754829,40.32322692871094,0.05752321705222,-0.05212014541030,9.74903202056885,0.14809903502464,-1.03796756267548,-0.87606960535049
552,926924002,-0.36116662621498,-0.36559128761292,40.32271194458008,0.06804319471121,-0.06226176396012,9.77877807617188,0.15729399025440,-1.01455736160278,-0.90351355075836
553,926940669,-0.36176314949989,-0.36659440398216,40.32197952270508,0.07440004497766,-0.04119347780943,9.76164913177490,0.11160092800856,-1.10365116596222,-0.90521681308746
554,926957336,-0.36212942004204,-0.36524230241776,40.32059860229492,0.06496191769838,-0.05844301357865,9.75600051879883,0.12523970007896,-0.96248692274094,-0.97487056255341
555,926974003,-0.36152145266533,-0.36585995554924,40.32185745239258,0.05681009963155,-0.06504222750664,9.76739215850830,0.18449470400810,-1.08208537101746,-0.77644902467728
556,926990670,-0.36191305518150,-0.36519387364388,40.31989288330078,0.06676077842712,-0.05255224183202,9.75832939147949,0.12399748712778,-1.00354385375977,-0.94627404212952
557,927007337,-0.36249101161957,-0.36520716547966,40.31969833374023,0.06345894932747,-0.06225003302097,9.76809215545654,0.11277912557125,-1.04481887817383,-0.88052618503571
558,927024004,-0.36346501111984,-0.36442387104034,40.31752777099609,0.07224898040295,-0.04989844188094,9.77407264709473,0.08876720815897,-0.99635964632034,-0.95660865306854
559,927040671,-0.36378178000450,-0.36427012085915,40.31731796264648,0.05771236494184,-0.04784719273448,9.74536132812500,0.12905599176884,-1.03526532649994,-0.86556845903397
560,927057338,-0.36438742280006,-0.36368852853775,40.31814575195312,0.06241920217872,-0.04517950490117,9.76261711120605,0.11087097972631,-1.00935816764832,-0.86351943016052
561,927074005,-0.36553391814232,-0.36343088746071,40.31616592407227,0.05500812083483,-0.06122885644436,9.76029014587402,0.07908561080694,-1.02796554565430,-0.91337430477142
562,927090672,-0.36461499333382,-0.36355409026146,40.31592941284180,0.05881689861417,-0.06354112178087,9.75744438171387,0.20276935398579,-1.05200314521790,-0.84784436225891
563,927107339,-0.36480626463890,-0.36383205652237,40.31448745727539,0.05437804013491,-0.04905232042074,9.78048229217529,0.13649646937847,-1.06026327610016,-0.92538678646088
564,927124006,-0.36591011285782,-0.36412551999092,40.31338119506836,0.06750003993511,-0.07418940216303,9.76852512359619,0.08067359775305,-1.06176161766052,-0.91396349668503
565,927140673,-0.36595550179482,-0.36404290795326,40.31421661376953,0.06741160899401,-0.03268722072244,9.76847076416016,0.14576828479767,-1.03937613964081,-0.81923496723175
566,927157340,-0.36547961831093,-0.36439770460129,40.31283569335938,0.05978528782725,-0.07475607842207,9.74857139587402,0.17544057965279,-1.06538581848145,-0.96586763858795
567,927174007,-0.36399027705193,-0.36471742391586,40.31193923950195,0.06066607683897,-0.04598507657647,9.73301792144775,0.23659092187881,-1.06267094612122,-0.90522974729538
568,927190674,-0.36445978283882,-0.36448955535889,40.31079101562500,0.06059713289142,-0.06760121136904,9.77620029449463,0.12002751231194,-1.03055262565613,-0.88067984580994
569,927207341,-0.36410468816757,-0.36340376734734,40.30948257446289,0.05994041636586,-0.04664192721248,9.75744342803955,0.16830743849277,-0.97890466451645,-0.92675721645355
570,927224008,-0.36288705468178,-0.36422243714333,40.30869674682617,0.06436550617218,-0.05966449528933,9.76601600646973,0.22044211626053,-1.09304761886597,-0.92747426033020
571,927240675,-0.36344718933105,-0.36416333913803,40.30624771118164,0.05816629528999,-0.05247239768505,9.74039936065674,0.11373960971832,-1.03940188884735,-0.95101237297058
572,927257342,-0.36369433999062,-0.36524912714958,40.30393981933594,0.07042350620031,-0.04306365177035,9.76261997222900,0.13301314413548,-1.10943973064423,-0.85618138313293
573,927274009,-0.36318159103394,-0.36628007888794,40.30317306518555,0.06393980234861,-0.07365471124649,9.76728725433350,0.17812992632389,-1.10598206520081,-0.91297739744186
574,927290676,-0.36363625526428,-0.36580365896225,40.30377197265625,0.06250111013651,-0.04433203116059,9.75957393646240,0.12077027559280,-1.01571011543274,-0.80345755815506
575,927307343,-0.36373719573021,-0.36555817723274,40.30393600463867,0.05846060439944,-0.05536881834269,9.74350357055664,0.14097870886326,-1.02934885025024,-0.89501023292542
576,927324010,-0.36489516496658,-0.36578083038330,40.30316162109375,0.05706105753779,-0.05641496554017,9.76010513305664,0.07802268117666,-1.05742025375366,-0.91224741935730
577,927340677,-0.36452567577362,-0.36529177427292,40.30250167846680,0.06541460007429,-0.06275989115238,9.75289821624756,0.16935756802559,-1.01433968544006,-0.91592293977737
578,927357344,-0.36381575465202,-0.36567223072052,40.29984283447266,0.06287909299135,-0.05462181195617,9.76021766662598,0.19020631909370,-1.06634628772736,-0.97653543949127
579,927374011,-0.36468157172203,-0.36596629023552,40.29938507080078,0.07763840258121,-0.05429534986615,9.75706481933594,0.09566985070705,-1.06209468841553,-0.85684716701508
580,927390678,-0.36474931240082,-0.36702197790146,40.29869461059570,0.06927648931742,-0.06781880557537,9.75027179718018,0.14307893812656,-1.10804378986359,-0.85473412275314
581,927407345,-0.36607226729393,-0.36750414967537,40.29730224609375,0.06459596753120,-0.03789493441582,9.76816272735596,0.06817460060120,-1.07249319553375,-0.92447751760483
582,927424012,-0.36574432253838,-0.36754548549652,40.29753875732422,0.06275239586830,-0.07271098345518,9.75827407836914,0.16769275069237,-1.04604816436768,-0.85940843820572
583,927440679,-0.36491632461548,-0.36776414513588,40.29722595214844,0.06802345067263,-0.05690322816372,9.76841926574707,0.19687843322754,-1.05711281299591,-0.93036854267120
584,927457346,-0.36447161436081,-0.36703705787659,40.29667663574219,0.06110477447510,-0.06809441000223,9.76506042480469,0.17448012530804,-1.00088036060333,-0.78219902515411
585,927474013,-0.36405792832375,-0.36740064620972,40.29476165771484,0.05130314454436,-0.04094424098730,9.75506305694580,0.17203409969807,-1.06587255001068,-0.94790047407150
586,927490680,-0.36378288269043,-0.36689874529839,40.29331588745117,0.05795833095908,-0.07139533013105,9.75376129150391,0.16397891938686,-1.01359701156616,-0.87357240915298
587,927507347,-0.36431866884232,-0.36731389164925,40.29252243041992,0.05431595072150,-0.04218244552612,9.76774692535400,0.11559652537107,-1.06949675083160,-0.89002859592438
588,927524014,-0.36439108848572,-0.36763250827789,40.29333496093750,0.05427818745375,-0.05977898463607,9.77734279632568,0.14282281696796,-1.06253004074097,-0.95777416229248
589,927540681,-0.36425992846489,-0.36653870344162,40.29241180419922,0.06757663190365,-0.05978165939450,9.76063632965088,0.15514253079891,-0.97805929183960,-0.87743991613388
590,927557348,-0.36395180225372,-0.36687800288200,40.29100036621094,0.05759825184941,-0.04651045799255,9.75866222381592,0.16601511836052,-1.06400287151337,-0.94915544986725
591,927574015,-0.36414977908134,-0.36645904183388,40.29077911376953,0.06117899343371,-0.05160133913159,9.75134277343750,0.13590738177299,-1.01900112628937,-0.86035615205765
592,927590682,-0.36474981904030,-0.36711242794991,40.28910064697266,0.06611156463623,-0.04879333823919,9.77504825592041,0.11048679053783,-1.08328914642334,-0.95878589153290
593,927607349,-0.36480492353439,-0.36791905760765,40.28955459594727,0.07171414792538,-0.06770875304937,9.75674057006836,0.14437238872051,-1.09240722656250,-0.83879023790359
594,927624016,-0.36415326595306,-0.36798238754272,40.29039001464844,0.06412924081087,-0.04759190604091,9.75600528717041,0.18704316020012,-1.04798209667206,-0.84903532266617
595,927640683,-0.36372119188309,-0.36765688657761,40.28705596923828,0.06015334278345,-0.06637013703585,9.78406238555908,0.17284089326859,-1.02405977249146,-0.95785099267960
596,927657350,-0.36413145065308,-0.36716118454933,40.28919601440430,0.06405016034842,-0.05390156805515,9.76760482788086,0.12351083010435,-1.01535141468048,-0.74874883890152
597,927674017,-0.36426782608032,-0.36641567945480,40.28904724121094,0.05566586181521,-0.06078680977225,9.77268695831299,0.13921143114567,-0.99870324134827,-0.89736658334732
598,927690684,-0.36424949765205,-0.36708587408066,40.28848648071289,0.06280056387186,-0.05247533321381,9.75668811798096,0.14918756484985,-1.08500528335571,-0.86168801784515
599,927707351,-0.35506209731102,-0.36362192034721,40.29099273681641,0.06778705120087,-0.05260213837028,9.76191329956055,0.14077381789684,-1.02628815174103,-0.99378561973572
600,927724018,-0.35482957959175,-0.36489671468735,40.28987121582031,0.05842926353216,-0.06878944486380,9.77709674835205,0.15979123115540,-1.11990261077881,-0.93821883201599
601,927740685,-0.35625499486923,-0.36470460891724,40.28899765014648,0.05947699397802,-0.04196365922689,9.76785278320312,0.06077253073454,-1.03292167186737,-0.89063036441803
602,927757352,-0.35529667139053,-0.36578658223152,40.28738784790039,0.06086647138000,-0.06193832680583,9.79780483245850,0.20404998958111,-1.10993909835815,-0.87973225116730
603,927774019,-0.35460448265076,-0.36581876873970,40.28699874877930,0.06059189140797,-0.04086693376303,9.77151966094971,0.18723523616791,-1.04609954357147,-0.88233184814453
604,927790686,-0.35431563854218,-0.36548376083374,40.28646469116211,0.05981747806072,-0.05234600231051,9.74659633636475,0.16441433131695,-1.02463603019714,-0.86978167295456
605,927807353,-0.35442322492599,-0.36521834135056,40.28485870361328,0.05671420693398,-0.05276205018163,9.75423336029053,0.13877601921558,-1.02833712100983,-0.93591362237930
606,927824020,-0.35513660311699,-0.36619171500206,40.28459167480469,0.06193004176021,-0.04639955237508,9.76101112365723,0.10349451750517,-1.10228097438812,-0.88052618503571
607,927840687,-0.35616081953049,-0.36608925461769,40.28207397460938,0.05925089865923,-0.06272867321968,9.76645946502686,0.08455391973257,-1.03781378269196,-0.94980847835541
608,927857354,-0.35607990622520,-0.36626848578453,40.28018569946289,0.05506122857332,-0.04505490139127,9.76242065429688,0.15153113007545,-1.05553781986237,-0.81297272443771
609,927874021,-0.35631048679352,-0.36600327491760,40.27760696411133,0.04961561784148,-0.07752427458763,9.76062774658203,0.13215513527393,-1.02896463871002,-0.93623387813568
610,927890688,-0.35770788788795,-0.36500245332718,40.27656173706055,0.05628383159637,-0.05161095783114,9.75701141357422,0.06239893659949,-0.98359167575836,-0.95512312650681
611,927907355,-0.35679244995117,-0.36401495337486,40.27670288085938,0.06791745126247,-0.06182412803173,9.76420116424561,0.20125819742680,-0.98594808578491,-0.84090340137482
612,927924022,-0.35665884613991,-0.36392515897751,40.27469635009766,0.06439398229122,-0.05227971449494,9.74913215637207,0.15437415242195,-1.03837728500366,-0.96301198005676
613,927940689,-0.35736879706383,-0.36367431282997,40.27480697631836,0.05439872294664,-0.05267405509949,9.78326702117920,0.10428850352764,-1.02979695796967,-0.82052838802338
614,927957356,-0.35762101411819,-0.36296692490578,40.27275466918945,0.04676169902086,-0.06346672773361,9.76887702941895,0.13063117861748,-1.00140547752380,-0.95555865764618
615,927974023,-0.35910084843636,-0.36292046308517,40.27378845214844,0.06163591146469,-0.04835065454245,9.75951766967773,0.05762217193842,-1.04191172122955,-0.82676517963409
616,927990690,-0.35959485173225,-0.36276969313622,40.27309799194336,0.06325740367174,-0.05500366911292,9.74231147766113,0.11677470803261,-1.03550851345062,-0.88612252473831
617,928007357,-0.36073032021523,-0.36269247531891,40.27223968505859,0.07041171938181,-0.06223772838712,9.75300025939941,0.07815074175596,-1.03982424736023,-0.91384840011597
618,928024024,-0.36226305365562,-0.36236467957497,40.27181243896484,0.06824848055840,-0.05800025910139,9.77336311340332,0.05372904241085,-1.02461040019989,-0.86220026016235
619,928040691,-0.36287257075310,-0.36256000399590,40.27104949951172,0.06604839116335,-0.03753415495157,9.74922466278076,0.10984647274017,-1.05648541450500,-0.86380118131638
620,928057358,-0.36232963204384,-0.36229163408279,40.27014541625977,0.06125144660473,-0.05220706760883,9.75968933105469,0.17923125624657,-1.02852916717529,-0.85753875970840
621,928074025,-0.36277902126312,-0.36228954792023,40.26808166503906,0.06130647659302,-0.03635545819998,9.76793861389160,0.11911827325821,-1.04402494430542,-0.97309052944183
622,928090692,-0.36255675554276,-0.36258956789970,40.26667785644531,0.05944590270519,-0.06751009821892,9.75525474548340,0.15929177403450,-1.06197929382324,-0.88748002052307
623,928107359,-0.36192488670349,-0.36310890316963,40.26411437988281,0.06866637617350,-0.05295838415623,9.76000308990479,0.18384154140949,-1.07577180862427,-0.89297389984131
624,928124026,-0.36111024022102,-0.36343038082123,40.26124191284180,0.06428235024214,-0.04162387922406,9.75533008575439,0.19481658935547,-1.06338798999786,-0.95781248807907
625,928140693,-0.36205476522446,-0.36513429880142,40.26028823852539,0.07276325672865,-0.04688220843673,9.74427413940430,0.08922824263573,-1.14614272117615,-0.87974506616592
626,928157360,-0.36258998513222,-0.36640149354935,40.26009750366211,0.06027032434940,-0.04897641390562,9.76319408416748,0.11445676535368,-1.12061965465546,-0.91391241550446
627,928174027,-0.36280363798141,-0.36809849739075,40.25753021240234,0.06844469904900,-0.05422322452068,9.77385044097900,0.13282106816769,-1.14606595039368,-0.95087152719498
628,928190694,-0.36361885070801,-0.36826932430267,40.25734329223633,0.07346936315298,-0.05258809030056,9.77419948577881,0.09712975472212,-1.05453884601593,-0.86609339714050
629,928207361,-0.36234793066978,-0.36848357319832,40.25680160522461,0.07618442177773,-0.06252655386925,9.76440143585205,0.22227339446545,-1.05713844299316,-0.89874958992004
630,928224028,-0.36291268467903,-0.36870157718658,40.25587844848633,0.06544121354818,-0.05198087543249,9.78431129455566,0.11279193311930,-1.05735635757446,-0.92045634984970
631,928240695,-0.36206963658333,-0.36935085058212,40.25334548950195,0.05523543804884,-0.05556359887123,9.79071712493896,0.19640459120274,-1.08300745487213,-0.94058805704117
632,928257362,-0.36190268397331,-0.36915698647499,40.25381469726562,0.06692225486040,-0.03993934020400,9.76510238647461,0.15539865195751,-1.03256320953369,-0.86875724792480
633,928274029,-0.36139795184135,-0.36903041601181,40.25106811523438,0.05753798410296,-0.05443947389722,9.77181434631348,0.17659316956997,-1.03728878498077,-0.91867625713348
634,928290696,-0.36234709620476,-0.36890402436256,40.25001144409180,0.05742684751749,-0.05174445733428,9.77230262756348,0.08902333676815,-1.03603374958038,-0.90032482147217
635,928307363,-0.36237153410912,-0.36991611123085,40.24958801269531,0.05802734568715,-0.06469876319170,9.78264236450195,0.14487181603909,-1.10563611984253,-0.88666045665741
636,928324030,-0.36231967806816,-0.37026259303093,40.24684143066406,0.05929074808955,-0.04890673980117,9.77205276489258,0.14844480156898,-1.06432294845581,-0.96773749589920
637,928340697,-0.36172804236412,-0.37039965391159,40.24671936035156,0.06474510580301,-0.04259189590812,9.76013088226318,0.18184377253056,-1.05280995368958,-0.86951279640198
638,928357364,-0.36130696535110,-0.37018674612045,40.24596786499023,0.06592355668545,-0.06282562762499,9.75762557983398,0.17130416631699,-1.03123140335083,-0.91675537824631
639,928374031,-0.36041015386581,-0.37040993571281,40.24553298950195,0.06249759718776,-0.05301328003407,9.77060317993164,0.20037455856800,-1.05834245681763,-0.77792173624039
640,928390698,-0.35968488454819,-0.37121435999870,40.24571990966797,0.06695442646742,-0.04862852767110,9.75797939300537,0.18975807726383,-1.09300911426544,-0.89047670364380
641,928407365,-0.35880279541016,-0.37201228737831,40.24541091918945,0.05413945019245,-0.05718220397830,9.76519680023193,0.19870975613594,-1.09198474884033,-0.86577332019806
642,928424032,-0.35931345820427,-0.37246584892273,40.24214935302734,0.04395972564816,-0.06343525648117,9.77833080291748,0.11539161950350,-1.07184016704559,-0.93970435857773
643,928440699,-0.35833343863487,-0.37269222736359,40.23863601684570,0.07929405570030,-0.06606167554855,9.76189422607422,0.20538182556629,-1.05749702453613,-0.86118859052658
644,928457366,-0.35758876800537,-0.37239521741867,40.23508834838867,0.05284487083554,-0.05755879729986,9.75420093536377,0.19041119515896,-1.02686417102814,-0.94527494907379
645,928474033,-0.35831445455551,-0.37193775177002,40.23563766479492,0.06467704474926,-0.05450406298041,9.76728153228760,0.10225230455399,-1.01655530929565,-0.91692185401917
646,928490700,-0.35752516984940,-0.37241244316101,40.23637390136719,0.05575534328818,-0.05330901965499,9.77047252655029,0.19311335682869,-1.07265985012054,-0.92347872257233
647,928507367,-0.35716277360916,-0.37364780902863,40.23563385009766,0.05255234241486,-0.05410059541464,9.74748134613037,0.16838429868221,-1.11894214153290,-0.82867336273193
648,928524034,-0.35664448142052,-0.37378913164139,40.23447036743164,0.05697908997536,-0.05039161443710,9.76575183868408,0.17693893611431,-1.05232346057892,-0.90238666534424
649,928540701,-0.35641285777092,-0.37507483363152,40.23236846923828,0.05762135237455,-0.05215550214052,9.76629447937012,0.16008578240871,-1.12159299850464,-0.90638220310211
650,928557368,-0.35566836595535,-0.37517753243446,40.22934722900391,0.06302366405725,-0.05603545159101,9.75483608245850,0.19002702832222,-1.05042803287506,-0.90211772918701
651,928574035,-0.35571274161339,-0.37638565897942,40.22687911987305,0.05230463296175,-0.06148216128349,9.76619911193848,0.14319419860840,-1.11720025539398,-0.89819890260696
652,928590702,-0.35603991150856,-0.37656053900719,40.22740173339844,0.06948406249285,-0.06048141419888,9.76993370056152,0.12732712924480,-1.05526888370514,-0.86360907554626
653,928607369,-0.35588642954826,-0.37633368372917,40.22702789306641,0.05287441983819,-0.04862596094608,9.76676273345947,0.15521937608719,-1.03105211257935,-0.83701026439667
654,928624036,-0.35631987452507,-0.37700694799423,40.22736358642578,0.05704373121262,-0.07221496105194,9.76198482513428,0.12071906030178,-1.08495402336121,-0.81461203098297
655,928640703,-0.35549727082253,-0.37772670388222,40.22507476806641,0.06433085352182,-0.04585539549589,9.77208805084229,0.19463731348515,-1.08832204341888,-0.91295188665390
656,928657370,-0.35536926984787,-0.37783735990524,40.22147369384766,0.06185228005052,-0.06099445000291,9.78698253631592,0.15420766174793,-1.05106842517853,-0.89704632759094
657,928674037,-0.35580918192863,-0.37830820679665,40.22126770019531,0.05817682668567,-0.04680128768086,9.79329109191895,0.11964333057404,-1.07240378856659,-0.84781885147095
658,928690704,-0.35546126961708,-0.37690275907516,40.21984863281250,0.06208097562194,-0.05111774429679,9.77087879180908,0.16697558760643,-0.96015596389771,-0.91451418399811
659,928707371,-0.35516834259033,-0.37612155079842,40.21950531005859,0.04974491521716,-0.05693059414625,9.77511119842529,0.16333858668804,-0.99739694595337,-0.89216721057892
660,928724038,-0.35579094290733,-0.37597790360451,40.21952819824219,0.05648143216968,-0.05148661881685,9.74790954589844,0.10816882550716,-1.03554713726044,-0.91419404745102
661,928740705,-0.35498124361038,-0.37606790661812,40.21718978881836,0.05631789192557,-0.07641653716564,9.77585029602051,0.19486781954765,-1.04980063438416,-0.92775601148605
662,928757372,-0.35581803321838,-0.37682750821114,40.21617507934570,0.05456563085318,-0.04915601760149,9.75220489501953,0.09556739032269,-1.09067845344543,-0.87330335378647
663,928774039,-0.35510244965553,-0.37655413150787,40.21424102783203,0.06764592975378,-0.08029471337795,9.76938819885254,0.18863113224506,-1.02761995792389,-0.89690554141998
664,928790706,-0.35441601276398,-0.37660703063011,40.21412277221680,0.05576165392995,-0.03911038860679,9.72748565673828,0.18765783309937,-1.04858386516571,-0.85103315114975
665,928807373,-0.35331782698631,-0.37650272250175,40.21454238891602,0.04980430752039,-0.06833255290985,9.78208923339844,0.21273267269135,-1.03837728500366,-0.80745315551758
666,928824040,-0.35274600982666,-0.37635022401810,40.20996093750000,0.05412872508168,-0.04166362807155,9.76560783386230,0.18007647991180,-1.03494524955750,-0.94644051790237
667,928840707,-0.35316964983940,-0.37579065561295,40.20891189575195,0.07155121117830,-0.06749098002911,9.76294994354248,0.12004031240940,-1.01043379306793,-0.94647884368896
668,928857374,-0.35333439707756,-0.37580358982086,40.20849227905273,0.05468358844519,-0.04841089621186,9.75204372406006,0.13648368418217,-1.04562568664551,-0.90466624498367
669,928874041,-0.35359591245651,-0.37713760137558,40.20511245727539,0.05618081614375,-0.06673795729876,9.76536750793457,0.13004207611084,-1.12494814395905,-0.85741078853607
670,928890708,-0.35401302576065,-0.37688341736794,40.20505523681641,0.05647914484143,-0.06317207962275,9.76299762725830,0.12153866887093,-1.02884936332703,-0.85050821304321
671,928907375,-0.35436287522316,-0.37483564019203,40.20317077636719,0.06952257454395,-0.07215666025877,9.76321220397949,0.12476586550474,-0.92183947563171,-0.96156483888626
672,928924042,-0.35466071963310,-0.37540513277054,40.20239639282227,0.06180286780000,-0.05410127341747,9.76448822021484,0.12819795310497,-1.07855069637299,-0.89267939329147
673,928940709,-0.35468381643295,-0.37615692615509,40.20131301879883,0.06345009058714,-0.03631161525846,9.76301765441895,0.14421871304512,-1.08982038497925,-0.85119968652725
674,928957376,-0.35300308465958,-0.37658968567848,40.19896316528320,0.06462713330984,-0.07415173202753,9.77173137664795,0.24732264876366,-1.07016265392303,-0.91756206750870
675,928974043,-0.35250470042229,-0.37645545601845,40.19823074340820,0.05579226836562,-0.03787091746926,9.73600673675537,0.17631143331528,-1.03654599189758,-0.84787005186081
676,928990710,-0.35236802697182,-0.37720409035683,40.19603729248047,0.06070376560092,-0.06730883568525,9.77835941314697,0.15345209836960,-1.08906483650208,-0.96141111850739
677,929007377,-0.35413235425949,-0.37728545069695,40.19351577758789,0.07372847944498,-0.05503896623850,9.76805591583252,0.04011588543653,-1.04942905902863,-0.90392333269119
678,929024044,-0.35423728823662,-0.37886086106300,40.19311141967773,0.06894065439701,-0.07018265873194,9.77152347564697,0.13931387662888,-1.13899672031403,-0.89311480522156
679,929040711,-0.35402968525887,-0.37927737832069,40.19198226928711,0.05661357566714,-0.03990104421973,9.77306747436523,0.15862585604191,-1.06902277469635,-0.91849708557129
680,929057378,-0.35423144698143,-0.37992829084396,40.19234466552734,0.05951201915741,-0.05072442814708,9.76708889007568,0.13434502482414,-1.08412158489227,-0.83882874250412
681,929074045,-0.35490316152573,-0.38001605868340,40.19276809692383,0.06181844696403,-0.06371221691370,9.74820518493652,0.10603017359972,-1.04945468902588,-0.89845496416092
682,929090712,-0.35570508241653,-0.37891140580177,40.19180297851562,0.05545807257295,-0.03866777941585,9.78263282775879,0.09761641174555,-0.97863572835922,-0.92675721645355
683,929107379,-0.35494622588158,-0.37976884841919,40.19040679931641,0.06341406702995,-0.07380060851574,9.76828384399414,0.19173026084900,-1.09609544277191,-0.87038350105286
684,929124046,-0.35564070940018,-0.38005688786507,40.19122314453125,0.05923235788941,-0.04494130611420,9.76187801361084,0.10483918339014,-1.06244039535522,-0.81048828363419
685,929140713,-0.35572859644890,-0.38032943010330,40.18933105468750,0.05283719673753,-0.07957088947296,9.78233146667480,0.14010787010193,-1.06048107147217,-0.94582569599152
686,929157380,-0.35505414009094,-0.38088166713715,40.18793487548828,0.05324587970972,-0.03706108406186,9.75650405883789,0.18641562759876,-1.07789754867554,-0.89004129171371
687,929174047,-0.35435286164284,-0.38070073723793,40.18514633178711,0.06715845316648,-0.06694003194571,9.77255249023438,0.18799081444740,-1.03324186801910,-0.90000462532043
688,929190714,-0.35407382249832,-0.38005858659744,40.18381500244141,0.05837349593639,-0.04543352872133,9.75804519653320,0.16257020831108,-1.00593876838684,-0.96890276670456
689,929207381,-0.35366824269295,-0.37898609042168,40.18023300170898,0.07143022865057,-0.05787541717291,9.76776218414307,0.16956247389317,-0.97932714223862,-0.94276505708694
690,929224048,-0.35346466302872,-0.37988993525505,40.17785644531250,0.06712274998426,-0.05886063352227,9.75547122955322,0.15757574141026,-1.09902799129486,-0.96207708120346
691,929240715,-0.35319831967354,-0.37850171327591,40.17598724365234,0.05220763757825,-0.06160981208086,9.75732612609863,0.16219881176949,-0.96112930774689,-0.89515101909637
