sep=,
DeviceTag:,Xsens DOT
FirmwareVersion:,3.0.0
AppVersion:,2023.6.0
StartTime: ,2025-02-06_09:48:19_000 PST
© Movella Technologies B. V. 2005-2025

PacketCounter,SampleTimeFine,Euler_X,Euler_Y,Euler_Z,Acc_X,Acc_Y,Acc_Z,Gyr_X,Gyr_Y,Gyr_Z
0,1016514029,-0.36168158054352,-0.12775698304176,39.73871231079102,0.00000000000000,0.00000000000000,0.00000000000000,0.00000000000000,0.00000000000000,0.00000000000000
1,1016530696,-0.35602599382401,-0.13607153296471,39.75957489013672,-0.00679778726771,-0.07021534442902,9.77306365966797,0.01554050482810,-0.95731300115585,-0.87370038032532
2,1016547363,-0.36212927103043,-0.11943032592535,39.75442504882812,-0.03154806420207,-0.05078796297312,9.77401161193848,0.18277862668037,-1.01545381546021,-0.85082823038101
3,1016564030,-0.35538673400879,-0.08275861293077,39.74805068969727,-0.04875883832574,-0.06504216045141,9.77038383483887,0.09673276543617,-1.04417860507965,-0.84585946798325
4,1016580697,-0.35252374410629,-0.04136077687144,39.75227355957031,-0.05407629907131,-0.06105326116085,9.75210285186768,0.16719330847263,-1.02201080322266,-0.86312240362167
5,1016597364,-0.34931099414825,-0.00660764146596,39.74480438232422,-0.04472124949098,-0.07335752993822,9.76676082611084,0.19831271469593,-0.99739682674408,-0.87626165151596
6,1016614031,-0.34939077496529,0.01592880859971,39.73155593872070,-0.03647497296333,-0.04805807396770,9.76126670837402,0.23191656172276,-1.02195954322815,-0.90416669845581
7,1016630698,-0.34526255726814,0.02749736793339,39.71520996093750,-0.02625069767237,-0.05362592637539,9.76768207550049,0.22854854166508,-1.05557620525360,-1.00906348228455
8,1016647365,-0.33943533897400,0.03081906400621,39.70196914672852,0.01346411462873,-0.05917077884078,9.76575756072998,0.29172223806381,-1.06122374534607,-0.95587855577469
9,1016664032,-0.33477225899696,0.02331391908228,39.69387054443359,0.02569911256433,-0.06481871753931,9.75016880035400,0.24513277411461,-1.10718584060669,-0.91644811630249
10,1016680699,-0.33049789071083,0.01044708769768,39.68072128295898,0.04982963204384,-0.06513614952564,9.77480411529541,0.28264254331589,-1.01779758930206,-0.95587867498398
11,1016697366,-0.32638126611710,-0.00836575496942,39.66262817382812,0.10046359896660,-0.05403013527393,9.78285884857178,0.30665445327759,-1.02509713172913,-0.82478016614914
12,1016714033,-0.32231009006500,-0.03384696319699,39.64951324462891,0.09863983094692,-0.06605160236359,9.75447559356689,0.27854454517365,-1.02683877944946,-0.94848948717117
13,1016730700,-0.31902280449867,-0.06322120130062,39.62877273559570,0.11155663430691,-0.04140822961926,9.75072956085205,0.26060283184052,-1.05310463905334,-0.93040698766708
14,1016747367,-0.31546857953072,-0.09515657275915,39.60728836059570,0.11652877181768,-0.06722062826157,9.75987052917480,0.21881569921970,-1.06465601921082,-0.93851333856583
15,1016764034,-0.31288844347000,-0.12835682928562,39.61466979980469,0.12585867941380,-0.05376250296831,9.74331092834473,0.19094906747341,-1.06387460231781,-0.93433839082718
16,1016780701,-0.31085535883904,-0.16219149529934,39.61577987670898,0.15372112393379,-0.04667440429330,9.76785373687744,0.15244039893150,-1.06068599224091,-0.92523324489594
17,1016797368,-0.30671733617783,-0.19685289263725,39.61029052734375,0.14767798781395,-0.05436792969704,9.78069114685059,0.25731155276299,-1.04649639129639,-0.92716693878174
18,1016814035,-0.30661708116531,-0.23182620108128,39.62321853637695,0.14407944679260,-0.03374953195453,9.76235485076904,0.01388848666102,-1.05861139297485,-0.93631070852280
19,1016830702,-0.30452060699463,-0.26481872797012,39.63032913208008,0.14370651543140,-0.05645892769098,9.76601600646973,0.10247000306845,-0.95914435386658,-0.83006912469864
20,1016847369,-0.30332562327385,-0.29688227176666,39.62575912475586,0.12167824059725,-0.05632911622524,9.76430892944336,0.05886438488960,-0.93878221511841,-0.86191856861115
21,1016864036,-0.30272659659386,-0.32776737213135,39.63199996948242,0.10437528043985,-0.05168566107750,9.78362560272217,0.02867981791496,-0.93640029430389,-0.82330739498138
22,1016880703,-0.30249476432800,-0.35869613289833,39.62660598754883,0.09032963216305,-0.04166017845273,9.76630687713623,0.00748531147838,-1.02500748634338,-0.86332720518112
23,1016897370,-0.30129447579384,-0.38736596703529,39.63068771362305,0.05036595836282,-0.05281968414783,9.75745010375977,0.05444619432092,-0.98053097724915,-0.75533127784729
24,1016914037,-0.29926064610481,-0.41390156745911,39.63072586059570,0.03020891733468,-0.05915641039610,9.75670242309570,0.10741325467825,-0.97058033943176,-0.83257919549942
25,1016930704,-0.29880166053772,-0.44009804725647,39.63629531860352,0.00082265830133,-0.05734721943736,9.74870491027832,0.02077830396593,-1.06840825080872,-0.85186564922333
26,1016947371,-0.29615578055382,-0.46297323703766,39.64778518676758,0.00409622769803,-0.06718043237925,9.76519584655762,0.15666647255421,-0.99332457780838,-0.83114486932755
27,1016964038,-0.29472008347511,-0.48561877012253,39.63566589355469,-0.01162564195693,-0.05690097436309,9.75710105895996,0.09511917829514,-1.07966494560242,-0.92346590757370
28,1016980705,-0.29352867603302,-0.50490957498550,39.66746139526367,-0.02923362143338,-0.06407896429300,9.78109836578369,0.08276102691889,-0.97558772563934,-0.84560322761536
29,1016997372,-0.29040253162384,-0.52432608604431,39.67086029052734,-0.03216395899653,-0.05830970034003,9.76925182342529,0.20510008931160,-1.07513141632080,-0.88543099164963
30,1017014039,-0.28752863407135,-0.54167437553406,39.68511581420898,-0.01416249573231,-0.07315631955862,9.78929138183594,0.19162780046463,-1.03094947338104,-0.92474657297134
31,1017030706,-0.28510701656342,-0.55882722139359,39.68554306030273,-0.03709089010954,-0.06281171739101,9.76664257049561,0.17407029867172,-1.07688593864441,-0.86888515949249
32,1017047373,-0.28091913461685,-0.57449060678482,39.70516586303711,-0.02414222434163,-0.06307606399059,9.75283050537109,0.28275778889656,-1.04940366744995,-0.90715062618256
33,1017064040,-0.27705132961273,-0.58897972106934,39.71852111816406,-0.00273383734748,-0.05202304199338,9.77277851104736,0.26614794135094,-1.02491784095764,-0.92921584844589
34,1017080707,-0.27379947900772,-0.60396623611450,39.74584960937500,0.01270628441125,-0.05198733881116,9.73512649536133,0.22694770991802,-1.08413422107697,-0.95519983768463
35,1017097374,-0.26960870623589,-0.61904931068420,39.75540161132812,0.03815805539489,-0.06197978928685,9.76694202423096,0.28023496270180,-1.11011850833893,-0.97183549404144
36,1017114041,-0.26545697450638,-0.63356226682663,39.75136566162109,0.06222424283624,-0.04448486492038,9.77581691741943,0.28061914443970,-1.08313536643982,-1.03088545799255
37,1017130708,-0.26054435968399,-0.64860862493515,39.77915954589844,0.09749075025320,-0.06434065848589,9.75624084472656,0.32230383157730,-1.11233389377594,-0.93191808462143
38,1017147375,-0.25593861937523,-0.66383701562881,39.78161239624023,0.11803427338600,-0.06324433535337,9.75235366821289,0.30757650732994,-1.10911953449249,-0.92529714107513
39,1017164042,-0.25193536281586,-0.67919671535492,39.79582977294922,0.14121183753014,-0.06060163676739,9.75023746490479,0.27399826049805,-1.09781157970428,-0.90951973199844
40,1017180709,-0.24833104014397,-0.69465202093124,39.81045532226562,0.14160539209843,-0.04494095221162,9.75935363769531,0.25229147076607,-1.07995939254761,-0.96023285388947
41,1017197376,-0.24555774033070,-0.70972490310669,39.81809616088867,0.14652116596699,-0.06001664698124,9.74742031097412,0.19915795326233,-1.03754496574402,-0.89763551950455
42,1017214043,-0.24288579821587,-0.72469252347946,39.82302093505859,0.13881844282150,-0.04388813301921,9.78776836395264,0.19394575059414,-1.01221382617950,-0.92140406370163
43,1017230710,-0.24027703702450,-0.73983186483383,39.84029769897461,0.12963569164276,-0.06732350587845,9.75223922729492,0.18829816579819,-1.00893533229828,-0.90662544965744
44,1017247377,-0.23861266672611,-0.75491833686829,39.86026763916016,0.12797887623310,-0.05860183015466,9.76048946380615,0.13504935801029,-0.99696153402328,-0.89152687788010
45,1017264044,-0.23626513779163,-0.77045017480850,39.85347747802734,0.11527109146118,-0.05282573029399,9.76248550415039,0.17816834151745,-1.01629912853241,-0.83607536554337
46,1017280711,-0.23649887740612,-0.78666776418686,39.85271835327148,0.09906550496817,-0.05727441608906,9.76639938354492,0.02267364226282,-1.05578100681305,-0.83902078866959
47,1017297378,-0.23619504272938,-0.80127829313278,39.87107849121094,0.09877850860357,-0.05162557214499,9.79112339019775,0.05598295852542,-0.96125745773315,-0.79594027996063
48,1017314045,-0.23549598455429,-0.81670188903809,39.86989593505859,0.07210932672024,-0.06740742921829,9.77692794799805,0.07781779021025,-1.01203453540802,-0.88128173351288
49,1017330712,-0.23510226607323,-0.83124256134033,39.90959548950195,0.04986522346735,-0.04005969315767,9.76806449890137,0.06320574134588,-0.96863394975662,-0.82384538650513
50,1017347379,-0.23470363020897,-0.84544599056244,39.91727066040039,0.02468756027520,-0.06219892948866,9.77769851684570,0.05986328050494,-0.96045053005219,-0.82629120349884
51,1017364046,-0.23474866151810,-0.86060589551926,39.91801834106445,-0.00132913398556,-0.05791318416595,9.76073265075684,0.03554402291775,-1.03523969650269,-0.85552829504013
52,1017380713,-0.23390701413155,-0.87513011693954,39.88070678710938,-0.03174202889204,-0.06363895535469,9.78966522216797,0.08762745559216,-1.01855301856995,-0.88874781131744
53,1017397380,-0.23273044824600,-0.88924551010132,39.89072799682617,-0.02743037417531,-0.05148522928357,9.77405452728271,0.10967998206615,-1.01923167705536,-0.89794278144836
54,1017414047,-0.23018074035645,-0.90267717838287,39.88974380493164,-0.03488619998097,-0.05036909133196,9.75409317016602,0.19201202690601,-1.00135421752930,-0.84045517444611
55,1017430714,-0.22874180972576,-0.91641664505005,39.88932418823242,-0.03622642159462,-0.06459640711546,9.77069282531738,0.12249913811684,-1.04134821891785,-0.95292049646378
56,1017447381,-0.22642354667187,-0.92919665575027,39.90149688720703,-0.01976566016674,-0.04200930520892,9.77224349975586,0.17760486900806,-1.00561869144440,-0.90017116069794
57,1017464048,-0.22325089573860,-0.94270420074463,39.90462875366211,-0.01532514952123,-0.07695815712214,9.77875614166260,0.22575671970844,-1.06602621078491,-0.97510117292404
58,1017480715,-0.22020812332630,-0.95563781261444,39.91845703125000,0.00029208941851,-0.03595526143909,9.79488849639893,0.22464257478714,-1.04777717590332,-0.80708181858063
59,1017497382,-0.21656061708927,-0.96711635589600,39.91909408569336,0.01121377293020,-0.07282853126526,9.75457096099854,0.25458383560181,-0.97236049175262,-0.96976095438004
60,1017514049,-0.21191801130772,-0.98010271787643,39.91980361938477,0.02290180511773,-0.03156118094921,9.77076911926270,0.31966572999954,-1.07411968708038,-0.84150516986847
61,1017530716,-0.20826332271099,-0.99244868755341,39.92009735107422,0.05244283378124,-0.06221734732389,9.74840164184570,0.25344404578209,-1.04137384891510,-1.05980229377747
62,1017547383,-0.20287235081196,-1.00602483749390,39.92863464355469,0.07110184431076,-0.04634927585721,9.76177978515625,0.36076131463051,-1.11985123157501,-0.95905482769012
63,1017564050,-0.20017242431641,-1.01805269718170,39.93741607666016,0.09544203430414,-0.05821014195681,9.75680446624756,0.19840238988400,-1.02778649330139,-0.97239899635315
64,1017580717,-0.19727808237076,-1.03049218654633,39.94013214111328,0.11835927516222,-0.03801719471812,9.76547336578369,0.21087574958801,-1.05063295364380,-0.97412788867950
65,1017597384,-0.19535225629807,-1.04404783248901,39.93885803222656,0.14622518420219,-0.03699469938874,9.77043724060059,0.15291424095631,-1.11334574222565,-0.92018753290176
66,1017614051,-0.19264790415764,-1.05592179298401,39.93537139892578,0.15441164374352,-0.06476075947285,9.76947975158691,0.19568742811680,-1.00404345989227,-0.97408944368362
67,1017630718,-0.19003704190254,-1.06862127780914,39.93956756591797,0.16728122532368,-0.03476350754499,9.74440002441406,0.19416347146034,-1.04659891128540,-0.91988009214401
68,1017647385,-0.18759293854237,-1.08067047595978,39.93481826782227,0.16072325408459,-0.06272917240858,9.74190807342529,0.18289388716221,-0.99822938442230,-0.85755163431168
69,1017664052,-0.18641255795956,-1.09313499927521,39.93732070922852,0.14548707008362,-0.05337088555098,9.76052665710449,0.10924456268549,-1.01695215702057,-0.86330163478851
70,1017680719,-0.18605905771255,-1.10509169101715,39.94220733642578,0.12319318950176,-0.06541602313519,9.77205562591553,0.05853142589331,-0.98224705457687,-0.90054249763489
71,1017697386,-0.18517746031284,-1.11677205562592,39.95299911499023,0.10866104811430,-0.03992523625493,9.74941062927246,0.09547773748636,-0.96367782354355,-0.80261230468750
72,1017714053,-0.18468114733696,-1.12951433658600,39.95399475097656,0.10261752456427,-0.04986947774887,9.76334571838379,0.06871246546507,-1.02890050411224,-0.90713769197464
73,1017730720,-0.18332649767399,-1.14108180999756,39.95907974243164,0.07065812498331,-0.07034511119127,9.78066253662109,0.12083430588245,-0.96029686927795,-0.87914317846298
74,1017747387,-0.18315662443638,-1.15281867980957,39.96259689331055,0.06613139063120,-0.04371037706733,9.76421833038330,0.05313995108008,-0.97567737102509,-0.86115026473999
75,1017764054,-0.18434606492519,-1.16574549674988,39.97156143188477,0.05191473290324,-0.06136981770396,9.76466274261475,-0.02831484004855,-1.05347597599030,-0.81170481443405
76,1017780721,-0.18475148081779,-1.17700541019440,39.97685241699219,0.02066864259541,-0.04835328832269,9.75897312164307,0.02084233425558,-0.96115499734879,-0.80426430702209
77,1017797388,-0.18531057238579,-1.18830752372742,39.97980499267578,-0.00430770078674,-0.07448711991310,9.76704883575439,0.01068689953536,-0.97444802522659,-0.84345173835754
78,1017814055,-0.18472836911678,-1.20064508914948,39.98106002807617,-0.00978263467550,-0.04161820188165,9.75795841217041,0.08176213502884,-1.04917299747467,-0.86056107282639
79,1017830722,-0.18381100893021,-1.21272277832031,39.98401641845703,-0.03730010241270,-0.06028408929706,9.76975345611572,0.09930684417486,-1.04825115203857,-0.90175914764404
80,1017847389,-0.18344157934189,-1.22483325004578,39.98712539672852,-0.05488496273756,-0.03758529201150,9.77017974853516,0.06959611177444,-1.06571888923645,-0.86529952287674
81,1017864056,-0.18209685385227,-1.23507750034332,39.98870086669922,-0.03284369036555,-0.05886578932405,9.77805519104004,0.12699416279793,-0.97160488367081,-0.84733211994171
82,1017880723,-0.17942531406879,-1.24516403675079,39.99968338012695,-0.01493499148637,-0.06366721540689,9.76031303405762,0.20549708604813,-0.97668898105621,-0.93518376350403
83,1017897390,-0.17619381844997,-1.25611758232117,40.00099182128906,-0.01091164443642,-0.05197190493345,9.78314018249512,0.24057370424271,-1.04187345504761,-0.93878227472305
84,1017914057,-0.17231319844723,-1.26825678348541,39.99832534790039,0.00011832686141,-0.07465387880802,9.78581428527832,0.28118261694908,-1.12581896781921,-0.91208094358444
85,1017930724,-0.16786803305149,-1.27917921543121,40.00691986083984,0.03595529124141,-0.05234224349260,9.76104354858398,0.31705322861671,-1.06397724151611,-0.93809074163437
86,1017947391,-0.16430261731148,-1.29049313068390,40.00734710693359,0.04321524500847,-0.06120964139700,9.77106952667236,0.26374036073685,-1.09499406814575,-0.96766054630280
87,1017964058,-0.16105324029922,-1.30226385593414,40.00744247436523,0.07653073966503,-0.04797904565930,9.74364280700684,0.24739947915077,-1.13036525249481,-0.93213587999344
88,1017980725,-0.15840423107147,-1.31304419040680,40.00629425048828,0.07133723795414,-0.05123076587915,9.77223396301270,0.21138800680637,-1.07506752014160,-0.94161242246628
89,1017997392,-0.15452499687672,-1.32304644584656,40.01255416870117,0.10197502374649,-0.04894424602389,9.77787590026855,0.28525504469872,-1.03407430648804,-0.95991265773773
90,1018014059,-0.15166659653187,-1.33413434028625,40.01716232299805,0.12055245786905,-0.04394015297294,9.77741718292236,0.22494994103909,-1.10112845897675,-0.93272489309311
91,1018030726,-0.14901764690876,-1.34338653087616,40.02187728881836,0.13706304132938,-0.05051778629422,9.76145935058594,0.21307846903801,-0.99305564165115,-0.92623215913773
92,1018047393,-0.14654187858105,-1.35249996185303,40.02436065673828,0.14844249188900,-0.05790450051427,9.76671123504639,0.20253883302212,-0.98427039384842,-0.96872359514236
93,1018064060,-0.14478828012943,-1.36194944381714,40.02791595458984,0.15675018727779,-0.05167761817575,9.76740646362305,0.16323612630367,-1.00336456298828,-0.86567080020905
94,1018080727,-0.14377778768539,-1.37222719192505,40.02848052978516,0.14853650331497,-0.03786942362785,9.74654769897461,0.11696680635214,-1.05247712135315,-0.93459451198578
95,1018097394,-0.14358039200306,-1.38228201866150,40.03111648559570,0.14883241057396,-0.07226882129908,9.77973079681396,0.06980100274086,-1.03904318809509,-0.89622682332993
96,1018114061,-0.14205734431744,-1.39227604866028,40.03569412231445,0.13280835747719,-0.05506478622556,9.76916122436523,0.15272213518620,-1.03620016574860,-0.82859653234482
97,1018130728,-0.14189574122429,-1.40247201919556,40.03778839111328,0.10672623664141,-0.07378651201725,9.76183509826660,0.07251595705748,-1.04953157901764,-0.83147788047791
98,1018147395,-0.14184410870075,-1.41123175621033,40.03933334350586,0.07522362470627,-0.03685738891363,9.77088451385498,0.07054378092289,-0.96746855974197,-0.78328758478165
99,1018164062,-0.14346301555634,-1.41964423656464,40.03665161132812,0.06449856609106,-0.06280938535929,9.75949382781982,-0.03228481113911,-0.95421385765076,-0.84981650114059
100,1018180729,-0.14345674216747,-1.42940974235535,40.03784942626953,0.04868688434362,-0.04582969099283,9.76819705963135,0.06715009361506,-1.04228317737579,-0.85604041814804
101,1018197396,-0.14366210997105,-1.43748509883881,40.04212570190430,0.02897026017308,-0.04804854840040,9.77529716491699,0.05248682945967,-0.95002627372742,-0.93063753843307
102,1018214063,-0.14389939606190,-1.44735944271088,40.04508972167969,0.00142767268699,-0.06158562004566,9.76255989074707,0.05273014307022,-1.06803667545319,-0.91150474548340
103,1018230730,-0.14395380020142,-1.45589852333069,40.04599380493164,0.00282053439878,-0.05132882669568,9.77721405029297,0.06384605914354,-1.00152063369751,-0.92822986841202
104,1018247397,-0.14385856688023,-1.46383607387543,40.04673767089844,-0.01270044781268,-0.07726840674877,9.77793693542480,0.07663960754871,-0.97814905643463,-0.82521563768387
105,1018264064,-0.14333458244801,-1.47306227684021,40.04735183715820,-0.01455428265035,-0.04419794678688,9.77698993682861,0.10542826354504,-1.06880509853363,-0.84676861763000
106,1018280731,-0.14213044941425,-1.48222315311432,40.04721069335938,-0.03789745643735,-0.06296312063932,9.76695346832275,0.14534565806389,-1.07978010177612,-0.87197154760361
107,1018297398,-0.14113758504391,-1.49013721942902,40.04634857177734,-0.04001814872026,-0.03337882459164,9.77339363098145,0.13426816463470,-1.01934695243835,-0.89572721719742
108,1018314065,-0.13941834867001,-1.49818861484528,40.04610824584961,-0.03193558007479,-0.06399486213923,9.76516056060791,0.17640106379986,-1.04417848587036,-0.89717447757721
109,1018330732,-0.13729065656662,-1.50522136688232,40.04431533813477,-0.01426208019257,-0.06303236633539,9.76743698120117,0.20310230553150,-0.99712800979614,-0.92807620763779
110,1018347399,-0.13496921956539,-1.51291024684906,40.04510116577148,0.00668463157490,-0.07272228598595,9.78066825866699,0.21278391778469,-1.05055618286133,-1.03303706645966
111,1018364066,-0.13235767185688,-1.52139389514923,40.04584884643555,0.03225599601865,-0.05491388961673,9.78164577484131,0.23546397686005,-1.10987508296967,-0.95455974340439
112,1018380733,-0.13094522058964,-1.52843868732452,40.04866027832031,0.06729877740145,-0.05366957187653,9.75212574005127,0.16353067755699,-1.03392076492310,-0.97238618135452
113,1018397400,-0.12754410505295,-1.53627002239227,40.04744338989258,0.07874559611082,-0.05531996488571,9.75461196899414,0.28542149066925,-1.08942329883575,-0.94072878360748
114,1018414067,-0.12468015402555,-1.54401338100433,40.04880905151367,0.09491266310215,-0.04051659256220,9.77509021759033,0.25574919581413,-1.08975625038147,-0.90333425998688
115,1018430734,-0.12287163734436,-1.55061042308807,40.05425262451172,0.11350712180138,-0.06143134832382,9.75358390808105,0.19211444258690,-1.02765834331512,-0.92452889680862
116,1018447401,-0.11930911988020,-1.55782699584961,40.05560684204102,0.13290864229202,-0.05105263367295,9.76116752624512,0.29994395375252,-1.06856191158295,-0.88942664861679
117,1018464068,-0.11602517217398,-1.56345963478088,40.05670928955078,0.13374020159245,-0.07591024041176,9.75494956970215,0.28196379542351,-0.97717565298080,-0.94592815637589
118,1018480735,-0.11484484374523,-1.56852412223816,40.06036376953125,0.13016796112061,-0.04700074344873,9.75588130950928,0.15844655036926,-0.94563359022141,-0.99464350938797
119,1018497402,-0.11440385878086,-1.57407355308533,40.06256484985352,0.14399267733097,-0.05723462998867,9.74727344512939,0.11713328957558,-0.97881489992142,-0.90446126461029
120,1018514069,-0.11252393573523,-1.58001303672791,40.06958389282227,0.13772617280483,-0.03588678687811,9.76758289337158,0.20608617365360,-1.00515758991241,-0.86008709669113
121,1018530736,-0.11220205575228,-1.58502030372620,40.07525634765625,0.12560872733593,-0.04969039931893,9.74802875518799,0.11047398298979,-0.95115327835083,-0.93063753843307
122,1018547403,-0.11242496967316,-1.59062731266022,40.07970809936523,0.12209150195122,-0.05863625183702,9.76661109924316,0.08187739551067,-0.99229991436005,-0.82752066850662
123,1018564070,-0.11465015262365,-1.59703195095062,40.08304977416992,0.10769144445658,-0.06824266165495,9.76453208923340,-0.03786837682128,-1.04440915584564,-0.87514758110046
124,1018580737,-0.11532273143530,-1.60231709480286,40.08741760253906,0.07752656936646,-0.06197264045477,9.76478290557861,0.05932540819049,-0.98288726806641,-0.84190219640732
125,1018597404,-0.11637217551470,-1.60818314552307,40.09095382690430,0.04152800887823,-0.04474622383714,9.77069759368896,0.03856632485986,-1.02575027942657,-0.80613416433334
126,1018614071,-0.11738438159227,-1.61308133602142,40.09520721435547,0.01235503330827,-0.07409960776567,9.76935005187988,0.04042324423790,-0.97744470834732,-0.83829087018967
127,1018630738,-0.11812721937895,-1.61865496635437,40.10107421875000,0.01354529708624,-0.04741793125868,9.77564430236816,0.05959434807301,-1.03048861026764,-0.86802715063095
128,1018647405,-0.11769947409630,-1.62289476394653,40.10282897949219,-0.00287669268437,-0.05979489535093,9.76181316375732,0.12981155514717,-0.96208977699280,-0.86631113290787
129,1018664072,-0.11691348254681,-1.62812972068787,40.10348510742188,-0.01143994182348,-0.05155822634697,9.75945854187012,0.15429730713367,-1.03530371189117,-0.80916929244995
130,1018680739,-0.11593287438154,-1.63369059562683,40.10411834716797,-0.01189927756786,-0.05948263406754,9.76148223876953,0.16525954008102,-1.06820321083069,-0.90686887502670
131,1018697406,-0.11491314321756,-1.63784420490265,40.10710906982422,-0.01513112057000,-0.04999706149101,9.77175331115723,0.16954967379570,-0.99753773212433,-0.87683790922165
132,1018714073,-0.11411228030920,-1.64302861690521,40.10929107666016,-0.01604353263974,-0.06612782925367,9.78026485443115,0.15523216128349,-1.07347953319550,-0.96242272853851
133,1018730740,-0.11259421706200,-1.64759516716003,40.11110305786133,-0.02556115388870,-0.06789421290159,9.78262710571289,0.20220585167408,-1.04948043823242,-0.88800507783890
134,1018747407,-0.11038200557232,-1.65132534503937,40.11304473876953,-0.02150092460215,-0.04169367626309,9.76409626007080,0.24523517489433,-1.01357126235962,-0.91850978136063
135,1018764074,-0.10715956985950,-1.65534126758575,40.11327362060547,-0.00628676777706,-0.06979484111071,9.77296447753906,0.30478474497795,-1.04545915126801,-0.96224355697632
136,1018780741,-0.10652174800634,-1.65955388545990,40.11535644531250,0.01002192776650,-0.04944783821702,9.75579738616943,0.15319596230984,-1.06939423084259,-0.93775779008865
137,1018797408,-0.10383383184671,-1.66259992122650,40.11274719238281,0.03026461228728,-0.07104702293873,9.77631282806396,0.27626499533653,-1.01068985462189,-0.96182084083557
138,1018814075,-0.10143982619047,-1.66719365119934,40.11231613159180,0.05769634619355,-0.04909997805953,9.76509761810303,0.26106387376785,-1.11428046226501,-0.95543056726456
139,1018830742,-0.09952025115490,-1.67002284526825,40.11721801757812,0.09052650630474,-0.04738876968622,9.77478504180908,0.23519501090050,-1.01627349853516,-0.93061178922653
140,1018847409,-0.09694264829159,-1.67374157905579,40.11919403076172,0.10532924532890,-0.04155302047729,9.75684833526611,0.27284571528435,-1.07643783092499,-0.98615306615829
141,1018864076,-0.09443087130785,-1.67830467224121,40.12117385864258,0.13634318113327,-0.06347887963057,9.76862621307373,0.27077102661133,-1.13222217559814,-0.97854608297348
142,1018880743,-0.09322086721659,-1.68164837360382,40.12402343750000,0.13175007700920,-0.06328380852938,9.75698280334473,0.19578987360001,-1.06213295459747,-0.93454331159592
143,1018897410,-0.09225873649120,-1.68570482730865,40.12479400634766,0.14651566743851,-0.04834863916039,9.76186084747314,0.18208707869053,-1.10829997062683,-0.92589914798737
144,1018914077,-0.09121296554804,-1.68921840190887,40.12635040283203,0.15766172111034,-0.06685295701027,9.76249217987061,0.19038558006287,-1.07853782176971,-0.89502292871475
145,1018930744,-0.09086453914642,-1.69137430191040,40.13119888305664,0.13389934599400,-0.04802768677473,9.77356052398682,0.14841918647289,-0.99915146827698,-0.94521099328995
146,1018947411,-0.09067835658789,-1.69314718246460,40.13502502441406,0.12695549428463,-0.05633123591542,9.74928855895996,0.14275877177715,-0.97925031185150,-0.85007268190384
147,1018964078,-0.09096692502499,-1.69514203071594,40.13867950439453,0.11347898095846,-0.04100255295634,9.74985218048096,0.11257421970367,-0.99586027860641,-0.96822416782379
148,1018980745,-0.09214571863413,-1.69721317291260,40.14063644409180,0.10214723646641,-0.06503193080425,9.75798130035400,0.06174581125379,-1.00633585453033,-0.86704111099243
149,1018997412,-0.09286951273680,-1.69832479953766,40.14219284057617,0.08955644071102,-0.05801947414875,9.76592636108398,0.09239140897989,-0.95317661762238,-0.84331095218658
150,1019014079,-0.09425529092550,-1.70016622543335,40.14505004882812,0.08385128527880,-0.05629593506455,9.76352691650391,0.05481758341193,-1.00395381450653,-0.84555202722549
151,1019030746,-0.09541065990925,-1.70187222957611,40.15226364135742,0.04341438412666,-0.05959980934858,9.77558326721191,0.07006993889809,-1.00193035602570,-0.82214206457138
152,1019047413,-0.09642403572798,-1.70384299755096,40.15582275390625,0.03504115343094,-0.05892940610647,9.77424430847168,0.07654996216297,-1.02687728404999,-0.95422673225403
153,1019064080,-0.09857068210840,-1.70474159717560,40.16030120849609,0.00387354567647,-0.06308850646019,9.74376678466797,0.01370919868350,-0.97271913290024,-0.82340991497040
154,1019080747,-0.09907013922930,-1.70672893524170,40.16881942749023,-0.00394589267671,-0.06054802611470,9.75615596771240,0.11358592659235,-1.04873764514923,-0.86154729127884
155,1019097414,-0.09926146268845,-1.70727276802063,40.17191314697266,-0.02673101238906,-0.06667853891850,9.76749229431152,0.13383275270462,-0.97365391254425,-0.84179985523224
156,1019114081,-0.09823739528656,-1.70965850353241,40.17760848999023,-0.02747653052211,-0.06925202161074,9.74844741821289,0.20956951379776,-1.09741449356079,-0.79804050922394
157,1019130748,-0.09819083660841,-1.71156740188599,40.17794799804688,-0.03144652023911,-0.06522274017334,9.75706100463867,0.14880338311195,-1.08203423023224,-0.96148800849915
158,1019147415,-0.09755629301071,-1.71311569213867,40.17869949340820,-0.02253327332437,-0.05811250209808,9.77044200897217,0.18829816579819,-1.07272374629974,-0.87881010770798
159,1019164082,-0.09710165858269,-1.71383178234100,40.18152618408203,-0.00663112802431,-0.05519714206457,9.77439117431641,0.17601688206196,-1.03564953804016,-0.98281055688858
160,1019180749,-0.09612458199263,-1.71600127220154,40.18381881713867,-0.00035716593266,-0.06540355831385,9.77346611022949,0.20953109860420,-1.13319551944733,-0.93569600582123
161,1019197416,-0.09420132637024,-1.71734225749969,40.18674850463867,0.03627992048860,-0.04857886210084,9.77720642089844,0.26732617616653,-1.09513509273529,-0.95447009801865
162,1019214083,-0.09271528571844,-1.71752858161926,40.18811798095703,0.03285367786884,-0.07582586258650,9.76946353912354,0.24385210871696,-1.03388226032257,-0.88854295015335
163,1019230750,-0.09166128188372,-1.71794867515564,40.19206237792969,0.05440637096763,-0.04875342547894,9.76006984710693,0.22080066800117,-1.05649816989899,-0.87805449962616
164,1019247417,-0.09031528979540,-1.71782851219177,40.19346237182617,0.06362666189671,-0.07877553999424,9.76830196380615,0.23514381051064,-1.03057825565338,-1.03841590881348
165,1019264084,-0.08804180473089,-1.71848022937775,40.19470596313477,0.07949144393206,-0.03710933774710,9.76727962493896,0.29419389367104,-1.08404457569122,-0.98638337850571
166,1019280751,-0.08630074560642,-1.71915364265442,40.19535064697266,0.10753048956394,-0.06442402303219,9.78093242645264,0.26334339380264,-1.09030699729919,-0.94705516099930
167,1019297418,-0.08532087504864,-1.71823775768280,40.19642257690430,0.12357557564974,-0.04956582188606,9.77733135223389,0.22178675234318,-0.99915134906769,-0.88896548748016
168,1019314085,-0.08522275090218,-1.71897161006927,40.20272445678711,0.14999718964100,-0.03886345028877,9.76317405700684,0.16817936301231,-1.09970676898956,-0.92410612106323
169,1019330752,-0.08491697907448,-1.71841955184937,40.20910644531250,0.13738016784191,-0.07371365278959,9.78168106079102,0.18281704187393,-1.02450799942017,-0.86328881978989
170,1019347419,-0.08498191088438,-1.71806490421295,40.21220016479492,0.14082661271095,-0.05120477825403,9.77590847015381,0.16149447858334,-1.03664839267731,-0.90534502267838
171,1019364086,-0.08526124060154,-1.71705627441406,40.21530914306641,0.14078584313393,-0.06103014573455,9.76237010955811,0.14876495301723,-1.00011181831360,-0.92240297794342
172,1019380753,-0.08581795543432,-1.71621429920197,40.21772766113281,0.11967141181231,-0.02058268338442,9.74028396606445,0.13668857514858,-1.01066434383392,-0.82854527235031
173,1019397420,-0.08836229145527,-1.71534967422485,40.22325134277344,0.10492531955242,-0.07031890004873,9.78106212615967,0.01563015021384,-1.01270055770874,-0.84917616844177
174,1019414087,-0.09070508182049,-1.71437847614288,40.22724533081055,0.09851242601871,-0.05340130999684,9.75935554504395,0.02894875407219,-1.00934529304504,-0.90119552612305
175,1019430754,-0.09287864714861,-1.71283519268036,40.23632431030273,0.08833584934473,-0.04746598750353,9.75904464721680,0.04134529829025,-0.97845643758774,-0.84014785289764
176,1019447421,-0.09559831023216,-1.71188068389893,40.24097824096680,0.05262291803956,-0.06114361062646,9.74927520751953,0.00721637764946,-1.01801526546478,-0.89321738481522
177,1019464088,-0.09751027822495,-1.70900332927704,40.24369049072266,0.05637030676007,-0.06919474154711,9.75845146179199,0.05622628331184,-0.90876412391663,-0.92861407995224
178,1019480755,-0.09979847818613,-1.70815968513489,40.24661254882812,0.02478260546923,-0.06425441056490,9.75747680664062,0.03693991526961,-1.03774976730347,-0.87343144416809
179,1019497422,-0.10201463848352,-1.70639014244080,40.24895477294922,0.02348747104406,-0.06060596928000,9.76592254638672,0.04322783648968,-0.98909848928452,-0.84100586175919
180,1019514089,-0.10356520861387,-1.70506918430328,40.25319290161133,-0.01484131254256,-0.07425533980131,9.77377605438232,0.08484847098589,-1.02341949939728,-0.84856152534485
181,1019530756,-0.10423492640257,-1.70401906967163,40.25551605224609,-0.01553361117840,-0.05303524807096,9.77835845947266,0.13583053648472,-1.04972362518311,-0.95646780729294
182,1019547423,-0.10369031131268,-1.70332312583923,40.25986862182617,-0.02724347636104,-0.08084740489721,9.76936244964600,0.21118310093880,-1.07966494560242,-0.89691823720932
183,1019564090,-0.10488838702440,-1.70207488536835,40.26245117187500,-0.02549101412296,-0.06018406897783,9.77933979034424,0.10828410089016,-1.05765080451965,-0.92123764753342
184,1019580757,-0.10554187744856,-1.70094716548920,40.26565933227539,-0.02198160067201,-0.05888959020376,9.77203273773193,0.14044083654881,-1.07438874244690,-0.98849660158157
185,1019597424,-0.10461367666721,-1.69896483421326,40.27046966552734,0.00538022024557,-0.05260153859854,9.78524780273438,0.23750016093254,-1.03235828876495,-0.91265738010406
186,1019614091,-0.10363481193781,-1.69707739353180,40.27669143676758,0.00363249937072,-0.06600181758404,9.77189445495605,0.24068893492222,-1.04641962051392,-0.95779967308044
187,1019630758,-0.10125893354416,-1.69591152667999,40.27746200561523,0.03912398219109,-0.06438543647528,9.76094913482666,0.32649150490761,-1.09747850894928,-0.92637288570404
188,1019647425,-0.10106247663498,-1.69496083259583,40.27982711791992,0.05427092686296,-0.04844052717090,9.76009368896484,0.19493184983730,-1.11493349075317,-0.98245185613632
189,1019664092,-0.10024224221706,-1.69239926338196,40.28139114379883,0.06114366278052,-0.06607642024755,9.76184272766113,0.23427298665047,-1.02366280555725,-0.96102702617645
190,1019680759,-0.09908680617809,-1.69148135185242,40.28430557250977,0.08053842931986,-0.04593785479665,9.77541255950928,0.25563398003578,-1.12635684013367,-0.93494039773941
191,1019697426,-0.09812023490667,-1.69009959697723,40.28681945800781,0.09483508765697,-0.05120702832937,9.75646400451660,0.24325020611286,-1.10224246978760,-0.97324413061142
192,1019714093,-0.09738925844431,-1.68757808208466,40.29029083251953,0.11124549806118,-0.02696872875094,9.76912593841553,0.23082806169987,-1.03518855571747,-0.94778525829315
193,1019730760,-0.09701879322529,-1.68491601943970,40.29302215576172,0.12759836018085,-0.06219090893865,9.76415443420410,0.20534339547157,-1.02814495563507,-1.05616521835327
194,1019747427,-0.09638026356697,-1.68267512321472,40.29408645629883,0.13559933006763,-0.03946270421147,9.75804233551025,0.22639705240726,-1.05392408370972,-0.89180850982666
195,1019764094,-0.09611504524946,-1.68002927303314,40.29674148559570,0.14206102490425,-0.04672002792358,9.77897834777832,0.20335844159126,-1.02928459644318,-0.92897254228592
196,1019780761,-0.09691178053617,-1.67758929729462,40.29890441894531,0.14241306483746,-0.06012854725122,9.76915740966797,0.14022313058376,-1.04066956043243,-0.90981441736221
197,1019797428,-0.09763570129871,-1.67448198795319,40.30601119995117,0.14788256585598,-0.04862007871270,9.75784397125244,0.14759957790375,-1.00000941753387,-0.84708887338638
198,1019814095,-0.09934567660093,-1.67119383811951,40.31110763549805,0.13244402408600,-0.06383597105742,9.76181602478027,0.08728168159723,-0.98873990774155,-0.90685606002808
199,1019830762,-0.10117602348328,-1.66886448860168,40.31751251220703,0.09998293220997,-0.04334555193782,9.77192878723145,0.08337573707104,-1.04597139358521,-0.84167176485062
200,1019847429,-0.10335265100002,-1.66577899456024,40.32009887695312,0.07029957324266,-0.04848927631974,9.77484416961670,0.05947909504175,-1.00182807445526,-0.91500097513199
201,1019864096,-0.10644416511059,-1.66331100463867,40.32234191894531,0.06283798813820,-0.04550048708916,9.74239253997803,0.00704989582300,-1.04142522811890,-0.83940494060516
202,1019880763,-0.10953222215176,-1.66012382507324,40.32607269287109,0.04334934055805,-0.05940148234367,9.75490188598633,0.00521858781576,-1.00249385833740,-0.91911178827286
203,1019897430,-0.11144056916237,-1.65680766105652,40.32911682128906,0.03253206238151,-0.05541540682316,9.75935268402100,0.07829162478447,-0.99792212247849,-0.88610982894897
204,1019914097,-0.11407995223999,-1.65393030643463,40.33192825317383,0.01762717030942,-0.05970379337668,9.78066253662109,0.03332852199674,-1.03042447566986,-0.91000652313232
205,1019930764,-0.11512859910727,-1.65084707736969,40.33452224731445,0.01160382758826,-0.05904027074575,9.78397083282471,0.13115623593330,-1.02268946170807,-0.86958956718445
206,1019947431,-0.11687409132719,-1.64758133888245,40.33749771118164,-0.00730689987540,-0.05630940571427,9.77337265014648,0.09216088801622,-1.01766943931580,-0.80032008886337
207,1019964098,-0.11846297234297,-1.64442729949951,40.35154342651367,-0.01749793067575,-0.06868137419224,9.77341651916504,0.10230352729559,-1.03053975105286,-0.80221533775330
208,1019980765,-0.11969526112080,-1.64166712760925,40.35219192504883,-0.02384755574167,-0.04512456431985,9.76455783843994,0.12070623785257,-1.06164646148682,-0.89618825912476
209,1019997432,-0.12003979086876,-1.63758575916290,40.35533905029297,-0.03067531436682,-0.07639993727207,9.77013492584229,0.17496676743031,-0.98885518312454,-0.90727871656418
210,1020014099,-0.11978879570961,-1.63503158092499,40.35735321044922,-0.02144822850823,-0.05718530341983,9.77136421203613,0.21140080690384,-1.08862936496735,-0.88006526231766
211,1020030766,-0.11937718093395,-1.63296461105347,40.36143875122070,-0.01240017078817,-0.05895187333226,9.76008605957031,0.22186362743378,-1.12380862236023,-0.91715234518051
212,1020047433,-0.11847666651011,-1.62927925586700,40.36263656616211,0.00873265974224,-0.06085583567619,9.76722335815430,0.24887219071388,-1.03238379955292,-0.99311965703964
213,1020064100,-0.11791737377644,-1.62565696239471,40.36412048339844,0.01860641501844,-0.06369588524103,9.75850105285645,0.22994440793991,-1.04186058044434,-0.97771352529526
214,1020080767,-0.11733539402485,-1.62094664573669,40.36845397949219,0.05537113919854,-0.05649949610233,9.76082706451416,0.23153239488602,-0.98030048608780,-0.97643297910690
215,1020097434,-0.11606397479773,-1.61833035945892,40.36972427368164,0.08266798406839,-0.05321463569999,9.77027320861816,0.27492034435272,-1.10849213600159,-0.93947386741638
216,1020114101,-0.11547189950943,-1.61454486846924,40.37133789062500,0.09397176653147,-0.06601689755917,9.75788974761963,0.23395279049873,-1.03905594348907,-0.92783278226852
217,1020130768,-0.11537854373455,-1.61117994785309,40.37867736816406,0.11440420895815,-0.03213649615645,9.77284240722656,0.20557393133640,-1.06456625461578,-0.93989634513855
218,1020147435,-0.11619564890862,-1.60738182067871,40.38202667236328,0.11340868473053,-0.06845389306545,9.77627754211426,0.15124940872192,-1.03803157806396,-0.89723855257034
219,1020164102,-0.11532059311867,-1.60429847240448,40.38969421386719,0.14189144968987,-0.04350437596440,9.75229835510254,0.25224027037621,-1.07890939712524,-0.95536655187607
220,1020180769,-0.11562393605709,-1.60028815269470,40.39463424682617,0.13128644227982,-0.05012843385339,9.76145935058594,0.18257375061512,-1.02229261398315,-0.87950176000595
221,1020197436,-0.11616892367601,-1.59776043891907,40.39135360717773,0.12070604413748,-0.03757245838642,9.74754333496094,0.16630963981152,-1.10915780067444,-0.92609107494354
222,1020214103,-0.11780381947756,-1.59401071071625,40.39198303222656,0.13040652871132,-0.05967750027776,9.75921630859375,0.10056186467409,-1.03416395187378,-0.96202576160431
223,1020230770,-0.11865217983723,-1.59036743640900,40.39314270019531,0.12209080904722,-0.04430563002825,9.76709842681885,0.15019927918911,-1.03954267501831,-0.85702657699585
224,1020247437,-0.12099170684814,-1.58572542667389,40.39743041992188,0.11346287280321,-0.03835214301944,9.75034141540527,0.06054202467203,-0.97753435373306,-0.88303631544113
225,1020264104,-0.12329570949078,-1.58116555213928,40.40224838256836,0.09918367862701,-0.05738780274987,9.76455688476562,0.06503704935312,-0.98260563611984,-0.77898460626602
226,1020280771,-0.12607896327972,-1.57703411579132,40.40278244018555,0.08640014380217,-0.04994016513228,9.75998497009277,0.03252172470093,-1.00711703300476,-0.88769781589508
227,1020297438,-0.12843005359173,-1.57256054878235,40.40945053100586,0.04851927980781,-0.06225857138634,9.76933765411377,0.06312890350819,-0.98754888772964,-0.76740771532059
228,1020314105,-0.13129591941833,-1.56853866577148,40.41528701782227,0.03870285674930,-0.04182563722134,9.76351356506348,0.03261137381196,-1.01627349853516,-0.74979889392853
229,1020330772,-0.13361406326294,-1.56360721588135,40.41920852661133,0.01812169142067,-0.07147192209959,9.77191638946533,0.06266786903143,-0.96422851085663,-0.85533607006073
230,1020347439,-0.13506183028221,-1.55938935279846,40.43013000488281,-0.00237506907433,-0.04242331534624,9.76673126220703,0.11685154587030,-1.01013922691345,-0.84712719917297
231,1020364106,-0.13541284203529,-1.55595028400421,40.43286132812500,-0.00263863056898,-0.06792246550322,9.76635551452637,0.17850130796432,-1.06112134456635,-0.91219633817673
232,1020380773,-0.13629758358002,-1.55137658119202,40.43661499023438,-0.01380691211671,-0.05461332201958,9.75801181793213,0.14879056811333,-0.99790912866592,-0.88523888587952
233,1020397440,-0.13690705597401,-1.54779958724976,40.43813705444336,-0.01569774001837,-0.06906142085791,9.76955413818359,0.16501621901989,-1.06147992610931,-0.89942842721939
234,1020414107,-0.13771679997444,-1.54404902458191,40.44133758544922,-0.00424287095666,-0.05719881132245,9.75505828857422,0.15461747348309,-1.05589628219604,-0.86382669210434
235,1020430774,-0.13743849098682,-1.54088640213013,40.44037628173828,-0.01161780208349,-0.05726475641131,9.75127792358398,0.21658737957478,-1.09480202198029,-0.97823858261108
236,1020447441,-0.13706813752651,-1.53624856472015,40.44340896606445,-0.00373296951875,-0.06903652101755,9.78224468231201,0.22281128168106,-1.01002407073975,-0.96005362272263
237,1020464108,-0.13653567433357,-1.53230202198029,40.44626998901367,0.00412618927658,-0.05162962153554,9.77616786956787,0.23470835387707,-1.05551218986511,-0.94218873977661
238,1020480775,-0.13633120059967,-1.52770662307739,40.45212554931641,0.02194489724934,-0.06643784791231,9.78999805450439,0.21293753385544,-1.01955175399780,-0.99165958166122
239,1020497442,-0.13508608937263,-1.52299153804779,40.45942306518555,0.03879094123840,-0.03304725885391,9.75551891326904,0.27996602654457,-1.01437819004059,-0.88087189197540
240,1020514109,-0.13374197483063,-1.51774442195892,40.45610046386719,0.07073003798723,-0.05505293235183,9.77023315429688,0.27964586019516,-0.98480826616287,-1.02219009399414
241,1020530776,-0.13281644880772,-1.51389634609222,40.45773315429688,0.07258380204439,-0.05260573700070,9.75741863250732,0.25756770372391,-1.06793439388275,-0.93476110696793
242,1020547443,-0.13170081377029,-1.51007366180420,40.45822143554688,0.11056398600340,-0.05842578783631,9.77611541748047,0.26699319481850,-1.06959915161133,-0.99255615472794
243,1020564110,-0.13124820590019,-1.50630319118500,40.45841979980469,0.12516513466835,-0.05992316827178,9.76879215240479,0.22962427139282,-1.07131516933441,-0.93947386741638
244,1020580777,-0.13258631527424,-1.50307416915894,40.45172119140625,0.14754256606102,-0.04813959077001,9.75340747833252,0.12138498574495,-1.10025763511658,-0.94026786088943
245,1020597444,-0.13161508738995,-1.49878227710724,40.46075057983398,0.14151917397976,-0.05998545512557,9.76706981658936,0.26344582438469,-1.03365159034729,-0.85728263854980
246,1020614111,-0.13282246887684,-1.49514651298523,40.46702575683594,0.13927529752254,-0.03664230182767,9.77902889251709,0.13145077228546,-1.06941986083984,-0.90716332197189
247,1020630778,-0.13408468663692,-1.49201285839081,40.47444152832031,0.12448058277369,-0.05677620694041,9.76775169372559,0.13004207611084,-1.09696638584137,-0.83720231056213
248,1020647445,-0.13573710620403,-1.48853075504303,40.47165679931641,0.11737666279078,-0.04506827145815,9.77657508850098,0.10357135534286,-1.07269823551178,-0.88724946975708
249,1020664112,-0.13715048134327,-1.48476457595825,40.47417068481445,0.10181470960379,-0.06715271621943,9.76632213592529,0.11852918565273,-1.05416750907898,-0.88791555166245
250,1020680779,-0.13946546614170,-1.47912085056305,40.47481155395508,0.10324548184872,-0.05152771621943,9.74599742889404,0.06506266444921,-0.94005006551743,-0.85702645778656
251,1020697446,-0.14234219491482,-1.47431397438049,40.47850036621094,0.09372150152922,-0.05917356908321,9.78373432159424,0.03261137381196,-0.98853498697281,-0.82434475421906
252,1020714113,-0.14523747563362,-1.46981215476990,40.47925949096680,0.07388250529766,-0.05603097379208,9.77895832061768,0.03117705509067,-1.00588750839233,-0.83405184745789
253,1020730780,-0.14735150337219,-1.46536946296692,40.48305892944336,0.06462306529284,-0.05137991905212,9.75684070587158,0.07783059030771,-1.00930678844452,-0.84073674678802
254,1020747447,-0.15091823041439,-1.46057713031769,40.48936462402344,0.03540543466806,-0.06902017444372,9.75493812561035,-0.00865709222853,-0.98847085237503,-0.85232657194138
255,1020764114,-0.15245477855206,-1.45612823963165,40.49095535278320,0.01218813471496,-0.04501998424530,9.74922752380371,0.11161373555660,-1.00935804843903,-0.90115725994110
256,1020780781,-0.15440240502357,-1.45203661918640,40.48919296264648,0.00747131090611,-0.05338954553008,9.76187610626221,0.08687187731266,-1.03376710414886,-0.86232841014862
257,1020797448,-0.15564587712288,-1.44832932949066,40.49061584472656,-0.01899829879403,-0.05418851971626,9.76232242584229,0.12862057983875,-1.05820155143738,-0.92862689495087
258,1020814115,-0.15648382902145,-1.44375717639923,40.49371719360352,-0.01380491163582,-0.06378618627787,9.75680828094482,0.15416924655437,-1.01088213920593,-0.84210723638535
259,1020830782,-0.15752156078815,-1.44052064418793,40.49595260620117,-0.03261793777347,-0.05742600560188,9.76758861541748,0.14169585704803,-1.09276592731476,-0.87560862302780
260,1020847449,-0.15828862786293,-1.43657004833221,40.49098587036133,-0.01030402816832,-0.05917873978615,9.78816986083984,0.15591090917587,-1.05421876907349,-0.96093720197678
261,1020864116,-0.15774497389793,-1.43162441253662,40.49276351928711,0.01031644269824,-0.06131650134921,9.76387977600098,0.23570729792118,-0.99711519479752,-0.92751258611679
262,1020880783,-0.15848404169083,-1.42757630348206,40.49741363525391,0.02031540870667,-0.05378039926291,9.76779842376709,0.15806236863136,-1.05187511444092,-0.98813802003860
263,1020897450,-0.15846386551857,-1.42383921146393,40.50022125244141,0.01718487590551,-0.05922653526068,9.76562023162842,0.20497204363346,-1.07272386550903,-0.89958214759827
264,1020914117,-0.15924251079559,-1.42085874080658,40.50783920288086,0.03183748945594,-0.04126897081733,9.77546024322510,0.15909969806671,-1.12000477313995,-0.85645025968552
265,1020930784,-0.15893621742725,-1.41749608516693,40.51684570312500,0.06008348986506,-0.05908707529306,9.78566074371338,0.22213253378868,-1.09690225124359,-0.92232614755630
266,1020947451,-0.15785905718803,-1.41387283802032,40.51623916625977,0.07134199887514,-0.02875676564872,9.75240421295166,0.26710841059685,-1.08132982254028,-0.91274690628052
267,1020964118,-0.15793427824974,-1.40941739082336,40.50692749023438,0.08892178535461,-0.05528723448515,9.77183055877686,0.19452205300331,-1.03012990951538,-0.97908395528793
268,1020980785,-0.15646451711655,-1.40535628795624,40.50852966308594,0.11370117962360,-0.04589484259486,9.75337886810303,0.28948113322258,-1.05200326442719,-0.94340538978577
269,1020997452,-0.15644447505474,-1.40139758586884,40.50478363037109,0.12810429930687,-0.05330057442188,9.77276039123535,0.20128381252289,-1.05674159526825,-0.93652844429016
270,1021014119,-0.15592452883720,-1.39759004116058,40.50802230834961,0.12513473629951,-0.04945124313235,9.76948833465576,0.23285144567490,-1.06191527843475,-0.89182132482529
271,1021030786,-0.15695737302303,-1.39264822006226,40.50689315795898,0.13076597452164,-0.03211541473866,9.77082157135010,0.13877601921558,-0.99078893661499,-0.92209559679031
272,1021047453,-0.15819762647152,-1.38832271099091,40.50834274291992,0.13456800580025,-0.04644295945764,9.75807952880859,0.12572634220123,-1.02458488941193,-0.86962807178497
273,1021064120,-0.15993398427963,-1.38356864452362,40.50962829589844,0.14190280437469,-0.03096871823072,9.76846218109131,0.09727063030005,-0.99600112438202,-0.85797429084778
274,1021080787,-0.16380208730698,-1.37843096256256,40.51148986816406,0.12206805497408,-0.05812807381153,9.77163600921631,-0.03339896351099,-0.96896696090698,-0.89789158105850
275,1021097454,-0.16641907393932,-1.37317192554474,40.51288986206055,0.09100138396025,-0.02859860658646,9.75556468963623,0.04303573444486,-0.95861929655075,-0.86665701866150
276,1021114121,-0.16793322563171,-1.36927509307861,40.50884628295898,0.07436715066433,-0.07002414762974,9.77342987060547,0.10842495411634,-1.03947865962982,-0.78680938482285
277,1021130788,-0.16992183029652,-1.36473047733307,40.51296997070312,0.07026582211256,-0.04460415616632,9.76716518402100,0.07987961173058,-0.99939477443695,-0.90407717227936
278,1021147455,-0.17247010767460,-1.36026573181152,40.51122665405273,0.06496869027615,-0.04766548424959,9.77614879608154,0.04536649212241,-1.00362074375153,-0.85007268190384
279,1021164122,-0.17467752099037,-1.35585308074951,40.50960922241211,0.03640486299992,-0.04070326313376,9.77038383483887,0.06526757031679,-1.00559306144714,-0.88621222972870
280,1021180789,-0.17722401022911,-1.35088562965393,40.50704193115234,0.02371129952371,-0.05637947469950,9.76917743682861,0.04254909604788,-0.97306495904922,-0.92898547649384
281,1021197456,-0.17949958145618,-1.34642505645752,40.50823593139648,0.01122655067593,-0.06023181602359,9.75858974456787,0.06219403445721,-1.00378727912903,-0.84098011255264
282,1021214123,-0.18202741444111,-1.34208095073700,40.51163101196289,-0.00270516891032,-0.05929308757186,9.77928256988525,0.04425234347582,-1.01239311695099,-0.92308163642883
283,1021230790,-0.18320342898369,-1.33719480037689,40.51338958740234,-0.00827854592353,-0.06056497991085,9.78555297851562,0.12804429233074,-0.98163235187531,-0.83735609054565
284,1021247457,-0.18410405516624,-1.33277666568756,40.51032257080078,-0.02127704955637,-0.04473984241486,9.79859161376953,0.14190076291561,-1.01136875152588,-0.94206076860428
285,1021264124,-0.18508516252041,-1.32870101928711,40.51198959350586,-0.01688116975129,-0.07009182125330,9.78235340118408,0.13845585286617,-1.03484272956848,-0.87115198373795
286,1021280791,-0.18458034098148,-1.32518339157104,40.51298522949219,-0.00641779555008,-0.04794158786535,9.78227710723877,0.22656354308128,-1.06971442699432,-0.93303221464157
287,1021297458,-0.18485701084137,-1.32111823558807,40.50783920288086,-0.00900820549577,-0.07998484373093,9.77410984039307,0.17704138159752,-1.03815960884094,-0.96886450052261
288,1021314125,-0.18384571373463,-1.31728887557983,40.50461959838867,0.00214024190791,-0.05028667673469,9.77569961547852,0.25864344835281,-1.05560183525085,-0.84423297643661
289,1021330792,-0.18303397297859,-1.31407284736633,40.50996017456055,0.01845836639404,-0.05948046594858,9.77202892303467,0.24458205699921,-1.09148526191711,-0.97229653596878
290,1021347459,-0.18243056535721,-1.30977463722229,40.51488494873047,0.05344214290380,-0.03909380733967,9.76423931121826,0.23397843539715,-1.02843964099884,-0.93449217081070
291,1021364126,-0.18205010890961,-1.30662131309509,40.51511383056641,0.06167133897543,-0.06006184592843,9.75226211547852,0.21943040192127,-1.09560883045197,-0.95065367221832
292,1021380793,-0.18120281398296,-1.30274212360382,40.51748275756836,0.08395127207041,-0.04866280779243,9.77052211761475,0.24622127413750,-1.05170857906342,-0.91930377483368
293,1021397460,-0.18086646497250,-1.29855406284332,40.52032089233398,0.10080489516258,-0.04399272054434,9.78483295440674,0.21585741639137,-1.03094959259033,-0.95669841766357
294,1021414127,-0.18061771988869,-1.29474687576294,40.51821136474609,0.10247662663460,-0.05770581588149,9.73645687103271,0.21111907064915,-1.05255389213562,-0.84140282869339
295,1021430794,-0.17983549833298,-1.29044139385223,40.51656723022461,0.10284896194935,-0.05218472331762,9.78345584869385,0.24333986639977,-1.01943671703339,-0.86360907554626
296,1021447461,-0.17997241020203,-1.28640258312225,40.51953887939453,0.13431286811829,-0.05781072005630,9.75800800323486,0.18656931817532,-1.03292167186737,-0.95130693912506
297,1021464128,-0.17993029952049,-1.28282058238983,40.51692581176758,0.13990899920464,-0.04417891055346,9.75751018524170,0.19632773101330,-1.05780446529388,-0.92037951946259
298,1021480795,-0.18148083984852,-1.27934348583221,40.52108383178711,0.14310787618160,-0.06093971431255,9.77430629730225,0.10426289588213,-1.05944371223450,-0.86943596601486
299,1021497462,-0.18387947976589,-1.27524375915527,40.52503585815430,0.13415463268757,-0.04246201738715,9.76030254364014,0.05048903450370,-1.01850175857544,-0.93380063772202
300,1021514129,-0.18497046828270,-1.27176368236542,40.52601623535156,0.12587223947048,-0.04590212181211,9.75491333007812,0.12958104908466,-1.05257952213287,-0.84849756956100
301,1021530796,-0.18616722524166,-1.26675343513489,40.52600097656250,0.09521716088057,-0.05721759796143,9.77007675170898,0.12307543307543,-0.95776134729385,-0.87267595529556
302,1021547463,-0.18734548985958,-1.26179540157318,40.54057312011719,0.06773423403502,-0.05658652260900,9.76176166534424,0.12772412598133,-0.95878577232361,-0.80801659822464
303,1021564130,-0.19029358029366,-1.25585937500000,40.53840255737305,0.06825001537800,-0.06664965301752,9.75936603546143,0.01676991581917,-0.89958214759827,-0.86659294366837
304,1021580797,-0.19292885065079,-1.25102722644806,40.53749465942383,0.03676531463861,-0.04893220961094,9.77593040466309,0.03527509048581,-0.96402359008789,-0.91299021244049
305,1021597464,-0.19552126526833,-1.24717450141907,40.53828811645508,0.02066550962627,-0.06431478261948,9.75769805908203,0.03927067294717,-1.02344501018524,-0.86021536588669
306,1021614131,-0.19817872345448,-1.24370527267456,40.54400253295898,0.00334774306975,-0.05277294293046,9.77865123748779,0.03542876988649,-1.04615068435669,-0.90998077392578
307,1021630798,-0.19940306246281,-1.23952615261078,40.54721069335938,-0.00108931644354,-0.06802073866129,9.76398754119873,0.12251194566488,-1.00519597530365,-0.83794498443604
308,1021647465,-0.20101031661034,-1.23505318164825,40.54192352294922,-0.00292556663044,-0.06521420925856,9.77541351318359,0.09601560980082,-0.98850935697556,-0.88117927312851
309,1021664132,-0.20283462107182,-1.23066186904907,40.53393936157227,-0.00131865765434,-0.06529524922371,9.75253963470459,0.08315803110600,-0.99408006668091,-0.89777642488480
310,1021680799,-0.20395053923130,-1.22752904891968,40.53364181518555,-0.01440102793276,-0.06503820419312,9.78897285461426,0.12696856260300,-1.07177627086639,-0.87138241529465
311,1021697466,-0.20376968383789,-1.22401618957520,40.53851318359375,-0.00672638835385,-0.04967693239450,9.77355575561523,0.20521534979343,-1.04862236976624,-0.95161432027817
312,1021714133,-0.20435336232185,-1.22129082679749,40.53001403808594,-0.01053735055029,-0.05161423981190,9.76689243316650,0.15789589285851,-1.09843909740448,-0.86610621213913
313,1021730800,-0.20310017466545,-1.21834349632263,40.52388763427734,0.00218006293289,-0.05748206004500,9.76528453826904,0.26604557037354,-1.08649075031281,-0.96573966741562
314,1021747467,-0.20110176503658,-1.21472203731537,40.52051544189453,0.00872846879065,-0.06119337677956,9.75943088531494,0.31290397047997,-1.04558718204498,-0.91160720586777
315,1021764134,-0.20016561448574,-1.21138072013855,40.52731323242188,0.03214709460735,-0.06213830038905,9.77868652343750,0.25008878111839,-1.06328558921814,-0.95284360647202
316,1021780801,-0.19842779636383,-1.20873475074768,40.51596832275391,0.05887176096439,-0.07037840038538,9.76840305328369,0.29185032844543,-1.10490632057190,-1.04324376583099
317,1021797468,-0.19698144495487,-1.20552623271942,40.51570129394531,0.07077304273844,-0.05141814798117,9.75803375244141,0.27949216961861,-1.07023942470551,-0.94519817829132
318,1021814135,-0.19563280045986,-1.20025432109833,40.51758193969727,0.08938216418028,-0.05665041878819,9.77127075195312,0.27456173300743,-0.94545441865921,-0.92205721139908
319,1021830802,-0.19451934099197,-1.19742751121521,40.52017211914062,0.10897688567638,-0.06173998489976,9.77802371978760,0.26128154993057,-1.08933377265930,-0.86286628246307
320,1021847469,-0.19390577077866,-1.19387817382812,40.51816177368164,0.11035595834255,-0.05112864822149,9.76969146728516,0.22845886647701,-1.04390954971313,-0.97580534219742
321,1021864136,-0.19373205304146,-1.19003736972809,40.52058792114258,0.12093604356050,-0.05978848412633,9.78289794921875,0.20250041782856,-1.02304816246033,-1.00182807445526
322,1021880803,-0.19415199756622,-1.18634140491486,40.51900863647461,0.11777283996344,-0.05145449936390,9.78239822387695,0.16999788582325,-1.02998888492584,-0.86550420522690
323,1021897470,-0.19385500252247,-1.18290650844574,40.51029968261719,0.12532548606396,-0.06091086938977,9.75542736053467,0.20851938426495,-1.04255223274231,-0.89522784948349
324,1021914137,-0.19489414989948,-1.17834997177124,40.50772476196289,0.11918123811483,-0.03990602120757,9.76417350769043,0.13063117861748,-0.97257828712463,-0.86486405134201
325,1021930804,-0.19592781364918,-1.17457377910614,40.50873947143555,0.11537639051676,-0.05648368224502,9.77706050872803,0.13047750294209,-1.01571011543274,-0.92203158140182
326,1021947471,-0.19760136306286,-1.17054009437561,40.51547622680664,0.10796348750591,-0.05335100740194,9.77616214752197,0.09513197094202,-0.99820375442505,-0.79065126180649
327,1021964138,-0.20010875165462,-1.16646277904510,40.51026153564453,0.09909819811583,-0.05884115025401,9.76541900634766,0.04121723771095,-0.99355494976044,-0.84716570377350
328,1021980805,-0.20306216180325,-1.16160702705383,40.50826263427734,0.07634867727757,-0.04971703141928,9.78522014617920,0.01611679233611,-0.94385361671448,-0.86276382207870
329,1021997472,-0.20647011697292,-1.15852904319763,40.49966812133789,0.05746829882264,-0.05461488291621,9.75890064239502,-0.01322895847261,-1.04995429515839,-0.81860756874084
330,1022014139,-0.20906075835228,-1.15437233448029,40.49620437622070,0.04521323367953,-0.05308740213513,9.76496887207031,0.03693991899490,-0.98483401536942,-0.85939562320709
331,1022030806,-0.21039256453514,-1.15064263343811,40.50146484375000,0.01572230458260,-0.03554075211287,9.76230144500732,0.11261262744665,-1.00809013843536,-0.89421623945236
332,1022047473,-0.21258656680584,-1.14767479896545,40.50278472900391,0.00531987426803,-0.07858224213123,9.77551364898682,0.06063166260719,-1.05572986602783,-0.80911785364151
333,1022064140,-0.21392108500004,-1.14459109306335,40.50068283081055,-0.01397266332060,-0.05559713020921,9.76716709136963,0.11167777329683,-1.04831504821777,-0.88240879774094
334,1022080807,-0.21540263295174,-1.14019310474396,40.49658584594727,-0.00945606827736,-0.05816676095128,9.74314880371094,0.10238036513329,-0.97142571210861,-0.86937195062637
335,1022097474,-0.21539111435413,-1.13672673702240,40.48796081542969,-0.00196480378509,-0.04621487855911,9.75441360473633,0.19009104371071,-1.02841401100159,-0.87421262264252
336,1022114141,-0.21440041065216,-1.13382935523987,40.48697662353516,-0.00155698251911,-0.06936177611351,9.79103183746338,0.24988389015198,-1.06215858459473,-0.90739387273788
337,1022130808,-0.21375066041946,-1.13027989864349,40.48595428466797,0.00339401420206,-0.05299670621753,9.77765560150146,0.23058471083641,-1.02493047714233,-0.86645197868347
338,1022147475,-0.21483898162842,-1.12709546089172,40.47258377075195,0.00094518845435,-0.05126423761249,9.76343345642090,0.12069342285395,-1.04643237590790,-0.99460500478745
339,1022164142,-0.21371953189373,-1.12367343902588,40.46229553222656,0.01580553874373,-0.06540218740702,9.75792789459229,0.25554436445236,-1.03325486183167,-0.91617918014526
340,1022180809,-0.21345812082291,-1.12158524990082,40.45167160034180,0.03285679221153,-0.04126079753041,9.76255130767822,0.20251320302486,-1.11347365379333,-0.99500209093094
341,1022197476,-0.21209722757339,-1.11820590496063,40.44430923461914,0.03358981385827,-0.06861650198698,9.75129127502441,0.26936236023903,-1.03482985496521,-0.98428332805634
342,1022214143,-0.21069701015949,-1.11545181274414,40.44043731689453,0.05278464034200,-0.04479879885912,9.77502822875977,0.27209007740021,-1.07235240936279,-0.96443337202072
343,1022230810,-0.21063660085201,-1.11261999607086,40.43794250488281,0.09041785448790,-0.05215998366475,9.77243518829346,0.19235777854919,-1.06690967082977,-0.96033525466919
344,1022247477,-0.20911501348019,-1.10927259922028,40.44120407104492,0.09946701675653,-0.04170770198107,9.77619647979736,0.28151559829712,-1.03383111953735,-0.92336344718933
345,1022264144,-0.20801052451134,-1.10617983341217,40.44312667846680,0.13162057101727,-0.05876073986292,9.74866104125977,0.25621020793915,-1.04670119285583,-0.94742655754089
346,1022280811,-0.20656307041645,-1.10393118858337,40.43840026855469,0.13032697141171,-0.04907110333443,9.75901699066162,0.27584239840508,-1.09458434581757,-0.88070553541183
347,1022297478,-0.20663401484489,-1.10046195983887,40.43223571777344,0.13879171013832,-0.03578326851130,9.76828289031982,0.18208706378937,-1.01898825168610,-0.95774847269058
348,1022314145,-0.20760281383991,-1.09750044345856,40.42527389526367,0.13011473417282,-0.06934958696365,9.77753448486328,0.12890231609344,-1.04586899280548,-0.93012523651123
349,1022330812,-0.20937900245190,-1.09437000751495,40.42061614990234,0.11635497957468,-0.03486208245158,9.76196384429932,0.08133953064680,-1.03292179107666,-0.88581526279449
350,1022347479,-0.21138672530651,-1.09202301502228,40.40535736083984,0.11516368389130,-0.05797596275806,9.76377964019775,0.06455040723085,-1.07806408405304,-0.88540536165237
351,1022364146,-0.21278905868530,-1.08885061740875,40.39893722534180,0.10755361616611,-0.03028360754251,9.75691986083984,0.10211143642664,-1.02568626403809,-0.92151933908463
352,1022380813,-0.21451278030872,-1.08612000942230,40.39351654052734,0.09188623726368,-0.06470402330160,9.76879787445068,0.08305557817221,-1.04930102825165,-0.88335645198822
353,1022397480,-0.21580092608929,-1.08187043666840,40.37455368041992,0.08014881610870,-0.03823127970099,9.76609516143799,0.10802795737982,-0.95699286460876,-0.88955461978912
354,1022414147,-0.21710479259491,-1.07812356948853,40.37972640991211,0.07586187124252,-0.06610248982906,9.77019405364990,0.11125516891479,-0.98575609922409,-0.80814480781555
355,1022430814,-0.21980157494545,-1.07451164722443,40.37207412719727,0.04426420480013,-0.06442733854055,9.77840518951416,0.02524772100151,-0.99333739280701,-0.84046798944473
356,1022447481,-0.22182570397854,-1.07153248786926,40.37593841552734,0.03936117887497,-0.03842956945300,9.77222251892090,0.06776480376720,-1.02933597564697,-0.86056107282639
357,1022464148,-0.22410953044891,-1.06782507896423,40.38138961791992,0.01961189322174,-0.06071314215660,9.76499271392822,0.05183370038867,-0.98546141386032,-0.82802003622055
358,1022480815,-0.22585661709309,-1.06496345996857,40.38475418090820,0.00061904476024,-0.04038441926241,9.77794837951660,0.08324768394232,-1.03691744804382,-0.86956405639648
359,1022497482,-0.22705425322056,-1.06242990493774,40.37188720703125,-0.01586904004216,-0.06585447490215,9.78059768676758,0.11221564561129,-1.05735635757446,-0.82250064611435
360,1022514149,-0.22892919182777,-1.05949938297272,40.37334060668945,-0.02729091607034,-0.04604726284742,9.75871562957764,0.07614015787840,-1.03465056419373,-0.84703755378723
361,1022530816,-0.22921159863472,-1.05630326271057,40.37442016601562,-0.00303814839572,-0.07774626463652,9.75709915161133,0.16956247389317,-1.01902687549591,-0.88349729776382
362,1022547483,-0.22886493802071,-1.05346143245697,40.36537170410156,-0.01736647449434,-0.04033692926168,9.74988746643066,0.20545867085457,-1.04179644584656,-0.86309671401978
363,1022564150,-0.22777925431728,-1.05056214332581,40.36541748046875,0.00161378202029,-0.06281974166632,9.76706409454346,0.24943566322327,-1.03814685344696,-0.97236055135727
364,1022580817,-0.22719013690948,-1.04693961143494,40.36080551147461,0.02110905572772,-0.05486108362675,9.77985572814941,0.22032682597637,-0.99633401632309,-0.91196566820145
365,1022597484,-0.22581250965595,-1.04455125331879,40.35470962524414,0.03009854443371,-0.06013152375817,9.77193450927734,0.26726210117340,-1.06971430778503,-0.91478323936462
366,1022614151,-0.22534443438053,-1.04270815849304,40.35664367675781,0.03775675967336,-0.07021537423134,9.75416374206543,0.21443593502045,-1.10189688205719,-0.91735726594925
367,1022630818,-0.22460541129112,-1.04035127162933,40.35572814941406,0.05732292309403,-0.05374351143837,9.78157997131348,0.22897112369537,-1.07122552394867,-0.96937662363052
368,1022647485,-0.22392828762531,-1.03748118877411,40.35678100585938,0.06404195725918,-0.06612062454224,9.74633312225342,0.22588481009007,-1.03864634037018,-0.98183727264404
369,1022664152,-0.22371822595596,-1.03526341915131,40.37032318115234,0.08195715397596,-0.03250461444259,9.76696109771729,0.20019526779652,-1.07701396942139,-0.90120834112167
370,1022680819,-0.22319345176220,-1.03317439556122,40.37138748168945,0.09660104662180,-0.04723298922181,9.76609706878662,0.21520429849625,-1.08281528949738,-0.99076336622238
371,1022697486,-0.22186312079430,-1.03115820884705,40.36392211914062,0.11821049451828,-0.03917635977268,9.76384258270264,0.26275429129601,-1.08675968647003,-0.95229291915894
372,1022714153,-0.22132368385792,-1.02890324592590,40.35983276367188,0.12561868131161,-0.06660877168179,9.76211166381836,0.21392369270325,-1.06834411621094,-1.01550519466400
373,1022730820,-0.22171065211296,-1.02628588676453,40.35457992553711,0.13341261446476,-0.05457533895969,9.76395988464355,0.16089257597923,-1.04590737819672,-0.87217640876770
374,1022747487,-0.22142139077187,-1.02321863174438,40.35616302490234,0.12833286821842,-0.04272898659110,9.77654457092285,0.20136064291000,-1.01482629776001,-0.92899817228317
375,1022764154,-0.22387330234051,-1.02023291587830,40.35387039184570,0.12206804007292,-0.05438572540879,9.76585006713867,0.03697833791375,-1.01798963546753,-0.83008199930191
376,1022780821,-0.22435143589973,-1.01802253723145,40.35946655273438,0.10505182296038,-0.03953732550144,9.76679992675781,0.15708911418915,-1.06182575225830,-0.88089764118195
377,1022797488,-0.22586110234261,-1.01626801490784,40.34917831420898,0.10158897936344,-0.06470146030188,9.76072120666504,0.09100832790136,-1.08800172805786,-0.86624717712402
378,1022814155,-0.22787597775459,-1.01359570026398,40.35005950927734,0.08333343267441,-0.05751493200660,9.75005054473877,0.06328258663416,-1.03037333488464,-0.88407349586487
379,1022830822,-0.22984613478184,-1.01146101951599,40.35164642333984,0.05422165617347,-0.06758909672499,9.77694129943848,0.06446076184511,-1.06130063533783,-0.94801574945450
380,1022847489,-0.23114813864231,-1.00831329822540,40.34848022460938,0.05128186196089,-0.04597896710038,9.76698493957520,0.10568438470364,-1.00016307830811,-0.86378812789917
381,1022864156,-0.23300844430923,-1.00549376010895,40.34454345703125,0.03653556108475,-0.07538196444511,9.74201774597168,0.07152987271547,-1.01795113086700,-0.91594862937927
382,1022880823,-0.23441670835018,-1.00326728820801,40.34661483764648,0.02907250262797,-0.05736570432782,9.77873897552490,0.10126620531082,-1.05437231063843,-0.83102965354919
383,1022897490,-0.23634517192841,-1.00087606906891,40.34007263183594,0.00271001039073,-0.07208224385977,9.77691841125488,0.06574139744043,-1.04467809200287,-0.92525881528854
384,1022914157,-0.23750130832195,-0.99890458583832,40.33685302734375,-0.00438276166096,-0.05736220628023,9.76576805114746,0.11504585295916,-1.07003462314606,-0.82023394107819
385,1022930824,-0.23817336559296,-0.99640858173370,40.34058761596680,-0.00035235413816,-0.05883863195777,9.75739479064941,0.14375768601894,-1.03965795040131,-0.89367836713791
386,1022947491,-0.23859205842018,-0.99435997009277,40.34231567382812,-0.01439426932484,-0.06272912770510,9.77422523498535,0.15911249816418,-1.06658959388733,-0.86558121442795
387,1022964158,-0.23883192241192,-0.99221366643906,40.33678817749023,-0.01903560571373,-0.05928513407707,9.78242778778076,0.16852514445782,-1.06135177612305,-0.88263922929764
388,1022980825,-0.23901255428791,-0.99079459905624,40.33728027343750,-0.01131283305585,-0.06509722769260,9.75437736511230,0.17188043892384,-1.10581552982330,-0.90629255771637
389,1022997492,-0.23928351700306,-0.98879361152649,40.33807373046875,0.00042147567729,-0.04816489666700,9.74744987487793,0.16689875721931,-1.07190418243408,-0.94742655754089
390,1023014159,-0.23822624981403,-0.98611521720886,40.33181381225586,0.02068926952779,-0.05390372127295,9.75490951538086,0.24373687803745,-1.03103923797607,-1.04522871971130
391,1023030826,-0.23777481913567,-0.98276734352112,40.32000732421875,0.03421593829989,-0.05145404487848,9.74338436126709,0.20874989032745,-0.99146747589111,-0.92103266716003
392,1023047493,-0.23665812611580,-0.98083621263504,40.30650711059570,0.06422112882137,-0.06307078897953,9.78115749359131,0.24701526761055,-1.07618165016174,-0.95956689119339
393,1023064160,-0.23558238148689,-0.97890943288803,40.29883193969727,0.07157380133867,-0.06959949433804,9.76501083374023,0.24559375643730,-1.07527232170105,-0.94142037630081
394,1023080827,-0.23503975570202,-0.97665560245514,40.28375244140625,0.08133190870285,-0.04975657537580,9.76743316650391,0.21305282413960,-1.05457723140717,-0.91747242212296
395,1023097494,-0.23446115851402,-0.97425752878189,40.26974868774414,0.11487696319818,-0.05890991166234,9.75849246978760,0.21547323465347,-1.04535663127899,-0.91032654047012
396,1023114161,-0.23390932381153,-0.97344911098480,40.26126098632812,0.11002637445927,-0.03628177195787,9.73499202728271,0.21476890146732,-1.13771605491638,-0.93412077426910
397,1023130828,-0.23487906157970,-0.97276484966278,40.25180816650391,0.11065258085728,-0.05692419782281,9.76346015930176,0.12224300205708,-1.14324843883514,-0.91866344213486
398,1023147495,-0.23533937335014,-0.97090947628021,40.25760650634766,0.14051030576229,-0.02818329446018,9.74098491668701,0.15537303686142,-1.07095670700073,-0.93368536233902
399,1023164162,-0.23635989427567,-0.96808624267578,40.25951385498047,0.12352589517832,-0.04893149808049,9.76323699951172,0.12101361155510,-1.01072835922241,-0.89187264442444
400,1023180829,-0.23646958172321,-0.96567893028259,40.26071929931641,0.12857398390770,-0.04535286128521,9.77578544616699,0.17610651254654,-1.03384387493134,-0.85799986124039
401,1023197496,-0.23798687756062,-0.96360546350479,40.26390075683594,0.13660085201263,-0.05287604779005,9.75779819488525,0.08998381346464,-1.05123484134674,-0.91018569469452
402,1023214163,-0.23993887007236,-0.96065682172775,40.25760650634766,0.10994216054678,-0.04642506316304,9.77041816711426,0.06370519101620,-0.99639815092087,-0.87540370225906
403,1023230830,-0.24204480648041,-0.95854622125626,40.26131057739258,0.09475537389517,-0.04821983724833,9.76524257659912,0.05511212348938,-1.04520308971405,-0.85636061429977
404,1023247497,-0.24419158697128,-0.95474219322205,40.26249694824219,0.07544928789139,-0.05418359488249,9.75976848602295,0.05187212303281,-0.94110029935837,-0.87276560068130
405,1023264164,-0.24649415910244,-0.95105272531509,40.26884078979492,0.07462276518345,-0.05532503128052,9.76020812988281,0.04270277172327,-0.94814372062683,-0.86720758676529
406,1023280831,-0.24878121912479,-0.94842970371246,40.27250671386719,0.04565937817097,-0.07244390249252,9.75895309448242,0.04409867152572,-1.01095879077911,-0.81903016567230
407,1023297498,-0.25150492787361,-0.94662487506866,40.28278350830078,0.02149538137019,-0.04757009446621,9.76438903808594,0.01830667816103,-1.05940532684326,-0.83922576904297
408,1023314165,-0.25298959016800,-0.94356751441956,40.28659439086914,0.03258215636015,-0.06686019152403,9.76019287109375,0.09135410189629,-0.98483401536942,-0.84359270334244
409,1023330832,-0.25413158535957,-0.93872243165970,40.28430557250977,0.00939428247511,-0.04185202717781,9.75168418884277,0.11090940237045,-0.87701731920242,-0.85897320508957
410,1023347499,-0.25466808676720,-0.93594753742218,40.27834320068359,-0.00165002769791,-0.04363366216421,9.77553558349609,0.14708733558655,-1.00130295753479,-0.90119564533234
411,1023364166,-0.25485864281654,-0.93273216485977,40.26753616333008,0.00105048890691,-0.04973984509706,9.76834774017334,0.16714207828045,-0.97601032257080,-0.86074042320251
412,1023380833,-0.25481846928596,-0.93055969476700,40.26623153686523,-0.01997675374150,-0.06293826550245,9.76701641082764,0.18135713040829,-1.03823649883270,-0.91123580932617
413,1023397500,-0.25422379374504,-0.92809349298477,40.27423858642578,-0.00072759913746,-0.06545534729958,9.74663257598877,0.21442310512066,-1.02185702323914,-0.93404388427734
414,1023414167,-0.25391227006912,-0.92541241645813,40.27242279052734,0.00755879748613,-0.04819892346859,9.78152275085449,0.19671194255352,-1.00919163227081,-0.96924859285355
415,1023430834,-0.25304508209229,-0.92309898138046,40.27694320678711,0.00533726811409,-0.04670746624470,9.74892330169678,0.23132751882076,-1.03130817413330,-0.89554804563522
416,1023447501,-0.25302103161812,-0.92071080207825,40.28142547607422,0.02098912186921,-0.05383724719286,9.75491714477539,0.17932091653347,-1.02795290946960,-0.93509399890900
417,1023464168,-0.25147613883018,-0.91736537218094,40.27851486206055,0.04126348346472,-0.06034237518907,9.76861476898193,0.26893973350525,-0.96985059976578,-0.96351134777069
418,1023480835,-0.25026333332062,-0.91521710157394,40.28070068359375,0.05921697989106,-0.04797820746899,9.75164031982422,0.25115174055099,-1.04102826118469,-0.90333437919617
419,1023497502,-0.24931140244007,-0.91210252046585,40.26484680175781,0.08478828519583,-0.05540907755494,9.78405857086182,0.23222395777702,-0.98304104804993,-1.00880742073059
420,1023514169,-0.24934451282024,-0.91302639245987,40.26825332641602,0.09911209344864,-0.05363071337342,9.77162075042725,0.17651630938053,-1.22354423999786,-0.89114260673523
421,1023530836,-0.24985203146935,-0.91112929582596,40.27450942993164,0.09490024298429,-0.04786995053291,9.74644279479980,0.14794537425041,-1.05295097827911,-0.94606906175613
422,1023547503,-0.24978759884834,-0.91014611721039,40.26719665527344,0.12299563735723,-0.04964268952608,9.77942085266113,0.17960263788700,-1.10621237754822,-0.93442803621292
423,1023564170,-0.25028231739998,-0.90892153978348,40.26822280883789,0.12389186024666,-0.04686040431261,9.76472473144531,0.14733065664768,-1.08970499038696,-0.91033935546875
424,1023580837,-0.25009781122208,-0.90636640787125,40.26996994018555,0.12167431414127,-0.04870699346066,9.77188491821289,0.18770907819271,-1.00866651535034,-0.92853724956512
425,1023597504,-0.25060620903969,-0.90573763847351,40.26651382446289,0.11556667089462,-0.04741058871150,9.76663875579834,0.14546093344688,-1.12127292156219,-0.92887020111084
426,1023614171,-0.25123694539070,-0.90339517593384,40.25066375732422,0.12112003564835,-0.05021085590124,9.78288173675537,0.13632999360561,-1.01746451854706,-0.94163805246353
427,1023630838,-0.25264215469360,-0.90251600742340,40.24210739135742,0.11216127127409,-0.04781752079725,9.75754070281982,0.09167426079512,-1.10342085361481,-0.89267945289612
428,1023647505,-0.25454154610634,-0.90077102184296,40.23409652709961,0.09656839072704,-0.05226574093103,9.77297687530518,0.06367956846952,-1.04945468902588,-0.84617948532104
429,1023664172,-0.25540286302567,-0.89783722162247,40.23937988281250,0.08986777067184,-0.05034893378615,9.77138328552246,0.12434326112270,-0.97793126106262,-0.86314803361893
430,1023680839,-0.25716245174408,-0.89658391475677,40.23102188110352,0.08975077420473,-0.06240253522992,9.76743888854980,0.06895579397678,-1.07620728015900,-0.91539794206619
431,1023697506,-0.26065871119499,-0.89372593164444,40.23610687255859,0.05393425747752,-0.05586913600564,9.75287628173828,-0.03254093602300,-0.97923761606216,-0.92372202873230
432,1023714173,-0.26317003369331,-0.89057242870331,40.24062347412109,0.03898212313652,-0.06058930978179,9.76176929473877,0.02591365016997,-0.96153908967972,-0.88247275352478
433,1023730840,-0.26594626903534,-0.88935202360153,40.24847030639648,0.02052365243435,-0.06018367037177,9.76357364654541,0.00891962274909,-1.07697558403015,-0.89093774557114
434,1023747507,-0.26719647645950,-0.88738381862640,40.25316619873047,0.00596767617390,-0.05549883469939,9.77497291564941,0.10045940428972,-1.03187155723572,-0.93608021736145
435,1023764174,-0.26918980479240,-0.88625055551529,40.24477767944336,0.00707676075399,-0.06013815850019,9.77072811126709,0.05525299906731,-1.08188056945801,-0.90383380651474
436,1023780841,-0.26986628770828,-0.88432502746582,40.24251937866211,-0.00226450664923,-0.04936100170016,9.77021694183350,0.13416573405266,-1.03538060188293,-0.90209209918976
437,1023797508,-0.26952821016312,-0.88262951374054,40.23879623413086,0.00333011057228,-0.05691987648606,9.76917266845703,0.19517518579960,-1.04985189437866,-0.88791555166245
438,1023814175,-0.26996389031410,-0.87984043359756,40.24489212036133,0.00056658935500,-0.05896540731192,9.76538658142090,0.14957176148891,-0.98488521575928,-0.87402063608170
439,1023830842,-0.26905041933060,-0.87807869911194,40.25094223022461,0.00876391679049,-0.05682743340731,9.77293491363525,0.22926566004753,-1.04598426818848,-0.94125384092331
440,1023847509,-0.26838341355324,-0.87649160623550,40.24160003662109,0.00465570064262,-0.06894040107727,9.77792644500732,0.21449995040894,-1.05785560607910,-0.88915759325027
441,1023864176,-0.26782065629959,-0.87496292591095,40.24587249755859,0.02349857427180,-0.06323420256376,9.74150562286377,0.20795591175556,-1.06123650074005,-0.94135630130768
442,1023880843,-0.26624256372452,-0.87250012159348,40.25012588500977,0.03927529603243,-0.05903852730989,9.75634193420410,0.26809453964233,-1.00509357452393,-0.94020384550095
443,1023897510,-0.26493814587593,-0.87081527709961,40.24961853027344,0.05882544070482,-0.04132075235248,9.77674770355225,0.25288060307503,-1.05142700672150,-0.87618476152420
444,1023914177,-0.26437422633171,-0.86967748403549,40.24095535278320,0.04375455901027,-0.04920244961977,9.77304172515869,0.20720033347607,-1.08376276493073,-0.96005356311798
445,1023930844,-0.26228061318398,-0.86714816093445,40.23297119140625,0.07454355806112,-0.04263084009290,9.76348590850830,0.29870167374611,-0.99972766637802,-0.90863609313965
446,1023947511,-0.26067075133324,-0.86518126726151,40.22838211059570,0.09893701225519,-0.05863338708878,9.75008773803711,0.26864522695541,-1.03281939029694,-0.99269694089890
447,1023964178,-0.25869655609131,-0.86321556568146,40.21965408325195,0.10148868709803,-0.04219568893313,9.76064395904541,0.29202955961227,-1.03146183490753,-0.91366899013519
448,1023980845,-0.25798645615578,-0.86146253347397,40.20812988281250,0.11718691885471,-0.06023277714849,9.75574588775635,0.21512745320797,-1.04321801662445,-0.89271777868271
449,1023997512,-0.25808364152908,-0.85959976911545,40.20157623291016,0.13386477530003,-0.04046480730176,9.75701045989990,0.16605354845524,-1.03417682647705,-0.92899829149246
450,1024014179,-0.25931707024574,-0.85796713829041,40.19284439086914,0.11873594671488,-0.05015498772264,9.78467464447021,0.10016486793756,-1.04743134975433,-0.79601711034775
451,1024030846,-0.26033240556717,-0.85597604513168,40.19095993041992,0.12709511816502,-0.06223150342703,9.77316284179688,0.11233089119196,-1.02381646633148,-0.88680136203766
452,1024047513,-0.26167988777161,-0.85514575242996,40.19064331054688,0.10349427163601,-0.05323909968138,9.76354598999023,0.09318540245295,-1.09115231037140,-0.84039109945297
453,1024064180,-0.26356506347656,-0.85311526060104,40.19898986816406,0.09405151754618,-0.07488864660263,9.75476741790771,0.06132319942117,-1.01824569702148,-0.84555214643478
454,1024080847,-0.26527202129364,-0.85127812623978,40.18432617187500,0.09109725803137,-0.03949799388647,9.74897956848145,0.07151706516743,-1.02928471565247,-0.77866452932358
455,1024097514,-0.26656106114388,-0.84875172376633,40.18535614013672,0.07562271505594,-0.06325501203537,9.77711105346680,0.09552897512913,-0.98672926425934,-0.85897320508957
456,1024114181,-0.26971411705017,-0.84569638967514,40.17295455932617,0.07264071702957,-0.05179223045707,9.77848625183105,-0.01644335500896,-0.95391941070557,-0.85487514734268
457,1024130848,-0.27106907963753,-0.84411925077438,40.17155075073242,0.05303349718451,-0.05359756574035,9.77048587799072,0.09245543926954,-1.04203987121582,-0.85656553506851
458,1024147515,-0.27220380306244,-0.84230846166611,40.17823028564453,0.03151891753078,-0.05347362905741,9.77476978302002,0.10596613585949,-1.02708196640015,-0.83875185251236
459,1024164182,-0.27354332804680,-0.84010750055313,40.17726135253906,0.02561265788972,-0.05083036795259,9.75372123718262,0.09248105436563,-1.00412034988403,-0.84711450338364
460,1024180849,-0.27628013491631,-0.83810228109360,40.17958450317383,0.00327920308337,-0.05455775558949,9.76286315917969,0.00948310270905,-1.01533865928650,-0.80750447511673
461,1024197516,-0.27726015448570,-0.83630031347275,40.18132019042969,-0.01053316704929,-0.04256934300065,9.76757907867432,0.11338100582361,-1.02810657024384,-0.89858311414719
462,1024214183,-0.27835100889206,-0.83571594953537,40.17495727539062,-0.02062172256410,-0.05753354355693,9.78093433380127,0.10672172158957,-1.10173022747040,-0.89324295520782
463,1024230850,-0.28005191683769,-0.83431321382523,40.16472244262695,-0.01166685484350,-0.04769519716501,9.75119590759277,0.06893018633127,-1.05365526676178,-0.87382853031158
464,1024247517,-0.28137299418449,-0.83237916231155,40.15798187255859,-0.00032399769407,-0.05847268551588,9.74850273132324,0.09196878969669,-1.02166485786438,-0.94001162052155
465,1024264184,-0.28112569451332,-0.83086419105530,40.15066909790039,0.00493790721521,-0.04736353456974,9.77375793457031,0.18604426085949,-1.04738020896912,-0.87722223997116
466,1024280851,-0.28093096613884,-0.82988339662552,40.15740203857422,0.01504112593830,-0.06361082941294,9.76400470733643,0.18316280841827,-1.08027958869934,-0.93514519929886
467,1024297518,-0.28039285540581,-0.82965409755707,40.15640258789062,0.04254897311330,-0.04518088698387,9.76666736602783,0.20260286331177,-1.12505066394806,-0.92043077945709
468,1024314185,-0.27900636196136,-0.82948803901672,40.15797042846680,0.05270228907466,-0.05920005962253,9.77630138397217,0.25391790270805,-1.12905895709991,-0.89686715602875
469,1024330852,-0.27617314457893,-0.82951503992081,40.15962982177734,0.06104922294617,-0.05421146377921,9.75695037841797,0.34147492051125,-1.14041829109192,-0.84454029798508
470,1024347519,-0.27372843027115,-0.82692098617554,40.15916061401367,0.08006511628628,-0.03850246220827,9.75780010223389,0.31705319881439,-0.98167067766190,-0.94574886560440
471,1024364186,-0.27298566699028,-0.82532191276550,40.15999984741211,0.08691022545099,-0.06456942111254,9.78206634521484,0.21328334510326,-1.04111778736115,-0.97478091716766
472,1024380853,-0.27235573530197,-0.82444411516190,40.15532302856445,0.09324183315039,-0.03978700190783,9.76141357421875,0.20749488472939,-1.08314824104309,-0.94266271591187
473,1024397520,-0.27181956171989,-0.82234102487564,40.16273498535156,0.10810679197311,-0.05695899575949,9.76859569549561,0.20326879620552,-1.00899946689606,-0.83365494012833
474,1024414187,-0.27156728506088,-0.82025784254074,40.15104293823242,0.11888694763184,-0.04437341541052,9.76336669921875,0.18462274968624,-1.00876891613007,-0.93280172348022
475,1024430854,-0.27097800374031,-0.81845849752426,40.15812301635742,0.12474393099546,-0.05086221173406,9.75849914550781,0.20483115315437,-1.02466154098511,-0.91762608289719
476,1024447521,-0.27238708734512,-0.81615895032883,40.15843963623047,0.14092431962490,-0.03559698164463,9.77185440063477,0.08703836053610,-0.99268424510956,-0.85600209236145
477,1024464188,-0.27324554324150,-0.81434524059296,40.15705490112305,0.13073933124542,-0.06750135868788,9.76357173919678,0.11772237718105,-1.02029478549957,-0.84310609102249
478,1024480855,-0.27428746223450,-0.81232345104218,40.15173721313477,0.11091766506433,-0.05805099755526,9.76280975341797,0.10732360929251,-1.00659191608429,-0.88368928432465
479,1024497522,-0.27609422802925,-0.81074899435043,40.14410781860352,0.09528048336506,-0.03154277801514,9.76092910766602,0.06095182895660,-1.03109049797058,-0.89736646413803
480,1024514189,-0.27736762166023,-0.80986499786377,40.14624404907227,0.08338185399771,-0.05809689685702,9.76386260986328,0.09228896349669,-1.07264709472656,-0.88767218589783
481,1024530856,-0.28010797500610,-0.80821973085403,40.14855194091797,0.06292241811752,-0.04807986319065,9.75768661499023,0.00615345127881,-1.02633941173553,-0.82018274068832
482,1024547523,-0.28145205974579,-0.80536299943924,40.14643859863281,0.05546326935291,-0.04378242045641,9.75440692901611,0.08807566761971,-0.95245945453644,-0.86321198940277
483,1024564190,-0.28314512968063,-0.80269563198090,40.14116668701172,0.03359729424119,-0.04185832664371,9.77270793914795,0.06689396500587,-0.96333199739456,-0.90355199575424
484,1024580857,-0.28424793481827,-0.80069774389267,40.14655303955078,0.02893872931600,-0.07951798290014,9.77217960357666,0.10198336839676,-1.00315976142883,-0.90899479389191
485,1024597524,-0.28571492433548,-0.79818439483643,40.14612579345703,0.01118445955217,-0.05683487281203,9.78374099731445,0.08066079020500,-0.97329545021057,-0.83695906400681
486,1024614191,-0.28619012236595,-0.79621636867523,40.14557266235352,0.00020353397122,-0.06320910900831,9.76186943054199,0.13924984633923,-1.00542652606964,-0.95292049646378
487,1024630858,-0.28648459911346,-0.79560142755508,40.15119171142578,0.00395047478378,-0.05734672024846,9.74677467346191,0.15130062401295,-1.08741271495819,-0.83845728635788
488,1024647525,-0.28688305616379,-0.79346537590027,40.16236114501953,-0.00391755625606,-0.04152636229992,9.76177787780762,0.14414186775684,-0.99632132053375,-0.90072178840637
489,1024664192,-0.28698936104774,-0.79126220941544,40.15689468383789,-0.00533234328032,-0.06068038940430,9.79080677032471,0.16231407225132,-0.99300426244736,-0.85269796848297
490,1024680859,-0.28737720847130,-0.78997784852982,40.15496444702148,-0.00226158113219,-0.04666661471128,9.76718807220459,0.14383450150490,-1.04903209209442,-0.89518940448761
491,1024697526,-0.28596132993698,-0.78806561231613,40.14041519165039,0.01066459063441,-0.06413882225752,9.77463054656982,0.25276532769203,-1.01106131076813,-0.92596310377121
492,1024714193,-0.28548055887222,-0.78607273101807,40.13214874267578,0.01720244251192,-0.03826421126723,9.75847339630127,0.19625090062618,-1.00642549991608,-0.91770297288895
493,1024730860,-0.28517460823059,-0.78385025262833,40.13481521606445,0.04275269806385,-0.07528311759233,9.76556682586670,0.18439224362373,-0.99233847856522,-0.98701101541519
494,1024747527,-0.28362706303596,-0.78308421373367,40.14221572875977,0.05194310471416,-0.03597088158131,9.76616668701172,0.25991126894951,-1.08097112178802,-0.88048779964447
495,1024764194,-0.28211084008217,-0.78226351737976,40.13874053955078,0.05435049533844,-0.04921387881041,9.76207160949707,0.25921967625618,-1.07616877555847,-0.88545662164688
496,1024780861,-0.28165799379349,-0.78100556135178,40.13188171386719,0.08713226020336,-0.05195496603847,9.76422786712646,0.19403541088104,-1.04950594902039,-0.91876590251923
497,1024797528,-0.28090459108353,-0.78007471561432,40.12413024902344,0.09361802041531,-0.06110932677984,9.76029777526855,0.21213077008724,-1.06862580776215,-0.89191097021103
498,1024814195,-0.28026071190834,-0.77861022949219,40.12658309936523,0.09276013076305,-0.06101942807436,9.75901412963867,0.20484398305416,-1.03518843650818,-0.94860476255417
499,1024830862,-0.27916741371155,-0.77771687507629,40.12292861938477,0.11501903831959,-0.04754612594843,9.76137638092041,0.23151959478855,-1.06831848621368,-0.97332096099854
500,1024847529,-0.27956357598305,-0.77542746067047,40.11831665039062,0.11994484066963,-0.07734701782465,9.75359630584717,0.14373207092285,-0.98415523767471,-0.88445782661438
501,1024864196,-0.27898025512695,-0.77554166316986,40.11600875854492,0.10227616876364,-0.04080054908991,9.75452804565430,0.20203940570354,-1.12738144397736,-0.84856158494949
502,1024880863,-0.28044572472572,-0.77389383316040,40.11128234863281,0.11254289746284,-0.05868399143219,9.76051998138428,0.07944418489933,-1.02023065090179,-0.92698764801025
503,1024897530,-0.28096804022789,-0.77230054140091,40.11090087890625,0.10801904648542,-0.04833199828863,9.75665760040283,0.13598421216011,-1.02206194400787,-0.83489722013474
504,1024914197,-0.28180462121964,-0.76935070753098,40.10859298706055,0.12416513264179,-0.05630846694112,9.75674915313721,0.11692836880684,-0.93987077474594,-0.88383018970490
505,1024930864,-0.28338780999184,-0.76746469736099,40.10998153686523,0.09490726888180,-0.04435047879815,9.77693176269531,0.07315626740456,-1.00281393527985,-0.79987180233002
506,1024947531,-0.28592914342880,-0.76527243852615,40.10232925415039,0.08982595801353,-0.04925868287683,9.75232505798340,0.01383726019412,-0.98307949304581,-0.89032310247421
507,1024964198,-0.28781121969223,-0.76324838399887,40.09890747070312,0.05097314715385,-0.05841526761651,9.75803375244141,0.05454865098000,-0.99309402704239,-0.77635931968689
508,1024980865,-0.29042860865593,-0.76087331771851,40.09898757934570,0.03949627280235,-0.04625020548701,9.76719284057617,0.00948310177773,-0.97014504671097,-0.88192206621170
509,1024997532,-0.29110881686211,-0.75829231739044,40.09972763061523,0.03632118925452,-0.07557161897421,9.76351833343506,0.12657156586647,-0.95936208963394,-0.83914893865585
510,1025014199,-0.29295486211777,-0.75715851783752,40.09535598754883,0.01126523315907,-0.04273783415556,9.78705883026123,0.05620066449046,-1.04515171051025,-0.86491519212723
511,1025030866,-0.29460987448692,-0.75542968511581,40.09863281250000,-0.00050273025408,-0.07260502874851,9.76252460479736,0.06697080284357,-1.01029300689697,-0.83401358127594
512,1025047533,-0.29617652297020,-0.75431990623474,40.09762954711914,-0.01540362089872,-0.04612548649311,9.76715660095215,0.07292576134205,-1.04709851741791,-0.84232491254807
513,1025064200,-0.29786553978920,-0.75221347808838,40.09289932250977,0.00992302317172,-0.06604440510273,9.76160717010498,0.06460163742304,-0.98830449581146,-0.90910995006561
514,1025080867,-0.29739007353783,-0.75172537565231,40.08804702758789,0.00228690588847,-0.04959436133504,9.76267147064209,0.19441960752010,-1.08504366874695,-0.91315680742264
515,1025097534,-0.29764023423195,-0.75083911418915,40.08086395263672,0.01122719328851,-0.05837897211313,9.76765632629395,0.15100607275963,-1.06196653842926,-0.86885958909988
516,1025114201,-0.29873436689377,-0.74852436780930,40.08260345458984,0.00269882380962,-0.06327364593744,9.76774120330811,0.09939648211002,-0.97649687528610,-1.01250839233398
517,1025130868,-0.29882872104645,-0.74727880954742,40.08018112182617,0.02541248686612,-0.05179490521550,9.77277374267578,0.15944546461105,-1.04005491733551,-1.01649129390717
518,1025147535,-0.29692670702934,-0.74618142843246,40.08946609497070,0.03218133375049,-0.08116234093904,9.77676296234131,0.27909514307976,-1.04960846900940,-0.90709930658340
519,1025164202,-0.29590713977814,-0.74576705694199,40.09219741821289,0.04059084504843,-0.03886244073510,9.78748607635498,0.22656351327896,-1.09044790267944,-0.91900932788849
520,1025180869,-0.29407951235771,-0.74571567773819,40.10105895996094,0.05800089985132,-0.05753336101770,9.77215290069580,0.27394703030586,-1.11224436759949,-0.94311094284058
521,1025197536,-0.29263761639595,-0.74449235200882,40.09681320190430,0.08362113684416,-0.04177224263549,9.76795387268066,0.25197133421898,-1.04205274581909,-0.94139486551285
522,1025214203,-0.29163748025894,-0.74377185106277,40.08657455444336,0.11216808110476,-0.06510719656944,9.77232170104980,0.22382298111916,-1.07009863853455,-0.98831731081009
523,1025230870,-0.29080510139465,-0.74247306585312,40.08482742309570,0.10820065438747,-0.05159699916840,9.77466201782227,0.21467924118042,-1.03471457958221,-0.93775779008865
524,1025247537,-0.29001122713089,-0.74142557382584,40.08134460449219,0.10750336199999,-0.06073880195618,9.77275848388672,0.21229724586010,-1.04905772209167,-0.94896334409714
525,1025264204,-0.28859683871269,-0.73934018611908,40.08546447753906,0.11490703374147,-0.05204787477851,9.77176380157471,0.24985830485821,-0.98653703927994,-0.89910829067230
526,1025280871,-0.28871759772301,-0.73839026689529,40.08079910278320,0.11133261024952,-0.04262022301555,9.73440361022949,0.15801113843918,-1.05206716060638,-0.95039755105972
527,1025297538,-0.28817316889763,-0.73743414878845,40.07896423339844,0.11693014204502,-0.04591073468328,9.76935672760010,0.19796694815159,-1.05200326442719,-0.83161872625351
528,1025314205,-0.28848880529404,-0.73703312873840,40.07928848266602,0.10443725436926,-0.03763611242175,9.75017166137695,0.14581951498985,-1.08430087566376,-0.88313871622086
529,1025330872,-0.28952056169510,-0.73499965667725,40.07476425170898,0.10307329148054,-0.06745809316635,9.74910926818848,0.10216266661882,-0.98444980382919,-0.96080923080444
530,1025347539,-0.29150238633156,-0.73406744003296,40.07192611694336,0.09749770909548,-0.05424330383539,9.77130031585693,0.04559700936079,-1.05091464519501,-0.88130742311478
531,1025364206,-0.29314777255058,-0.73326003551483,40.06364440917969,0.08699721097946,-0.06515616178513,9.77659988403320,0.06581823527813,-1.05695915222168,-0.88124340772629
532,1025380873,-0.29448640346527,-0.73130315542221,40.06288909912109,0.07548317313194,-0.05426736548543,9.75905704498291,0.08592420816422,-0.98753595352173,-0.77571904659271
533,1025397540,-0.29646277427673,-0.72938841581345,40.06243515014648,0.05061899870634,-0.06532210856676,9.76384449005127,0.04774847626686,-0.98938024044037,-0.84190219640732
534,1025414207,-0.29688224196434,-0.72854477167130,40.06573486328125,0.04341914504766,-0.04506266862154,9.77679157257080,0.14074818789959,-1.05416750907898,-0.80823439359665
535,1025430874,-0.29757148027420,-0.72785258293152,40.06579208374023,0.03039418347180,-0.05834769830108,9.75384426116943,0.12242230027914,-1.06163346767426,-0.90891784429550
536,1025447541,-0.29788580536842,-0.72701728343964,40.06921768188477,0.02123825065792,-0.05872745811939,9.75861358642578,0.14514076709747,-1.05388569831848,-0.87623602151871
537,1025464208,-0.29960060119629,-0.72564101219177,40.06932067871094,0.00389771955088,-0.03528201952577,9.76848506927490,0.06201473623514,-1.02105021476746,-0.87649214267731
538,1025480875,-0.29975375533104,-0.72526156902313,40.06077575683594,-0.00740109104663,-0.05916848778725,9.77534675598145,0.15514251589775,-1.08209800720215,-0.87924551963806
539,1025497542,-0.29950046539307,-0.72451192140579,40.05154800415039,0.00177736906335,-0.04490069672465,9.77294921875000,0.17918005585670,-1.05967426300049,-0.86830890178680
540,1025514209,-0.29897168278694,-0.72387826442719,40.05204010009766,0.00019804894691,-0.06445857882500,9.77348613739014,0.19548252224922,-1.06726825237274,-0.90748351812363
541,1025530876,-0.29850918054581,-0.72341614961624,40.04582214355469,0.02873080596328,-0.04931825771928,9.75862121582031,0.19261391460896,-1.07764148712158,-0.86097085475922
542,1025547543,-0.29875296354294,-0.72336810827255,40.05109024047852,0.02449620515108,-0.07102195173502,9.76910495758057,0.14727944135666,-1.10229396820068,-0.99301719665527
543,1025564210,-0.29720118641853,-0.72233277559280,40.05291366577148,0.02172378264368,-0.05661269649863,9.76199340820312,0.25781103968620,-1.04381990432739,-0.83133697509766
544,1025580877,-0.29587963223457,-0.72118788957596,40.04464721679688,0.03742329031229,-0.05952178686857,9.76838302612305,0.24328865110874,-1.03658437728882,-0.96133428812027
545,1025597544,-0.29399853944778,-0.72003716230392,40.06026840209961,0.04804859310389,-0.06318026781082,9.77100467681885,0.27448490262032,-1.03635382652283,-0.92271023988724
546,1025614211,-0.29280513525009,-0.71895343065262,40.06200027465820,0.05441765114665,-0.03892995044589,9.76121330261230,0.23500290513039,-1.04032373428345,-0.94499331712723
547,1025630878,-0.29234302043915,-0.71957403421402,40.05316162109375,0.07324266433716,-0.07840970158577,9.77044296264648,0.19052647054195,-1.14189100265503,-0.96316564083099
548,1025647545,-0.29247501492500,-0.72034829854965,40.04747772216797,0.09145494550467,-0.03490833938122,9.77845764160156,0.15529619157314,-1.15049684047699,-0.91811275482178
549,1025664212,-0.29205092787743,-0.71943312883377,40.04671096801758,0.10620987415314,-0.06526899337769,9.76543998718262,0.18896409869194,-1.04941630363464,-0.94113862514496
550,1025680879,-0.29221647977829,-0.71853423118591,40.04460906982422,0.12299089133739,-0.04342337325215,9.75399684906006,0.15365698933601,-1.04901945590973,-0.89946675300598
551,1025697546,-0.29228067398071,-0.71724528074265,40.04344558715820,0.12881839275360,-0.05058514326811,9.77512931823730,0.15892040729523,-1.02408540248871,-0.91343843936920
552,1025714213,-0.29252585768700,-0.71607983112335,40.04981231689453,0.11686253547668,-0.06181634962559,9.75478363037109,0.14852163195610,-1.03112876415253,-0.88610965013504
553,1025730880,-0.29318511486053,-0.71338850259781,40.05388259887695,0.09938595443964,-0.04951310530305,9.76049137115479,0.12334436178207,-0.93876951932907,-0.87033236026764
554,1025747547,-0.29386469721794,-0.71123689413071,40.05548095703125,0.08603191375732,-0.05148139595985,9.76322269439697,0.12336997687817,-0.97042679786682,-0.82871168851852
555,1025764214,-0.29363712668419,-0.70847970247269,40.05546569824219,0.09768169373274,-0.03282284736633,9.78146743774414,0.17684930562973,-0.93319875001907,-0.86668258905411
556,1025780881,-0.29504913091660,-0.70728880167007,40.05813598632812,0.07424689829350,-0.06324587762356,9.77301120758057,0.07774093747139,-1.02610874176025,-0.91988009214401
557,1025797548,-0.29584029316902,-0.70550030469894,40.05575942993164,0.07014718651772,-0.03899990394711,9.77419853210449,0.11481532454491,-0.99014854431152,-0.89872395992279
558,1025814215,-0.29646074771881,-0.70395457744598,40.05048370361328,0.05998786911368,-0.06652259081602,9.77276611328125,0.12609770894051,-1.00422263145447,-0.83601129055023
559,1025830882,-0.29729363322258,-0.70219480991364,40.05363082885742,0.05040767043829,-0.04097425937653,9.78781032562256,0.11254861950874,-0.99069923162460,-0.92579662799835
560,1025847549,-0.29924055933952,-0.70191913843155,40.04685211181641,0.03446188196540,-0.05724643170834,9.80086421966553,0.04505914077163,-1.07981860637665,-0.92392694950104
561,1025864216,-0.30122700333595,-0.70072108507156,40.05549621582031,0.02847632579505,-0.05535364523530,9.75495052337646,0.04385534301400,-1.02526342868805,-0.84203028678894
562,1025880883,-0.30285966396332,-0.69955170154572,40.05358886718750,0.02251695469022,-0.04347633942962,9.76249694824219,0.06460163742304,-1.02633929252625,-0.85122531652451
563,1025897550,-0.30301102995872,-0.69798880815506,40.05093383789062,-0.00751196779311,-0.06375711411238,9.77162075042725,0.15291419625282,-1.00272417068481,-0.86897480487823
564,1025914217,-0.30355814099312,-0.69722974300385,40.04404067993164,-0.02033878117800,-0.04172791540623,9.76508426666260,0.12892793118954,-1.05152940750122,-0.93148261308670
565,1025930884,-0.30483165383339,-0.69661241769791,40.04376602172852,0.01252321526408,-0.06923007965088,9.77224636077881,0.08550159633160,-1.06071162223816,-0.87818264961243
566,1025947551,-0.30404016375542,-0.69720011949539,40.04460144042969,-0.00004750746302,-0.03693372383714,9.77460765838623,0.21113190054893,-1.13327229022980,-0.83277130126953
567,1025964218,-0.30231899023056,-0.69611215591431,40.04254531860352,0.01225759088993,-0.07927408069372,9.77935409545898,0.26504662632942,-1.03272974491119,-0.89562481641769
568,1025980885,-0.30114144086838,-0.69530141353607,40.04131698608398,0.01938414759934,-0.03363510221243,9.76668930053711,0.23146839439869,-1.04991590976715,-0.94615876674652
569,1025997552,-0.29971274733543,-0.69465452432632,40.03966522216797,0.04449403285980,-0.05839912220836,9.75290775299072,0.24664387106895,-1.05903387069702,-0.96965837478638
570,1026014219,-0.29877677559853,-0.69320225715637,40.03570556640625,0.05448462814093,-0.05842016264796,9.76549816131592,0.21695879101753,-1.01148402690887,-0.94709366559982
571,1026030886,-0.29818484187126,-0.69206058979034,40.03921508789062,0.05827875062823,-0.06790602952242,9.76201152801514,0.19682718813419,-1.02954077720642,-0.94763147830963
572,1026047553,-0.29705584049225,-0.69103044271469,40.03449630737305,0.07752031832933,-0.05345422029495,9.78006172180176,0.23086647689342,-1.03591847419739,-0.80777335166931
573,1026064220,-0.29636538028717,-0.68911612033844,40.02477264404297,0.10081917792559,-0.04640597477555,9.74744415283203,0.20189850032330,-0.98247748613358,-0.97180980443954
574,1026080887,-0.29571169614792,-0.68758368492126,40.02403640747070,0.09377316385508,-0.05819724127650,9.76542854309082,0.20166800916195,-1.00502955913544,-0.86097097396851
575,1026097554,-0.29638409614563,-0.68637657165527,40.02239608764648,0.10709520429373,-0.02468677610159,9.75764274597168,0.12030926346779,-1.02321469783783,-0.95845293998718
576,1026114221,-0.29577919840813,-0.68415397405624,40.02485275268555,0.12798252701759,-0.06409811973572,9.75516128540039,0.19869694113731,-0.96184664964676,-0.82005459070206
577,1026130888,-0.29584228992462,-0.68270897865295,40.02244186401367,0.11723377555609,-0.04126384109259,9.77796077728271,0.15671770274639,-1.00743710994720,-0.90576750040054
578,1026147555,-0.29607376456261,-0.68189281225204,40.02378845214844,0.11127805709839,-0.06073803454638,9.77466392517090,0.14775323867798,-1.04435777664185,-0.89873677492142
579,1026164222,-0.29657405614853,-0.67933565378189,40.02260208129883,0.11005160957575,-0.04914936423302,9.75449275970459,0.13250090181828,-0.93993490934372,-0.77501469850540
580,1026180889,-0.29798486828804,-0.67807936668396,40.02915573120117,0.10010334104300,-0.04894382134080,9.75292205810547,0.07565351575613,-1.01591503620148,-0.88704466819763
581,1026197556,-0.29801836609840,-0.67635494470596,40.03157424926758,0.07525812834501,-0.06396643817425,9.75833606719971,0.15908686816692,-0.98742073774338,-0.89890325069427
582,1026214223,-0.29935580492020,-0.67443132400513,40.03164291381836,0.06232380121946,-0.04201277345419,9.75183582305908,0.08016134798527,-0.97540843486786,-0.90369284152985
583,1026230890,-0.30095890164375,-0.67199993133545,40.02856826782227,0.06450912356377,-0.06201446428895,9.77228260040283,0.06642013043165,-0.94458347558975,-0.79891127347946
584,1026247557,-0.30286416411400,-0.66916018724442,40.02625274658203,0.03965131193399,-0.03552222624421,9.77322006225586,0.04572507366538,-0.91993141174316,-0.93689972162247
585,1026264224,-0.30374142527580,-0.66802358627319,40.02595901489258,0.04678740724921,-0.06621934473515,9.76623439788818,0.10870671272278,-1.02131927013397,-0.85449093580246
586,1026280891,-0.30415672063828,-0.66541397571564,40.02537155151367,0.02230148948729,-0.05828063189983,9.75119590759277,0.13612510263920,-0.93404394388199,-0.84158211946487
587,1026297558,-0.30465137958527,-0.66329085826874,40.02993774414062,0.01717404276133,-0.06732343137264,9.76225090026855,0.13205267488956,-0.96284550428391,-0.81033468246460
588,1026314225,-0.30511596798897,-0.66126883029938,40.03042221069336,0.01100563164800,-0.06088854372501,9.76542377471924,0.13305155932903,-0.96878761053085,-0.88795381784439
589,1026330892,-0.30619654059410,-0.65956360101700,40.03040695190430,0.00952295586467,-0.06112506240606,9.77270412445068,0.09570825099945,-0.98762559890747,-0.90667665004730
590,1026347559,-0.30597898364067,-0.65791529417038,40.02881622314453,0.00069385243114,-0.07724636048079,9.78753089904785,0.17405751347542,-0.99185180664062,-0.87399500608444
591,1026364226,-0.30536580085754,-0.65654915571213,40.03604125976562,0.00659261690453,-0.05432691797614,9.76187992095947,0.19668634235859,-1.00892269611359,-0.92205721139908
592,1026380893,-0.30405226349831,-0.65512645244598,40.03712844848633,0.00583169795573,-0.06821054220200,9.76033210754395,0.23984372615814,-1.00572109222412,-0.87066525220871
593,1026397560,-0.30274668335915,-0.65417200326920,40.03414535522461,0.01993012800813,-0.04700435325503,9.77254676818848,0.23778188228607,-1.03324198722839,-1.00056004524231
594,1026414227,-0.30134925246239,-0.65340906381607,40.02938842773438,0.03009438887239,-0.06285636872053,9.76727581024170,0.24346791207790,-1.04475486278534,-1.02983546257019
595,1026430894,-0.30012586712837,-0.65263557434082,40.03357696533203,0.04563923925161,-0.03803607821465,9.76387214660645,0.23242880403996,-1.04495978355408,-0.97849470376968
596,1026447561,-0.29937142133713,-0.65223610401154,40.02884292602539,0.05314595252275,-0.06155525892973,9.77260494232178,0.20531782507896,-1.06717872619629,-0.99642378091812
597,1026464228,-0.29856854677200,-0.65146929025650,40.02859115600586,0.06774541735649,-0.05360702052712,9.77004909515381,0.20855781435966,-1.04461407661438,-0.93181574344635
598,1026480895,-0.29881086945534,-0.65056407451630,40.02392578125000,0.08753062784672,-0.05491462722421,9.77735614776611,0.14689524471760,-1.03719913959503,-0.87683802843094
599,1026497562,-0.29812300205231,-0.64958894252777,40.02310180664062,0.08670213818550,-0.06902603060007,9.77022647857666,0.20107889175415,-1.03119277954102,-0.92974096536636
600,1026514229,-0.29723885655403,-0.64870196580887,40.02563476562500,0.09742119908333,-0.01610893197358,9.77501583099365,0.21380840241909,-1.03677642345428,-0.86725878715515
601,1026530896,-0.29768535494804,-0.64745444059372,40.02576065063477,0.11245157569647,-0.06464426964521,9.77299785614014,0.13337172567844,-1.01409649848938,-0.91477042436600
602,1026547563,-0.29764267802238,-0.64593321084976,40.02579116821289,0.10266056656837,-0.03668302670121,9.76385498046875,0.16176339983940,-0.99656450748444,-0.94156122207642
603,1026564230,-0.29855927824974,-0.64445251226425,40.02786636352539,0.11571274697781,-0.03829790651798,9.76581192016602,0.10541547089815,-0.99917709827423,-0.86458230018616
604,1026580897,-0.29956117272377,-0.64286243915558,40.03613281250000,0.10869680345058,-0.03961349278688,9.76204299926758,0.09920439124107,-0.99141639471054,-0.86249476671219
605,1026597564,-0.30120512843132,-0.64205169677734,40.04537963867188,0.10427626222372,-0.07188673317432,9.77587795257568,0.06197632849216,-1.03833889961243,-0.81386911869049
606,1026614231,-0.30197206139565,-0.64040702581406,40.04410934448242,0.10214888304472,-0.04753856733441,9.76457309722900,0.11361152678728,-0.98643469810486,-0.88126903772354
607,1026630898,-0.30250701308250,-0.63926863670349,40.05656814575195,0.07803960144520,-0.05236981064081,9.77244758605957,0.12668681144714,-1.01679849624634,-0.88206291198730
608,1026647565,-0.30393508076668,-0.63771420717239,40.06076049804688,0.06186829134822,-0.06865876168013,9.73190879821777,0.07415517419577,-0.99069929122925,-0.83799630403519
609,1026664232,-0.30390954017639,-0.63634121417999,40.06677627563477,0.05455602705479,-0.03228278458118,9.77877902984619,0.16192989051342,-1.00264739990234,-0.83683085441589
610,1026680899,-0.30637401342392,-0.63443356752396,40.06826782226562,0.03616462647915,-0.05246277526021,9.75371074676514,0.01137844193727,-0.96949201822281,-0.84656381607056
611,1026697566,-0.30668121576309,-0.63314789533615,40.06611633300781,0.02473835833371,-0.04504073783755,9.77462005615234,0.14165744185448,-1.00679683685303,-0.83662605285645
612,1026714233,-0.30849662423134,-0.63130301237106,40.06804275512695,0.01063414849341,-0.04858494549990,9.76203346252441,0.04975906759501,-0.97287273406982,-0.95247232913971
613,1026730900,-0.30859658122063,-0.62998378276825,40.07370376586914,0.01942621357739,-0.04708515107632,9.78328514099121,0.15484797954559,-1.00543940067291,-0.69339984655380
614,1026747567,-0.31069570779800,-0.62869232892990,40.07332229614258,0.00150945945643,-0.07905800640583,9.77256965637207,0.03104899637401,-1.00622045993805,-1.04033660888672
615,1026764234,-0.31050023436546,-0.62749087810516,40.08087539672852,0.00919572450221,-0.05204309150577,9.77432918548584,0.17222619056702,-1.01373779773712,-0.73623704910278
616,1026780901,-0.31123918294907,-0.62650603055954,40.08252716064453,0.00653661321849,-0.05350251868367,9.77462959289551,0.11320174485445,-1.02502024173737,-1.02545571327209
617,1026797568,-0.31055516004562,-0.62639766931534,40.08560180664062,-0.00833920855075,-0.06276637315750,9.75207233428955,0.19922198355198,-1.07912707328796,-0.90307825803757
618,1026814235,-0.31037089228630,-0.62511730194092,40.08406448364258,0.00258302013390,-0.04838331043720,9.79009819030762,0.16958807408810,-1.00796210765839,-0.95500785112381
619,1026830902,-0.30915409326553,-0.62551712989807,40.08164596557617,0.02584856189787,-0.03624144196510,9.77762985229492,0.23208308219910,-1.10995197296143,-0.93219989538193
620,1026847569,-0.30832326412201,-0.62339073419571,40.09395599365234,0.02506959624588,-0.07799923419952,9.78002166748047,0.20818641781807,-0.95870894193649,-0.84372067451477
621,1026864236,-0.30704173445702,-0.62208795547485,40.09210586547852,0.04634345695376,-0.06334538012743,9.76211071014404,0.23285147547722,-1.00725781917572,-1.08987164497375
622,1026880903,-0.30606865882874,-0.62103664875031,40.09603118896484,0.05861333012581,-0.05486779287457,9.74776077270508,0.21736860275269,-1.02298414707184,-0.88171714544296
623,1026897570,-0.30565300583839,-0.61984241008759,40.09826660156250,0.07818006724119,-0.04109500721097,9.76268196105957,0.18163888156414,-1.01296949386597,-1.01564610004425
624,1026914237,-0.30482462048531,-0.61868965625763,40.09872817993164,0.09009611606598,-0.08426952362061,9.78154468536377,0.20759733021259,-1.01656806468964,-0.95362496376038
625,1026930904,-0.30351805686951,-0.61763787269592,40.10433578491211,0.10162536054850,-0.02391716092825,9.76424789428711,0.23723122477531,-1.02126801013947,-0.87130570411682
626,1026947571,-0.30352821946144,-0.61648482084274,40.10437393188477,0.09421541541815,-0.05756873637438,9.76019096374512,0.15740925073624,-1.01505696773529,-0.95886272192001
627,1026964238,-0.30290982127190,-0.61634540557861,40.10960769653320,0.11843088269234,-0.04166247695684,9.74151515960693,0.19585393369198,-1.07481133937836,-0.84932994842529
628,1026980905,-0.30258476734161,-0.61537611484528,40.10970306396484,0.11205104738474,-0.06095711141825,9.76370429992676,0.17718227207661,-1.02444398403168,-0.91521865129471
629,1026997572,-0.30358463525772,-0.61479139328003,40.10512161254883,0.11330208927393,-0.04144079238176,9.75195407867432,0.09873054921627,-1.04680383205414,-0.92563021183014
630,1027014239,-0.30365741252899,-0.61306762695312,40.10720825195312,0.10458518564701,-0.06042648851871,9.77179241180420,0.15413083136082,-0.97822588682175,-0.83936667442322
631,1027030906,-0.30500060319901,-0.61299091577530,40.10681533813477,0.09161860495806,-0.03498398140073,9.76148128509521,0.07757446914911,-1.07538771629333,-0.94720894098282
632,1027047573,-0.30513295531273,-0.61141967773438,40.11019897460938,0.09155003726482,-0.05281002447009,9.76288509368896,0.15150551497936,-0.98681879043579,-0.78782093524933
633,1027064240,-0.30713045597076,-0.61055201292038,40.10771942138672,0.08231244236231,-0.02936749532819,9.76969528198242,0.03822055086493,-1.02718460559845,-0.86731010675430
634,1027080907,-0.30866512656212,-0.60902482271194,40.10815048217773,0.06251409649849,-0.10978972911835,9.79716682434082,0.06606155633926,-0.98785626888275,-0.87883579730988
635,1027097574,-0.30950093269348,-0.60849082469940,40.10613250732422,0.05757644400001,0.00009691614832,9.75923061370850,0.10938543826342,-1.04730331897736,-0.78052145242691
636,1027114241,-0.31166228652000,-0.60809808969498,40.10720825195312,0.04215951636434,-0.05743276700377,9.77087688446045,0.02784740738571,-1.05569148063660,-0.88827389478683
637,1027130908,-0.31214052438736,-0.60830527544022,40.11220932006836,0.02901836112142,-0.05898692831397,9.77778339385986,0.13066957890987,-1.09189498424530,-0.72745180130005
638,1027147575,-0.31316512823105,-0.60743194818497,40.11140060424805,0.01815335266292,-0.05361799523234,9.77458381652832,0.09614367038012,-1.02601921558380,-0.94243216514587
639,1027164242,-0.31407099962234,-0.60685229301453,40.11117935180664,-0.00249041523784,-0.05736155807972,9.77556705474854,0.10380186885595,-1.04487001895905,-0.80242031812668
640,1027180909,-0.31505218148232,-0.60479909181595,40.11170196533203,-0.01267230324447,-0.08912108838558,9.76832199096680,0.09903790801764,-0.95582759380341,-0.90243792533875
641,1027197576,-0.31514173746109,-0.60489463806152,40.10942840576172,0.00942294392735,-0.03354001045227,9.76509380340576,0.15119817852974,-1.08551752567291,-0.97174584865570
642,1027214243,-0.31370651721954,-0.60460412502289,40.11820602416992,0.01018510945141,-0.06097757816315,9.78624248504639,0.24436438083649,-1.06281185150146,-0.80098593235016
643,1027230910,-0.31324300169945,-0.60374635457993,40.11995315551758,0.01650792919099,-0.06947792321444,9.75332546234131,0.18352138996124,-1.02878534793854,-1.00634860992432
644,1027247577,-0.31256562471390,-0.60363107919693,40.12088775634766,0.02184116840363,-0.03658339008689,9.78222179412842,0.19969581067562,-1.07411980628967,-0.80315023660660
645,1027264244,-0.31118130683899,-0.60350912809372,40.11613464355469,0.03482328355312,-0.05844945088029,9.77587032318115,0.23879358172417,-1.07254445552826,-1.03677654266357
646,1027280911,-0.30964127182961,-0.60394173860550,40.11543273925781,0.03913770243526,-0.02717030979693,9.75540351867676,0.25125420093536,-1.10721147060394,-0.82096379995346
647,1027297578,-0.30730566382408,-0.60270100831985,40.12096786499023,0.04405912756920,-0.11140797287226,9.76825904846191,0.29524400830269,-1.00600278377533,-0.99291461706161
648,1027314245,-0.30688145756721,-0.60209530591965,40.11672210693359,0.06449842453003,-0.01091015152633,9.77519130706787,0.18243286013603,-1.04344868659973,-0.97058045864105
649,1027330912,-0.30738303065300,-0.60094994306564,40.11330795288086,0.07048843801022,-0.08331144601107,9.77515792846680,0.12672524154186,-1.01174008846283,-0.96311444044113
650,1027347579,-0.30607309937477,-0.60004127025604,40.11547470092773,0.09490261226892,-0.03655722364783,9.75668144226074,0.23557923734188,-1.02482807636261,-0.91001921892166
651,1027364246,-0.30569154024124,-0.59968799352646,40.12012481689453,0.11011815816164,-0.03851927444339,9.74970436096191,0.17965388298035,-1.05871379375458,-0.91972649097443
652,1027380913,-0.30396714806557,-0.59995049238205,40.12146759033203,0.12180029600859,-0.03913388773799,9.75365924835205,0.26124313473701,-1.09491717815399,-0.81981122493744
653,1027397580,-0.30457663536072,-0.59859436750412,40.12163925170898,0.11630745977163,-0.05644601583481,9.77573394775391,0.11961771547794,-0.99667978286743,-0.95443165302277
654,1027414247,-0.30435088276863,-0.59856712818146,40.12808609008789,0.11080176383257,-0.08469311147928,9.75628948211670,0.17179077863693,-1.07694995403290,-0.81458634138107
655,1027430914,-0.30484545230865,-0.59787148237228,40.13313293457031,0.10677403956652,-0.01175479032099,9.77852630615234,0.12672522664070,-1.03511154651642,-0.90750908851624
656,1027447581,-0.30542582273483,-0.59651446342468,40.13766860961914,0.09810729324818,-0.08525646477938,9.75622844696045,0.12255037575960,-0.99506628513336,-0.85645031929016
657,1027464248,-0.30462709069252,-0.59644013643265,40.14289093017578,0.07900039106607,-0.01572976075113,9.79089641571045,0.20486956834793,-1.07233965396881,-0.86100929975510
658,1027480915,-0.30544275045395,-0.59613376855850,40.14205169677734,0.06082357093692,-0.05472212284803,9.75581264495850,0.10750290751457,-1.05679285526276,-0.91194021701813
659,1027497582,-0.30574631690979,-0.59524488449097,40.15139770507812,0.06343993544579,-0.05711902678013,9.76445198059082,0.14014628529549,-1.02256155014038,-0.74540638923645
660,1027514249,-0.30753397941589,-0.59353744983673,40.14046478271484,0.05353258177638,-0.07853502035141,9.76794433593750,0.04827352985740,-0.97141265869141,-0.99167239665985
661,1027530916,-0.30780738592148,-0.59328711032867,40.14679718017578,0.04887961596251,-0.04444799199700,9.75476360321045,0.14199040830135,-1.06069886684418,-0.76076126098633
662,1027547583,-0.31054121255875,-0.59212428331375,40.14310836791992,0.04123945534229,-0.02006300725043,9.75194454193115,-0.00786309968680,-1.00460696220398,-0.94508296251297
663,1027564250,-0.31111091375351,-0.59212708473206,40.14675140380859,0.01978268846869,-0.09468090534210,9.77247619628906,0.12294736504555,-1.07574629783630,-0.82402467727661
664,1027580917,-0.31233397126198,-0.59146028757095,40.15203094482422,0.00937819201499,-0.00937795452774,9.77017211914062,0.08300436288118,-1.03523969650269,-0.86531227827072
665,1027597584,-0.31365758180618,-0.59073168039322,40.14514923095703,0.00727852666751,-0.08156159520149,9.77647781372070,0.07687011361122,-1.03110325336456,-0.93919199705124
666,1027614251,-0.31320768594742,-0.59067356586456,40.15069961547852,-0.00361057464033,-0.03165134415030,9.77408504486084,0.18390558660030,-1.07282638549805,-0.81623828411102
667,1027630918,-0.31328076124191,-0.58930432796478,40.14640808105469,0.00554312858731,-0.06390473991632,9.74450874328613,0.15139026939869,-0.99285072088242,-0.97049081325531
668,1027647585,-0.31240016222000,-0.58855503797531,40.14320755004883,0.00167267839424,-0.04302292317152,9.76078319549561,0.21059404313564,-1.03184604644775,-0.82786655426025
669,1027664252,-0.31195363402367,-0.58905875682831,40.14405441284180,0.02091212943196,-0.07747986167669,9.77788257598877,0.18258655071259,-1.10667371749878,-0.90829038619995
670,1027680919,-0.30966091156006,-0.58918625116348,40.14374923706055,0.03063401207328,-0.07822670787573,9.78990745544434,0.29337424039841,-1.08392941951752,-0.97860997915268
671,1027697586,-0.30896675586700,-0.58904397487640,40.13939285278320,0.04939036816359,-0.00985458306968,9.77208518981934,0.19824869930744,-1.06871557235718,-0.89229530096054
672,1027714253,-0.30788213014603,-0.58933794498444,40.13621902465820,0.06349615007639,-0.09641849249601,9.78267765045166,0.22119769454002,-1.09417438507080,-0.95713371038437
673,1027730920,-0.30638650059700,-0.58921098709106,40.13605499267578,0.06236578151584,-0.05017994716763,9.76897621154785,0.24720738828182,-1.06968879699707,-0.80218976736069
674,1027747587,-0.30493354797363,-0.58904546499252,40.13862609863281,0.07216800749302,-0.06122021749616,9.77375125885010,0.24337826669216,-1.06641030311584,-0.94248330593109
675,1027764254,-0.30288505554199,-0.58870202302933,40.13482666015625,0.08566933125257,-0.03080897964537,9.76269054412842,0.27896711230278,-1.05544817447662,-0.91653764247894
676,1027780921,-0.30300018191338,-0.58763635158539,40.13981246948242,0.09762420505285,-0.06860914081335,9.75433158874512,0.14902108907700,-1.01154804229736,-0.91138952970505
677,1027797588,-0.30127274990082,-0.58733540773392,40.13911437988281,0.10383456200361,-0.03654943779111,9.76984786987305,0.26038512587547,-1.05710005760193,-0.91386109590530
678,1027814255,-0.30193817615509,-0.58607089519501,40.13613128662109,0.11300586163998,-0.02199821546674,9.75199794769287,0.11646735668182,-0.99911290407181,-0.87930953502655
679,1027830922,-0.30133792757988,-0.58634358644485,40.13196563720703,0.11198442429304,-0.09744879603386,9.76863288879395,0.19197361171246,-1.09014058113098,-0.94030630588531
680,1027847589,-0.30151215195656,-0.58504956960678,40.12898635864258,0.11868378520012,-0.01648808829486,9.74612236022949,0.14542248845100,-0.99566805362701,-0.98082554340363
681,1027864256,-0.30241197347641,-0.58399808406830,40.12947845458984,0.10568263381720,-0.07725375145674,9.77575492858887,0.10179127007723,-1.00952458381653,-0.87028115987778
682,1027880923,-0.30327710509300,-0.58154714107513,40.12714385986328,0.09654355049133,-0.01715511269867,9.74339485168457,0.10442937910557,-0.92528432607651,-0.94796442985535
683,1027897590,-0.30512398481369,-0.58041352033615,40.12480163574219,0.07995589077473,-0.10120049118996,9.75993061065674,0.04554578289390,-1.00309574604034,-0.87286806106567
684,1027914257,-0.30574640631676,-0.57995355129242,40.12623214721680,0.07120303064585,-0.01633097045124,9.77679824829102,0.11966894567013,-1.04448604583740,-0.82447278499603
685,1027930924,-0.30665069818497,-0.57855588197708,40.12565612792969,0.05992509797215,-0.08097926527262,9.77544689178467,0.10181689262390,-0.98747205734253,-0.88311308622360
686,1027947591,-0.30721172690392,-0.57870596647263,40.13227462768555,0.03703840449452,-0.05955057963729,9.75722026824951,0.12281930446625,-1.08089435100555,-0.78622019290924
687,1027964258,-0.30728021264076,-0.57701897621155,40.12559890747070,0.02291124500334,-0.05276169255376,9.77630233764648,0.15182569622993,-0.96941518783569,-0.96725082397461
