sep=,
DeviceTag:,Xsens DOT
FirmwareVersion:,3.0.0
AppVersion:,2023.6.0
StartTime: ,2025-02-06_09:51:01_000 PST
© Movella Technologies B. V. 2005-2025

PacketCounter,SampleTimeFine,Euler_X,Euler_Y,Euler_Z,Acc_X,Acc_Y,Acc_Z,Gyr_X,Gyr_Y,Gyr_Z
0,1179174938,-0.38269394636154,-0.29014664888382,39.90201950073242,0.00000000000000,0.00000000000000,0.00000000000000,0.00000000000000,0.00000000000000,0.00000000000000
1,1179191605,-0.36007350683212,-0.30861750245094,39.85881423950195,0.04389426484704,-0.06042497977614,9.77303028106689,0.10898844897747,-1.04828941822052,-0.91141510009766
2,1179208272,-0.34999489784241,-0.31826460361481,39.82295227050781,0.05239625275135,-0.06733674556017,9.76843452453613,0.18849027156830,-1.02121686935425,-0.89013099670410
3,1179224939,-0.35081908106804,-0.33310419321060,39.81891250610352,0.05345174670219,-0.04306389391422,9.74187660217285,0.12541899085045,-1.06714034080505,-0.86386519670486
4,1179241606,-0.33927872776985,-0.34821411967278,39.82615661621094,0.04193785786629,-0.07557132840157,9.77576351165771,0.20407558977604,-1.02692842483521,-0.86148321628571
5,1179258273,-0.33974793553352,-0.35875397920609,39.81600952148438,0.02463820017874,-0.03480922058225,9.75564002990723,0.14345031976700,-1.05238735675812,-0.86140626668930
6,1179274940,-0.33282041549683,-0.36217528581619,39.83781051635742,0.05147674679756,-0.08108416199684,9.76383876800537,0.10399396717548,-1.01472389698029,-0.93678444623947
7,1179291607,-0.33160519599915,-0.37103006243706,39.82678604125977,0.05064464733005,-0.04681678861380,9.74916934967041,0.20334562659264,-1.10151255130768,-0.86803996562958
8,1179308274,-0.32871767878532,-0.38022142648697,39.82931900024414,0.05291118100286,-0.08197940140963,9.75283527374268,0.14984071254730,-0.99583464860916,-0.94421219825745
9,1179324941,-0.32946544885635,-0.39192023873329,39.83594512939453,0.05019165948033,-0.03761938214302,9.75831317901611,0.14260511100292,-1.06060910224915,-0.91222184896469
10,1179341608,-0.32688942551613,-0.40429380536079,39.84268188476562,0.06796102970839,-0.06368917226791,9.77199840545654,0.16143043339252,-1.07286465167999,-0.93437683582306
11,1179358275,-0.32413884997368,-0.41897764801979,39.83140563964844,0.05825093761086,-0.04946733266115,9.76194190979004,0.20355051755905,-1.10554647445679,-0.79100984334946
12,1179374942,-0.32119008898735,-0.43162682652473,39.81914520263672,0.05038214474916,-0.05441181361675,9.76746845245361,0.17851413786411,-0.96710997819901,-0.89344787597656
13,1179391609,-0.31798607110977,-0.44562327861786,39.81502532958984,0.05955516919494,-0.06120762228966,9.76926994323730,0.18929708003998,-1.06956076622009,-0.91967529058456
14,1179408276,-0.31499305367470,-0.45910060405731,39.82155609130859,0.05427316948771,-0.03961529582739,9.76561641693115,0.19577705860138,-1.02280473709106,-0.91396349668503
15,1179424943,-0.31249213218689,-0.47274300456047,39.83151626586914,0.05543345585465,-0.07118991017342,9.75281715393066,0.12203811109066,-1.04264187812805,-0.92116081714630
16,1179441610,-0.31018921732903,-0.48695909976959,39.82578659057617,0.06108089163899,-0.04606251791120,9.76649856567383,0.15400275588036,-1.08030521869659,-0.95073056221008
17,1179458277,-0.30965259671211,-0.50005221366882,39.84900665283203,0.06253806501627,-0.06586828082800,9.77292060852051,0.02856456488371,-1.00597715377808,-0.90206652879715
18,1179474944,-0.30805709958076,-0.51205515861511,39.83258438110352,0.06359627842903,-0.05559202656150,9.77564907073975,0.11621122807264,-0.93442815542221,-0.85808944702148
19,1179491611,-0.30572897195816,-0.52669781446457,39.84036636352539,0.05974996462464,-0.05435324832797,9.76560115814209,0.15756292641163,-1.08842432498932,-0.86798882484436
20,1179508278,-0.30324333906174,-0.54054963588715,39.85239791870117,0.04842530563474,-0.06492103636265,9.78399372100830,0.16654019057751,-1.04329502582550,-0.84263229370117
21,1179524945,-0.30149614810944,-0.55343121290207,39.85138702392578,0.05923113226891,-0.05256713181734,9.74547100067139,0.13332049548626,-1.00248098373413,-0.93843650817871
22,1179541612,-0.29962930083275,-0.56705129146576,39.84032440185547,0.04942985996604,-0.07972006499767,9.74099445343018,0.13521584868431,-1.04916024208069,-0.90643334388733
23,1179558279,-0.29904931783676,-0.58036553859711,39.83084106445312,0.05690408498049,-0.03628981858492,9.76653766632080,0.08346538245678,-1.04115629196167,-0.93004840612411
24,1179574946,-0.29762014746666,-0.59430313110352,39.82682800292969,0.04111729562283,-0.08647840470076,9.77404499053955,0.11262543499470,-1.08198285102844,-0.83832913637161
25,1179591613,-0.29763948917389,-0.60818219184875,39.81881332397461,0.05097243562341,-0.02483912929893,9.76292228698730,0.05018168315291,-1.09615957736969,-0.89216721057892
26,1179608280,-0.29715672135353,-0.62002724409103,39.81444931030273,0.03531691804528,-0.07790233194828,9.77044868469238,0.05215386301279,-0.97814905643463,-0.90699696540833
27,1179624947,-0.29455485939980,-0.63293415307999,39.80326080322266,0.05150809884071,-0.04180583357811,9.75929641723633,0.19529044628143,-1.05954611301422,-0.85592514276505
28,1179641614,-0.29302418231964,-0.64504867792130,39.79959869384766,0.03843212872744,-0.07804097980261,9.77411460876465,0.11865722388029,-1.01316142082214,-0.90726578235626
29,1179658281,-0.29088523983955,-0.65674489736557,39.81367874145508,0.04657711088657,-0.06022044271231,9.76396846771240,0.16775676608086,-0.99821656942368,-0.91322076320648
30,1179674948,-0.29002287983894,-0.66952717304230,39.80484771728516,0.03472065180540,-0.05444940552115,9.76683425903320,0.09076499938965,-1.06740915775299,-0.96119344234467
31,1179691615,-0.28723078966141,-0.68111819028854,39.80498886108398,0.05013939738274,-0.06487786024809,9.79693412780762,0.20572759211063,-1.00620770454407,-0.86423659324646
32,1179708282,-0.28515321016312,-0.69318509101868,39.81152725219727,0.05081240832806,-0.03415777161717,9.78591823577881,0.16397891938686,-1.03426647186279,-0.87795209884644
33,1179724949,-0.28287571668625,-0.70627862215042,39.81897354125977,0.04194298014045,-0.06861371546984,9.76318836212158,0.16514427959919,-1.09654355049133,-0.86316072940826
34,1179741616,-0.28089976310730,-0.71762037277222,39.82300949096680,0.04311396181583,-0.04616544395685,9.77506065368652,0.15040418505669,-0.99502784013748,-0.93120098114014
35,1179758283,-0.27877315878868,-0.73008418083191,39.84421539306641,0.05342318490148,-0.07314187288284,9.76768684387207,0.15383626520634,-1.06552672386169,-0.96393406391144
36,1179774950,-0.27647635340691,-0.74265623092651,39.83742523193359,0.05482134222984,-0.03795269131660,9.72826957702637,0.17220057547092,-1.07031643390656,-0.90748351812363
37,1179791617,-0.27400323748589,-0.75419390201569,39.84037399291992,0.06006431952119,-0.09775172173977,9.78784275054932,0.17344278097153,-1.00638699531555,-0.92310720682144
38,1179808284,-0.27080392837524,-0.76718145608902,39.84356689453125,0.05865660309792,-0.04781829938293,9.77863693237305,0.23286429047585,-1.09052479267120,-0.92258226871490
39,1179824951,-0.26972794532776,-0.77827692031860,39.86088180541992,0.05809310451150,-0.05279928445816,9.76403045654297,0.10149672627449,-0.97558772563934,-0.86286628246307
40,1179841618,-0.26673182845116,-0.79151570796967,39.88118743896484,0.05173077061772,-0.06716271489859,9.75682640075684,0.21520432829857,-1.10203766822815,-0.87659472227097
41,1179858285,-0.26547080278397,-0.80341356992722,39.88120269775391,0.06278012692928,-0.04366753995419,9.74751853942871,0.11316330730915,-1.02308642864227,-0.87272703647614
42,1179874952,-0.26400575041771,-0.81622320413589,39.87950515747070,0.06689181923866,-0.07262220978737,9.74205017089844,0.12185882031918,-1.07546436786652,-0.83995574712753
43,1179891619,-0.26238554716110,-0.82933413982391,39.87983703613281,0.05539166182280,-0.04662232100964,9.77605724334717,0.13236004114151,-1.09029424190521,-0.99819093942642
44,1179908286,-0.25961923599243,-0.84152996540070,39.90074920654297,0.05703823640943,-0.08382468670607,9.76880645751953,0.20001596212387,-1.03570055961609,-0.88723665475845
45,1179924953,-0.25760805606842,-0.85319018363953,39.88634109497070,0.04643739387393,-0.03676775470376,9.75607013702393,0.16118711233139,-1.00564420223236,-0.90421789884567
46,1179941620,-0.25498843193054,-0.86477559804916,39.88801193237305,0.05711017176509,-0.07737792283297,9.75603199005127,0.19137169420719,-1.00300610065460,-0.92164748907089
47,1179958287,-0.25285264849663,-0.87725442647934,39.90449142456055,0.05792888253927,-0.04388514906168,9.76513481140137,0.16844829916954,-1.05882883071899,-0.85420906543732
48,1179974954,-0.25255203247070,-0.88929784297943,39.89692306518555,0.05665457621217,-0.06921191513538,9.76432418823242,0.05397235974669,-1.03256309032440,-0.90420508384705
49,1179991621,-0.25090253353119,-0.90186995267868,39.91942214965820,0.05159366875887,-0.06077930703759,9.78181362152100,0.13836620748043,-1.06552684307098,-0.82859647274017
50,1180008288,-0.25020727515221,-0.91397470235825,39.92274093627930,0.04520585387945,-0.06517738103867,9.76547336578369,0.08095534145832,-1.04060554504395,-0.91588461399078
51,1180024955,-0.24838681519032,-0.92582219839096,39.93999099731445,0.05069334432483,-0.07036323100328,9.74528884887695,0.14908511936665,-1.02865719795227,-0.89512538909912
52,1180041622,-0.24606055021286,-0.93680018186569,39.90997314453125,0.03096486255527,-0.06008275598288,9.77034282684326,0.18120345473289,-0.97845631837845,-0.93477392196655
53,1180058289,-0.24404914677143,-0.94852149486542,39.92184829711914,0.04221745207906,-0.07136078178883,9.77205467224121,0.16368435323238,-1.03020668029785,-0.91655045747757
54,1180074956,-0.24249032139778,-0.96073752641678,39.91799163818359,0.04087171331048,-0.04078998416662,9.75830745697021,0.13796921074390,-1.06396436691284,-0.88432973623276
55,1180091623,-0.24131746590137,-0.97304809093475,39.91379547119141,0.05586795881391,-0.06041047722101,9.74623966217041,0.11156252026558,-1.07404291629791,-0.91442453861237
56,1180108290,-0.23994272947311,-0.98564249277115,39.91200637817383,0.03832441568375,-0.06307233124971,9.76856708526611,0.12513725459576,-1.09274029731750,-0.87763202190399
57,1180124957,-0.23795138299465,-0.99729758501053,39.91210556030273,0.04546277970076,-0.05624857917428,9.74099445343018,0.16263422369957,-1.04078471660614,-0.85671913623810
58,1180141624,-0.23522049188614,-1.00928831100464,39.92447280883789,0.05723233893514,-0.05827228352427,9.77013587951660,0.20713630318642,-1.06504011154175,-0.84888166189194
59,1180158291,-0.23264059424400,-1.02074360847473,39.92082214355469,0.06636144965887,-0.05762984603643,9.75993633270264,0.19577705860138,-1.03417670726776,-0.99063515663147
60,1180174958,-0.23108178377151,-1.03175926208496,39.91977691650391,0.06595258414745,-0.07272235304117,9.76093769073486,0.13431940972805,-1.00838470458984,-0.96796792745590
61,1180191625,-0.22904618084431,-1.04354059696198,39.92407608032227,0.06398907303810,-0.03570384159684,9.77282047271729,0.16686032712460,-1.05635726451874,-0.86002320051193
62,1180208292,-0.22763147950172,-1.05413568019867,39.92375946044922,0.05637228116393,-0.07759159803391,9.75481128692627,0.12687891721725,-0.98620420694351,-0.86629843711853
63,1180224959,-0.22575199604034,-1.06578159332275,39.93373870849609,0.06906373798847,-0.05686714872718,9.76735973358154,0.15605176985264,-1.05247712135315,-0.95746684074402
64,1180241626,-0.22472445666790,-1.07658791542053,39.94055175781250,0.05855238810182,-0.07409286499023,9.75118446350098,0.10845057666302,-1.00342881679535,-0.75543373823166
65,1180258293,-0.22296668589115,-1.08669471740723,39.94783020019531,0.05560777336359,-0.04723795875907,9.76768684387207,0.15158236026764,-0.96394687891006,-0.91656327247620
66,1180274960,-0.22156807780266,-1.09840822219849,39.94827270507812,0.07336172461510,-0.07405377924442,9.76012039184570,0.12984998524189,-1.06325995922089,-0.88178128004074
67,1180291627,-0.21866776049137,-1.10915291309357,39.94931030273438,0.06794378161430,-0.05905274674296,9.76572608947754,0.22054454684258,-1.00680959224701,-0.94099783897400
68,1180308294,-0.21746557950974,-1.11990964412689,39.94124603271484,0.07146361470222,-0.05211631581187,9.75835037231445,0.11873407661915,-1.01021611690521,-0.96042501926422
69,1180324961,-0.21588170528412,-1.13184285163879,39.94563674926758,0.07020853459835,-0.05910534039140,9.76943778991699,0.14245142042637,-1.08281517028809,-0.87452006340027
70,1180341628,-0.21352782845497,-1.14333283901215,39.94979095458984,0.06003640592098,-0.05343181639910,9.75411415100098,0.18963003158569,-1.05864977836609,-0.88733923435211
71,1180358295,-0.21216884255409,-1.15496158599854,39.94931030273438,0.06109490618110,-0.05850170925260,9.74317264556885,0.12905599176884,-1.07070052623749,-0.88832521438599
72,1180374962,-0.21005988121033,-1.16514766216278,39.94645309448242,0.04584834724665,-0.04555498063564,9.75450611114502,0.17419837415218,-0.98747205734253,-0.88649398088455
73,1180391629,-0.20970977842808,-1.17653882503510,39.94864654541016,0.05202249437571,-0.06797017157078,9.76457214355469,0.06690677255392,-1.06564199924469,-0.94581300020218
74,1180408296,-0.20766060054302,-1.18737459182739,39.95050811767578,0.05847787111998,-0.04191861674190,9.77263259887695,0.17241829633713,-1.03745532035828,-0.87001216411591
75,1180424963,-0.20553785562515,-1.19769740104675,39.94021606445312,0.05557186901569,-0.05534928664565,9.74807071685791,0.17286650836468,-1.01135599613190,-0.95039767026901
76,1180441630,-0.20385713875294,-1.20884120464325,39.94708633422852,0.03954818099737,-0.06152034178376,9.79065418243408,0.15014804899693,-1.06630790233612,-0.83855974674225
77,1180458297,-0.20230092108250,-1.21968400478363,39.95137405395508,0.04862252995372,-0.05838665738702,9.74103355407715,0.14099150896072,-1.05424439907074,-0.90898185968399
78,1180474964,-0.20055808126926,-1.22994077205658,39.95824813842773,0.04668365418911,-0.06073545664549,9.75855064392090,0.15460465848446,-1.02528905868530,-0.84197902679443
79,1180491631,-0.19967061281204,-1.24119448661804,39.95980453491211,0.04048260673881,-0.04125872626901,9.77609539031982,0.10459586232901,-1.09056305885315,-0.83141380548477
80,1180508298,-0.19786906242371,-1.25154829025269,39.96415328979492,0.04421390593052,-0.07109019905329,9.77526569366455,0.15824165940285,-1.04408895969391,-0.82887828350067
81,1180524965,-0.19712266325951,-1.26049220561981,39.96489715576172,0.04238445311785,-0.05246199294925,9.78171348571777,0.09632296115160,-0.96612387895584,-0.86186730861664
82,1180541632,-0.19644312560558,-1.27059459686279,39.96713638305664,0.04490485042334,-0.05956836417317,9.76799774169922,0.09176389873028,-1.04247534275055,-0.90101623535156
83,1180558299,-0.19494631886482,-1.28091359138489,39.96602630615234,0.04808542132378,-0.05107148364186,9.74871730804443,0.14072257280350,-1.06167197227478,-0.93440252542496
84,1180574966,-0.19316320121288,-1.29002034664154,39.96693420410156,0.05409102141857,-0.06143724173307,9.78347206115723,0.15729399025440,-0.99507898092270,-0.92734622955322
85,1180591633,-0.19114829599857,-1.29954481124878,39.97315979003906,0.05514093488455,-0.05009064450860,9.75415706634521,0.17567110061646,-1.02662098407745,-0.80047369003296
86,1180608300,-0.19034290313721,-1.30926299095154,39.97189331054688,0.06627147644758,-0.05498781055212,9.75211429595947,0.10068991780281,-1.04407596588135,-0.90930205583572
87,1180624967,-0.18803909420967,-1.31848800182343,39.97098922729492,0.06453758478165,-0.05563412234187,9.74855995178223,0.19073137640953,-1.01934719085693,-0.95728754997253
88,1180641634,-0.18566288053989,-1.32735466957092,39.97621536254883,0.07879424095154,-0.06290184706450,9.78765106201172,0.19513672590256,-1.00286519527435,-0.92131441831589
89,1180658301,-0.18379084765911,-1.33720123767853,39.97782135009766,0.07428813725710,-0.05714701861143,9.75484180450439,0.16876848042011,-1.06616699695587,-0.86509448289871
90,1180674968,-0.18284566700459,-1.34661996364594,39.97799301147461,0.06285659968853,-0.05703049898148,9.76071739196777,0.11359873414040,-1.04552316665649,-0.86683619022369
91,1180691635,-0.18196170032024,-1.35614693164825,39.97689437866211,0.06957512348890,-0.06302779167891,9.75969886779785,0.10892441868782,-1.05715143680573,-0.91593587398529
92,1180708302,-0.17967271804810,-1.36559760570526,39.97263717651367,0.06876308470964,-0.04710474982858,9.76613998413086,0.19653268158436,-1.05847048759460,-0.86797600984573
93,1180724969,-0.17700871825218,-1.37477922439575,39.97231674194336,0.06142021715641,-0.04679627716541,9.75633907318115,0.21843151748180,-1.04836630821228,-0.87487864494324
94,1180741636,-0.17543224990368,-1.38304173946381,39.97183227539062,0.05839248746634,-0.05643017217517,9.76111984252930,0.15282458066940,-0.99922829866409,-0.89206475019455
95,1180758303,-0.17486016452312,-1.39268052577972,39.97451019287109,0.07581795752048,-0.05844741687179,9.75702667236328,0.09296770393848,-1.08855259418488,-0.91315680742264
96,1180774970,-0.17283426225185,-1.40169954299927,39.97481155395508,0.07503724098206,-0.05544670671225,9.75161743164062,0.18128030002117,-1.05707454681396,-0.90138775110245
97,1180791637,-0.17213515937328,-1.41083574295044,39.97388458251953,0.06557711213827,-0.04975533485413,9.76842880249023,0.10234195739031,-1.06963765621185,-0.92889583110809
98,1180808304,-0.17015443742275,-1.42101061344147,39.97716522216797,0.05686924979091,-0.07527808845043,9.77895736694336,0.18194623291492,-1.13804912567139,-0.81764703989029
99,1180824971,-0.16842266917229,-1.42952883243561,39.97547531127930,0.05601060390472,-0.03643160685897,9.76972484588623,0.16683472692966,-1.04667580127716,-0.92501550912857
100,1180841638,-0.16706362366676,-1.43844485282898,39.97764205932617,0.06806019693613,-0.05136438831687,9.75210285186768,0.14499990642071,-1.07801294326782,-0.87869495153427
101,1180858305,-0.16451829671860,-1.44511985778809,39.98093032836914,0.04015690460801,-0.05348000302911,9.75489330291748,0.21726611256599,-0.94997495412827,-0.86615741252899
102,1180874972,-0.16362936794758,-1.45325362682343,39.97993087768555,0.06524373590946,-0.07610026001930,9.77627849578857,0.11852918565273,-1.04639410972595,-0.86769425868988
103,1180891639,-0.16286347806454,-1.46219646930695,39.98041152954102,0.04873215034604,-0.05162876471877,9.75935363769531,0.11472568660975,-1.10212731361389,-0.84456604719162
104,1180908306,-0.16127957403660,-1.46965444087982,39.98410415649414,0.04773271083832,-0.05312472581863,9.77229976654053,0.16310808062553,-1.02121686935425,-0.87747836112976
105,1180924973,-0.15963488817215,-1.47856032848358,39.98587036132812,0.04260277748108,-0.05377307534218,9.77713489532471,0.16837148368359,-1.11698269844055,-0.83718955516815
106,1180941640,-0.15878339111805,-1.48544561862946,39.98208236694336,0.04679401218891,-0.04696002602577,9.75690841674805,0.12205091863871,-1.00455570220947,-0.86619597673416
107,1180958307,-0.15781013667583,-1.49287664890289,39.98612594604492,0.05661782249808,-0.06379774212837,9.76041984558105,0.12767289578915,-1.04556155204773,-0.90882819890976
108,1180974974,-0.15689052641392,-1.50132298469543,39.98607254028320,0.03685453906655,-0.05670737475157,9.77028560638428,0.12681488692760,-1.11518967151642,-0.87177950143814
109,1180991641,-0.15563480556011,-1.50835299491882,39.99320220947266,0.05081607773900,-0.07336979359388,9.77732467651367,0.14715135097504,-1.03959381580353,-0.91410440206528
110,1181008308,-0.15463373064995,-1.51563131809235,39.99463653564453,0.05910743772984,-0.04076397791505,9.77330398559570,0.13388399779797,-1.06279897689819,-0.94417375326157
111,1181024975,-0.15347559750080,-1.52234065532684,39.99604415893555,0.06196429952979,-0.06141137704253,9.77523899078369,0.14511516690254,-1.03709673881531,-0.88785141706467
112,1181041642,-0.15219934284687,-1.52956664562225,39.99791717529297,0.06303605437279,-0.05552336201072,9.77892208099365,0.15268370509148,-1.07556700706482,-0.91003197431564
113,1181058309,-0.15043359994888,-1.53691029548645,39.99997711181641,0.06427168101072,-0.04970027878881,9.75603485107422,0.18390558660030,-1.09058880805969,-0.87037080526352
114,1181074976,-0.14902068674564,-1.54409480094910,40.00061035156250,0.06358680874109,-0.06023137643933,9.77085971832275,0.16210918128490,-1.08782255649567,-0.94377666711807
115,1181091643,-0.14827831089497,-1.55050098896027,40.00322723388672,0.06908591836691,-0.05516231060028,9.76432991027832,0.12230705469847,-1.04987740516663,-0.93579858541489
116,1181108310,-0.14556016027927,-1.55650305747986,40.00457000732422,0.07229436188936,-0.06922662258148,9.78270530700684,0.24426192045212,-1.03313946723938,-0.88717263936996
117,1181124977,-0.14462496340275,-1.56248700618744,40.00522994995117,0.05938830226660,-0.04743370041251,9.71808242797852,0.13730327785015,-1.03990125656128,-0.96066826581955
118,1181141644,-0.14267826080322,-1.56904721260071,40.00722885131836,0.07550909370184,-0.07743526250124,9.77548694610596,0.20075874030590,-1.08218777179718,-0.88710874319077
119,1181158311,-0.33212193846703,-0.30498933792114,40.76657104492188,0.06096533313394,-0.04830401763320,9.74479484558105,0.11804252862930,-1.00412034988403,-0.95058977603912
120,1181174978,-0.33134722709656,-0.30583825707436,40.77524566650391,0.06031688302755,-0.05786236003041,9.78711128234863,0.19386893510818,-1.08456969261169,-0.81895327568054
121,1181191645,-0.33115166425705,-0.30544787645340,40.76692581176758,0.05509821325541,-0.04668168351054,9.77176666259766,0.15812639892101,-1.00997269153595,-0.91442453861237
122,1181208312,-0.33074659109116,-0.30627349019051,40.75994491577148,0.06728789210320,-0.08440197259188,9.76704883575439,0.17131695151329,-1.08266162872314,-0.88495725393295
123,1181224979,-0.33015835285187,-0.30684861540794,40.75782775878906,0.05373544245958,-0.04869336262345,9.76745033264160,0.18345734477043,-1.06840813159943,-0.83767610788345
124,1181241646,-0.33168286085129,-0.30692422389984,40.75099182128906,0.05615550279617,-0.05298358574510,9.74915695190430,0.05562437698245,-1.03713500499725,-0.93698936700821
125,1181258313,-0.33258453011513,-0.30663982033730,40.74909210205078,0.04904977232218,-0.06771093606949,9.75603771209717,0.09372326731682,-1.01720833778381,-0.77218449115753
126,1181274980,-0.33345511555672,-0.30675113201141,40.74249267578125,0.05587171763182,-0.06173780187964,9.77324390411377,0.09506793320179,-1.04072082042694,-0.97793132066727
127,1181291647,-0.33404582738876,-0.30772647261620,40.73672485351562,0.05951181426644,-0.05593199655414,9.77041816711426,0.11243334412575,-1.09194624423981,-0.92893409729004
128,1181308314,-0.33404695987701,-0.30845329165459,40.73353576660156,0.05823012441397,-0.06396419554949,9.76788043975830,0.14748433232307,-1.07825624942780,-0.92802494764328
129,1181324981,-0.33346489071846,-0.30887496471405,40.72781753540039,0.04746455699205,-0.05397565290332,9.75002479553223,0.18289388716221,-1.05955910682678,-0.90419238805771
130,1181341648,-0.33267661929131,-0.30913060903549,40.72371292114258,0.05761645734310,-0.05677510052919,9.76258563995361,0.19525201618671,-1.05005669593811,-0.81101334095001
131,1181358315,-0.33278369903564,-0.30817720293999,40.71657943725586,0.04601289331913,-0.05858376622200,9.76499462127686,0.14163181185722,-0.97753423452377,-0.92819124460220
132,1181374982,-0.33257737755775,-0.30706188082695,40.71208953857422,0.05642899498343,-0.05324516445398,9.77289295196533,0.16038031876087,-0.96949189901352,-0.80480223894119
133,1181391649,-0.33298191428185,-0.30763763189316,40.71066665649414,0.04968388006091,-0.05597449094057,9.76412487030029,0.12370292842388,-1.06953501701355,-0.88002669811249
134,1181408316,-0.33211714029312,-0.30699378252029,40.70510864257812,0.04528375342488,-0.05763756483793,9.76167583465576,0.19941408932209,-0.99714070558548,-0.96461266279221
135,1181424983,-0.33149126172066,-0.30733940005302,40.70058059692383,0.04797259345651,-0.05066340044141,9.76162815093994,0.18545515835285,-1.05622935295105,-0.89773797988892
136,1181441650,-0.33128476142883,-0.30766808986664,40.69470977783203,0.05723351985216,-0.06812335550785,9.78804969787598,0.15979123115540,-1.05532014369965,-0.98658841848373
137,1181458317,-0.33146420121193,-0.30758237838745,40.69392776489258,0.05949016660452,-0.03846386820078,9.76955223083496,0.13773870468140,-1.03234541416168,-0.84597468376160
138,1181474984,-0.33185020089149,-0.30821904540062,40.69177246093750,0.05721317604184,-0.06399675458670,9.75618171691895,0.12445850670338,-1.07383799552917,-0.92839622497559
139,1181491651,-0.33219060301781,-0.30852329730988,40.68886947631836,0.05938959866762,-0.05260344222188,9.76529693603516,0.12741677463055,-1.05480790138245,-0.88915771245956
140,1181508318,-0.33238428831100,-0.30890339612961,40.68177795410156,0.07023334503174,-0.05555004999042,9.77504062652588,0.13635560870171,-1.05971264839172,-0.93444085121155
141,1181524985,-0.33200210332870,-0.30868312716484,40.67534255981445,0.07060632854700,-0.03597337380052,9.77133941650391,0.17022840678692,-1.02286887168884,-0.89102751016617
142,1181541652,-0.33222603797913,-0.30846920609474,40.67324447631836,0.07923973351717,-0.06828872859478,9.76855278015137,0.13471639156342,-1.02347064018250,-0.86565798521042
143,1181558319,-0.33094143867493,-0.30799645185471,40.67037963867188,0.06787501275539,-0.05090906471014,9.77178382873535,0.22487309575081,-1.00792372226715,-0.89143711328506
144,1181574986,-0.33019724488258,-0.30842027068138,40.66760635375977,0.06369656324387,-0.06157239526510,9.76758289337158,0.19231936335564,-1.06089079380035,-0.85121244192123
145,1181591653,-0.33064386248589,-0.30831131339073,40.66341400146484,0.07406383007765,-0.06632770597935,9.76360702514648,0.12032205611467,-1.02959203720093,-0.89072000980377
146,1181608320,-0.33155468106270,-0.30968374013901,40.66062164306641,0.05480409413576,-0.05303583294153,9.76819133758545,0.09323663264513,-1.11716187000275,-0.93084228038788
147,1181624987,-0.33156526088715,-0.30996409058571,40.65906906127930,0.05312481150031,-0.07585988938808,9.76302719116211,0.14798377454281,-1.05339908599854,-0.81175607442856
148,1181641654,-0.33275899291039,-0.31067487597466,40.65610122680664,0.06072149425745,-0.04424174875021,9.75157737731934,0.07642189413309,-1.07810246944427,-0.91584610939026
149,1181658321,-0.33353996276855,-0.30996406078339,40.65181350708008,0.05893567204475,-0.06239092722535,9.76932334899902,0.10056185722351,-0.99313235282898,-0.89862155914307
150,1181674988,-0.33275204896927,-0.31004738807678,40.64903640747070,0.04310332611203,-0.05449156463146,9.77010536193848,0.19566179811954,-1.04059278964996,-0.94084405899048
151,1181691655,-0.33321788907051,-0.30965086817741,40.64729309082031,0.05976923555136,-0.06174419075251,9.76036167144775,0.12025803327560,-1.01318717002869,-0.87933528423309
152,1181708322,-0.33287924528122,-0.30985319614410,40.64430618286133,0.03769608959556,-0.05143681168556,9.74585247039795,0.16783361136913,-1.04843032360077,-0.90983998775482
153,1181724989,-0.33345869183540,-0.30930316448212,40.64177703857422,0.04938469827175,-0.03954125568271,9.76459693908691,0.11388046294451,-1.00356948375702,-0.89890325069427
154,1181741656,-0.33287027478218,-0.30943882465363,40.63903045654297,0.03310977295041,-0.06741358339787,9.76294422149658,0.18263776600361,-1.04483163356781,-0.90530657768250
155,1181758323,-0.33191904425621,-0.31061813235283,40.63515853881836,0.04133252799511,-0.03744893521070,9.74413013458252,0.20548430085182,-1.10831284523010,-0.89497178792953
156,1181774990,-0.33132418990135,-0.31033286452293,40.63269424438477,0.04301434010267,-0.07452344894409,9.73807048797607,0.18347018957138,-1.02099907398224,-0.88326680660248
157,1181791657,-0.33158102631569,-0.31010517477989,40.62938690185547,0.04359148815274,-0.03552837669849,9.76078224182129,0.13212950527668,-1.02377808094025,-0.90662556886673
158,1181808324,-0.33137199282646,-0.31030660867691,40.62469100952148,0.04660994186997,-0.07897031307220,9.78310775756836,0.15980404615402,-1.05037677288055,-0.93756580352783
159,1181824991,-0.33046847581863,-0.31061100959778,40.62182998657227,0.05167187750340,-0.03907612338662,9.76435279846191,0.20244920253754,-1.05677998065948,-0.90987843275070
160,1181841658,-0.32978442311287,-0.31095039844513,40.61826324462891,0.04530862346292,-0.04894578829408,9.77038383483887,0.18887446820736,-1.05879068374634,-0.93006122112274
161,1181858325,-0.32962000370026,-0.31044018268585,40.61563491821289,0.05741336941719,-0.05438196286559,9.78005981445312,0.15770378708839,-1.00916588306427,-0.85483658313751
162,1181874992,-0.32901525497437,-0.31034633517265,40.60920333862305,0.04617925360799,-0.05270086973906,9.77614402770996,0.18370069563389,-1.03272974491119,-0.95134526491165
163,1181891659,-0.32868269085884,-0.31104803085327,40.60554122924805,0.05426144972444,-0.06663907319307,9.77325153350830,0.16767993569374,-1.08204686641693,-0.87943762540817
164,1181908326,-0.32925426959991,-0.31164005398750,40.60584640502930,0.07897479087114,-0.04055203869939,9.76827621459961,0.11334259808064,-1.07491385936737,-0.84940683841705
165,1181924993,-0.32859000563622,-0.31227430701256,40.60209274291992,0.07187402993441,-0.07352897524834,9.77637100219727,0.18741454184055,-1.07689881324768,-0.93738651275635
166,1181941660,-0.32873815298080,-0.31325832009315,40.59845352172852,0.06553492695093,-0.04421523585916,9.75917053222656,0.13901934027672,-1.09747862815857,-0.89097625017166
167,1181958327,-0.32809782028198,-0.31275826692581,40.59551620483398,0.06499969959259,-0.07050962746143,9.75589179992676,0.18504536151886,-1.00820553302765,-0.97122079133987
168,1181974994,-0.32893455028534,-0.31341749429703,40.59460067749023,0.07075306773186,-0.04147507622838,9.76191520690918,0.09851284325123,-1.07930636405945,-0.82521557807922
169,1181991661,-0.32904803752899,-0.31331270933151,40.59202957153320,0.06269784271717,-0.06179304420948,9.76080608367920,0.14105553925037,-1.03182041645050,-0.88389420509338
170,1182008328,-0.32853820919991,-0.31419593095779,40.58945083618164,0.06966809928417,-0.04546272382140,9.78061294555664,0.17868059873581,-1.09152376651764,-0.84448921680450
171,1182024995,-0.33021843433380,-0.31436052918434,40.58481597900391,0.05804304778576,-0.04952621459961,9.76031208038330,0.04618610069156,-1.04827666282654,-0.98142743110657
172,1182041662,-0.33112624287605,-0.31462827324867,40.58231353759766,0.04887135326862,-0.07090388238430,9.76938247680664,0.09383853524923,-1.05483353137970,-0.82766163349152
173,1182058329,-0.33203119039536,-0.31574305891991,40.58106613159180,0.05763446539640,-0.03473098576069,9.75316047668457,0.09314698725939,-1.10573863983154,-0.83565270900726
174,1182074996,-0.33104363083839,-0.31663981080055,40.57748794555664,0.04950578510761,-0.06496384739876,9.77418041229248,0.20728999376297,-1.09253537654877,-0.84941965341568
175,1182091663,-0.33225268125534,-0.31662347912788,40.57796096801758,0.05841450020671,-0.04494564607739,9.77826690673828,0.07564070820808,-1.03814685344696,-0.85021364688873
176,1182108330,-0.33215519785881,-0.31740871071815,40.57634353637695,0.05169378221035,-0.08088995516300,9.75530719757080,0.15253002941608,-1.08599126338959,-0.95952856540680
177,1182124997,-0.33169022202492,-0.31841698288918,40.57534027099609,0.04831761121750,-0.02655844762921,9.78353595733643,0.17632423341274,-1.09979653358459,-0.84941965341568
178,1182141664,-0.33102196455002,-0.31806236505508,40.57392120361328,0.05407383292913,-0.08006186783314,9.76919269561768,0.18720962107182,-1.01769495010376,-0.89184695482254
179,1182158331,-0.33076635003090,-0.31746795773506,40.57228851318359,0.04697119444609,-0.04704645276070,9.76393508911133,0.16355629265308,-1.00413310527802,-0.84535992145538
180,1182174998,-0.33184096217155,-0.31771478056908,40.56859588623047,0.04639592021704,-0.05786265805364,9.75962829589844,0.08277384191751,-1.05386018753052,-0.90279638767242
181,1182191665,-0.33169791102409,-0.31750538945198,40.56514358520508,0.05503943935037,-0.05816531926394,9.76206111907959,0.15605176985264,-1.02678763866425,-0.92872935533524
182,1182208332,-0.33164218068123,-0.31803789734840,40.56353759765625,0.05494593828917,-0.05687429010868,9.77320861816406,0.15142866969109,-1.07177627086639,-0.86773258447647
183,1182224999,-0.33026266098022,-0.31810191273689,40.56192398071289,0.04789824783802,-0.05775239318609,9.77194309234619,0.23061034083366,-1.04443478584290,-0.85778206586838
184,1182241666,-0.32931879162788,-0.31861981749535,40.56006240844727,0.05654987320304,-0.05590441823006,9.77709960937500,0.20431891083717,-1.07082855701447,-0.94058793783188
185,1182258333,-0.32920631766319,-0.31771525740623,40.55436325073242,0.05084323137999,-0.06586166471243,9.77400970458984,0.15470710396767,-0.98567920923233,-0.88212704658508
186,1182275000,-0.32883694767952,-0.31829375028610,40.55405426025391,0.06071067601442,-0.04687070101500,9.75324821472168,0.16995948553085,-1.07403004169464,-0.91172248125076
187,1182291667,-0.32933461666107,-0.31939330697060,40.55075073242188,0.05630744621158,-0.07067705690861,9.74564170837402,0.11818340420723,-1.10623812675476,-0.85682165622711
188,1182308334,-0.32966339588165,-0.32042294740677,40.54788589477539,0.07426065206528,-0.05112692341208,9.76475811004639,0.12798026204109,-1.10214006900787,-0.91206812858582
189,1182325001,-0.33014792203903,-0.31958466768265,40.54501342773438,0.07110495120287,-0.06292147934437,9.77164363861084,0.11936158686876,-0.98989248275757,-0.88768488168716
190,1182341668,-0.33014884591103,-0.31898772716522,40.54269027709961,0.06544450670481,-0.06656558811665,9.78040885925293,0.14788131415844,-1.00401771068573,-0.90567785501480
191,1182358335,-0.33048141002655,-0.31852158904076,40.53894042968750,0.06125164031982,-0.05931048467755,9.75872707366943,0.12827479839325,-1.01167607307434,-0.85340243577957
192,1182375002,-0.32930758595467,-0.31859037280083,40.53826141357422,0.05568173900247,-0.06195284053683,9.76841163635254,0.21916145086288,-1.04458820819855,-0.83133697509766
193,1182391669,-0.33078792691231,-0.31898269057274,40.53593826293945,0.06415706127882,-0.05106317996979,9.77714347839355,0.05954312160611,-1.06351602077484,-0.86428773403168
194,1182408336,-0.32991120219231,-0.31907498836517,40.53504180908203,0.06696131080389,-0.09470743685961,9.78215885162354,0.20128379762173,-1.04513895511627,-0.85381215810776
195,1182425003,-0.33044317364693,-0.32097297906876,40.53298187255859,0.05522379279137,-0.04469594359398,9.76234722137451,0.11639051884413,-1.15392899513245,-0.85082823038101
196,1182441670,-0.33079674839973,-0.32078224420547,40.53022766113281,0.05573262274265,-0.07274188846350,9.78295993804932,0.12803147733212,-1.02893888950348,-0.84844619035721
197,1182458337,-0.33046153187752,-0.32035392522812,40.52749633789062,0.05009781196713,-0.03899174928665,9.76019859313965,0.16867883503437,-1.01465988159180,-0.82101505994797
198,1182475004,-0.33087182044983,-0.32018613815308,40.52293395996094,0.05069647729397,-0.07898265868425,9.76531219482422,0.12415116280317,-1.03020679950714,-0.92295366525650
199,1182491671,-0.33170154690742,-0.32051306962967,40.51605987548828,0.05336436256766,-0.04939879849553,9.75402164459229,0.09903790801764,-1.06000721454620,-0.83102965354919
200,1182508338,-0.33209127187729,-0.31990334391594,40.51126861572266,0.06459736824036,-0.05037188529968,9.76910209655762,0.12474024295807,-1.00330054759979,-0.96084755659103
201,1182525005,-0.33170396089554,-0.31993472576141,40.50759887695312,0.06743831187487,-0.07117590308189,9.75004768371582,0.17170113325119,-1.04120743274689,-0.90635663270950
202,1182541672,-0.33182033896446,-0.31855648756027,40.50659942626953,0.04467771947384,-0.03169346228242,9.75213050842285,0.14224652945995,-0.95811992883682,-0.85988241434097
203,1182558339,-0.33124941587448,-0.31911677122116,40.50428009033203,0.05118211731315,-0.07581675797701,9.77619552612305,0.18211267888546,-1.07379961013794,-0.91639679670334
204,1182575006,-0.33162555098534,-0.31940621137619,40.50411987304688,0.04471331834793,-0.04300538823009,9.75258827209473,0.12662278115749,-1.05774044990540,-0.84091621637344
205,1182591673,-0.33027285337448,-0.32037645578384,40.50117111206055,0.04977907612920,-0.07791039347649,9.77030944824219,0.22899676859379,-1.09818303585052,-0.95879858732224
206,1182608340,-0.33021968603134,-0.32095149159431,40.50030517578125,0.04611806198955,-0.04580231010914,9.76207637786865,0.15255565941334,-1.07523405551910,-0.86627280712128
207,1182625007,-0.33142936229706,-0.32041499018669,40.49626922607422,0.05308638513088,-0.06988126039505,9.77491664886475,0.07578157633543,-1.00797498226166,-0.95357370376587
208,1182641674,-0.33146756887436,-0.32003551721573,40.49554061889648,0.04734092205763,-0.05831471458077,9.74872875213623,0.14630614221096,-1.01877069473267,-0.86059957742691
209,1182658341,-0.33173111081123,-0.31785532832146,40.49436950683594,0.04525706171989,-0.05994493141770,9.75547885894775,0.13333329558372,-0.91016006469727,-0.89104020595551
210,1182675008,-0.33142894506454,-0.31836441159248,40.49328231811523,0.06397385150194,-0.05859569460154,9.76360416412354,0.16715489327908,-1.07146894931793,-0.84464287757874
211,1182691675,-0.33159294724464,-0.31757441163063,40.49206161499023,0.04806252941489,-0.04909664392471,9.76195430755615,0.13926266133785,-0.99352943897247,-0.85395306348801
212,1182708342,-0.33094915747643,-0.31925517320633,40.49110412597656,0.04792943969369,-0.07991261035204,9.77440834045410,0.18787556886673,-1.14288997650146,-0.79823261499405
213,1182725009,-0.33131378889084,-0.31983295083046,40.48907089233398,0.05702602118254,-0.04429942369461,9.76811504364014,0.12644350528717,-1.07540047168732,-0.91386109590530
214,1182741676,-0.33144333958626,-0.31986913084984,40.49221420288086,0.07469777762890,-0.08164401352406,9.76115322113037,0.14163182675838,-1.04422986507416,-0.82429355382919
215,1182758343,-0.33136907219887,-0.31928372383118,40.48986434936523,0.06564770638943,-0.03872792422771,9.76969337463379,0.15331122279167,-1.00586187839508,-0.93559342622757
216,1182775010,-0.33107879757881,-0.32057395577431,40.48890304565430,0.05200179666281,-0.06946246325970,9.77111625671387,0.16565653681755,-1.11777675151825,-0.90595960617065
217,1182791677,-0.33092221617699,-0.32081565260887,40.48861694335938,0.07466142624617,-0.04682328179479,9.76405715942383,0.15872830152512,-1.05625486373901,-0.86418539285660
218,1182808344,-0.33133220672607,-0.32165467739105,40.48524856567383,0.05811537429690,-0.06021261960268,9.77564525604248,0.12424078583717,-1.09056305885315,-0.96790379285812
219,1182825011,-0.33137398958206,-0.32170942425728,40.48608016967773,0.06106283888221,-0.06092571467161,9.75907802581787,0.14610123634338,-1.04443478584290,-0.88846617937088
220,1182841678,-0.33202835917473,-0.32080835103989,40.48527145385742,0.06623456627131,-0.05676950141788,9.75337314605713,0.10957753658295,-0.98719018697739,-0.87683802843094
221,1182858345,-0.33181735873222,-0.32102689146996,40.48339080810547,0.06568788737059,-0.07480148971081,9.76939105987549,0.16245494782925,-1.05446195602417,-0.85041844844818
222,1182875012,-0.33256128430367,-0.32113298773766,40.48448562622070,0.06692082434893,-0.04331701621413,9.76913547515869,0.10472392290831,-1.04702162742615,-0.82881414890289
223,1182891679,-0.33219641447067,-0.32155433297157,40.48395156860352,0.06495856493711,-0.07362020760775,9.75237274169922,0.17084310948849,-1.06669211387634,-0.87938636541367
224,1182908346,-0.33313512802124,-0.32250717282295,40.48295211791992,0.05862763151526,-0.02136400528252,9.76707077026367,0.09225053340197,-1.09779858589172,-0.90115702152252
225,1182925013,-0.33409583568573,-0.32303234934807,40.48167800903320,0.04328841716051,-0.07071070373058,9.77624893188477,0.09167426079512,-1.07214760780334,-0.84876650571823
226,1182941680,-0.33490800857544,-0.32280036807060,40.47975921630859,0.05376159399748,-0.04073477908969,9.76343631744385,0.09999838471413,-1.02715909481049,-0.92557901144028
227,1182958347,-0.33579790592194,-0.32350578904152,40.47558975219727,0.05352661386132,-0.05904470384121,9.75559902191162,0.09473497420549,-1.08328914642334,-0.95960539579391
228,1182975014,-0.33598145842552,-0.32312902808189,40.47168350219727,0.04468302056193,-0.07307640463114,9.76852416992188,0.13789238035679,-1.01837372779846,-0.86624717712402
229,1182991681,-0.33660793304443,-0.32438158988953,40.46974182128906,0.05504177138209,-0.04751960933208,9.76585483551025,0.11134479194880,-1.11622691154480,-0.91161990165710
230,1183008348,-0.33774060010910,-0.32394444942474,40.46921920776367,0.04836265370250,-0.06789404153824,9.77779197692871,0.08063519001007,-1.01467275619507,-0.92826831340790
231,1183025015,-0.33771589398384,-0.32487523555756,40.46810531616211,0.04599460959435,-0.03218028321862,9.77221298217773,0.14998155832291,-1.09694075584412,-0.89342218637466
232,1183041682,-0.33827972412109,-0.32469213008881,40.46717453002930,0.04556047171354,-0.07424608618021,9.76378917694092,0.11512268334627,-1.03000187873840,-0.91712665557861
233,1183058349,-0.33780273795128,-0.32437241077423,40.46543502807617,0.04549845308065,-0.03372998163104,9.75615406036377,0.17751522362232,-1.02245891094208,-0.93253278732300
234,1183075016,-0.33753067255020,-0.32469359040260,40.46510696411133,0.03847801685333,-0.08687765896320,9.77678966522217,0.16419659554958,-1.06127488613129,-0.90232253074646
235,1183091683,-0.33794263005257,-0.32458001375198,40.46372985839844,0.03937942534685,-0.04720019176602,9.76636123657227,0.12509883940220,-1.03502202033997,-0.82639378309250
236,1183108350,-0.33901757001877,-0.32472354173660,40.46076965332031,0.04876179620624,-0.07971032708883,9.74058246612549,0.08335012942553,-1.05019748210907,-0.97334671020508
237,1183125017,-0.34019958972931,-0.32463133335114,40.45996475219727,0.06491599231958,-0.05471027642488,9.75125122070312,0.07853493839502,-1.03669953346252,-0.86820644140244
238,1183141684,-0.33997458219528,-0.32576131820679,40.45759963989258,0.05765089020133,-0.05761673673987,9.77312278747559,0.16203233599663,-1.10901701450348,-0.91273409128189
239,1183158351,-0.33221703767776,-0.31695067882538,40.45016860961914,0.05689661949873,-0.06479479372501,9.76247215270996,0.16281352937222,-1.02258706092834,-0.86232841014862
240,1183175018,-0.33195436000824,-0.31633478403091,40.44828414916992,0.07454406470060,-0.03936041519046,9.78493309020996,0.16222445666790,-1.00666880607605,-0.95431637763977
241,1183191685,-0.33212926983833,-0.31553366780281,40.44777297973633,0.06194227933884,-0.06758613139391,9.76254367828369,0.13624036312103,-0.99593710899353,-0.93783473968506
242,1183208352,-0.33121517300606,-0.31512135267258,40.44798278808594,0.06984223425388,-0.04179902747273,9.78937816619873,0.20148870348930,-1.01900112628937,-0.87941199541092
243,1183225019,-0.33134400844574,-0.31471225619316,40.44623184204102,0.06885262578726,-0.07387702167034,9.75976753234863,0.13859672844410,-1.01897561550140,-0.95995116233826
244,1183241686,-0.33121421933174,-0.31510129570961,40.44517135620117,0.07693497836590,-0.03548950329423,9.76255226135254,0.15475833415985,-1.06762695312500,-0.94226557016373
245,1183258353,-0.33107593655586,-0.31403130292892,40.44397354125977,0.06617218255997,-0.06147626042366,9.77583885192871,0.15469428896904,-0.97955769300461,-0.89104020595551
246,1183275020,-0.33135885000229,-0.31452521681786,40.44441986083984,0.07263884693384,-0.05455243214965,9.75709915161133,0.12959384918213,-1.07312095165253,-0.89618825912476
247,1183291687,-0.33187159895897,-0.31309452652931,40.44332122802734,0.04748374223709,-0.05690107122064,9.75923728942871,0.11585264652967,-0.95730024576187,-0.94387912750244
248,1183308354,-0.33274853229523,-0.31271493434906,40.44315719604492,0.05967659503222,-0.06961324065924,9.77338504791260,0.09447884559631,-1.02198517322540,-0.78351813554764
249,1183325021,-0.33156794309616,-0.31352174282074,40.44202804565430,0.05617549270391,-0.04949820041656,9.76807689666748,0.21790643036366,-1.09234333038330,-0.87813133001328
250,1183341688,-0.33167469501495,-0.31350064277649,40.44286346435547,0.03915236517787,-0.08507108688354,9.77375411987305,0.14094029366970,-1.04289793968201,-0.83114498853683
251,1183358355,-0.33057853579521,-0.31293615698814,40.44186782836914,0.06676955521107,-0.04907570406795,9.76678657531738,0.21231006085873,-1.00994706153870,-0.93254560232162
252,1183375022,-0.33095583319664,-0.31334075331688,40.44140243530273,0.04901761561632,-0.08026178181171,9.75776290893555,0.12461218982935,-1.06749880313873,-0.87224048376083
253,1183391689,-0.33042949438095,-0.31379932165146,40.43995285034180,0.05875992029905,-0.04927121102810,9.74028682708740,0.17793783545494,-1.07173776626587,-0.91859948635101
254,1183408356,-0.33067193627357,-0.31249061226845,40.43654251098633,0.04668510332704,-0.06875369697809,9.77752590179443,0.13223195075989,-0.96521449089050,-0.96912050247192
255,1183425023,-0.33011594414711,-0.31168714165688,40.43618011474609,0.04880988597870,-0.06483120471239,9.76007366180420,0.18043506145477,-0.99533510208130,-0.91667854785919
256,1183441690,-0.33060261607170,-0.31167665123940,40.43536758422852,0.05219005793333,-0.06336357444525,9.76735401153564,0.11724853515625,-1.04329490661621,-0.89426732063293
257,1183458357,-0.33071693778038,-0.31136143207550,40.43514633178711,0.04679877310991,-0.05904807522893,9.75784206390381,0.14073538780212,-1.02525079250336,-0.88707017898560
258,1183475024,-0.33103698492050,-0.31002297997475,40.43321990966797,0.04031021893024,-0.03444829210639,9.76466178894043,0.12764729559422,-0.96360105276108,-0.93698948621750
259,1183491691,-0.33107194304466,-0.31007999181747,40.43221664428711,0.04906197264791,-0.06668186932802,9.76554489135742,0.14433395862579,-1.04808449745178,-0.87809294462204
260,1183508358,-0.33196705579758,-0.31042984127998,40.43185424804688,0.05291838571429,-0.06154636666179,9.78009891510010,0.09362082183361,-1.06534755229950,-0.86777108907700
261,1183525025,-0.33114042878151,-0.30991727113724,40.42895507812500,0.05199427902699,-0.06976761668921,9.77041244506836,0.19604600965977,-1.01309752464294,-0.95096117258072
262,1183541692,-0.33029672503471,-0.31054708361626,40.42323684692383,0.06427679210901,-0.04202859848738,9.76100540161133,0.19751875102520,-1.08258473873138,-0.91205543279648
263,1183558359,-0.33122059702873,-0.31068304181099,40.42065048217773,0.06145033985376,-0.05474897846580,9.76807880401611,0.09121321886778,-1.05204153060913,-0.95804297924042
264,1183575026,-0.33106571435928,-0.31045338511467,40.41750717163086,0.05604519695044,-0.06424789875746,9.75785160064697,0.15601335465908,-1.03073191642761,-0.92057174444199
265,1183591693,-0.33025819063187,-0.31162121891975,40.41545867919922,0.05612458288670,-0.04981562122703,9.78918170928955,0.19523923099041,-1.11390924453735,-0.91512900590897
266,1183608360,-0.33061414957047,-0.31256550550461,40.41632461547852,0.05783954635262,-0.06538670510054,9.75912094116211,0.12590564787388,-1.10141015052795,-0.89351189136505
267,1183625027,-0.33054083585739,-0.31279867887497,40.41430664062500,0.06831349432468,-0.04413290694356,9.77566337585449,0.15099327266216,-1.05841922760010,-0.84553921222687
268,1183641694,-0.32973551750183,-0.31353381276131,40.41318130493164,0.06138214096427,-0.06087512522936,9.77486991882324,0.19596916437149,-1.08823227882385,-0.87513470649719
269,1183658361,-0.33041599392891,-0.31364041566849,40.41216659545898,0.07456970214844,-0.03242307156324,9.74238967895508,0.10582526773214,-1.05132436752319,-0.89955639839172
270,1183675028,-0.33065354824066,-0.31249880790710,40.41188430786133,0.06272360682487,-0.07241167128086,9.76162719726562,0.13250090181828,-0.97538280487061,-0.84528321027756
271,1183691695,-0.33066788315773,-0.31283056735992,40.41072845458984,0.06505221128464,-0.04713064432144,9.77782344818115,0.14637018740177,-1.06460464000702,-0.88393265008926
272,1183708362,-0.33009967207909,-0.31316834688187,40.41011047363281,0.05637901276350,-0.07429733127356,9.75712966918945,0.18106257915497,-1.06475841999054,-0.83943068981171
273,1183725029,-0.33001688122749,-0.31340083479881,40.40806579589844,0.05011476203799,-0.05238812416792,9.76399993896484,0.15124939382076,-1.05808615684509,-0.91867625713348
274,1183741696,-0.32990583777428,-0.31191918253899,40.40637588500977,0.05963108316064,-0.06327088177204,9.77647304534912,0.15315751731396,-0.95532798767090,-0.90294992923737
275,1183758363,-0.33042567968369,-0.31171351671219,40.40524673461914,0.04554785415530,-0.07245109975338,9.76514816284180,0.11636490374804,-1.03197407722473,-0.86729729175568
276,1183775030,-0.33106330037117,-0.31091773509979,40.40245437622070,0.05527728796005,-0.04781722277403,9.75777244567871,0.10843776166439,-0.99650049209595,-0.92792242765427
277,1183791697,-0.33135813474655,-0.31161776185036,40.40209197998047,0.05195554718375,-0.08822829276323,9.76900291442871,0.12909440696239,-1.08640098571777,-0.84617948532104
278,1183808364,-0.33180522918701,-0.31183212995529,40.40216064453125,0.04992363974452,-0.03501971065998,9.76403331756592,0.12087272852659,-1.05784296989441,-0.82221895456314
279,1183825031,-0.33237507939339,-0.31197276711464,40.40165710449219,0.05073290318251,-0.06963798403740,9.77392387390137,0.11289437115192,-1.05281007289886,-0.88923442363739
280,1183841698,-0.33244174718857,-0.31219196319580,40.40155792236328,0.05357275530696,-0.03823639824986,9.75507640838623,0.14246423542500,-1.05726659297943,-0.85436278581619
281,1183858365,-0.33246871829033,-0.31189700961113,40.39923095703125,0.05004205554724,-0.06391906738281,9.76519489288330,0.14465412497520,-1.02669787406921,-0.96876204013824
282,1183875032,-0.33187034726143,-0.31310606002808,40.39849090576172,0.05136342346668,-0.05431932210922,9.77438163757324,0.18313722312450,-1.11726438999176,-0.83852136135101
283,1183891699,-0.33288460969925,-0.31255006790161,40.39789581298828,0.04887315258384,-0.06532315909863,9.77319812774658,0.08655171841383,-1.01093327999115,-0.85551548004150
284,1183908366,-0.33207991719246,-0.31195640563965,40.39901733398438,0.03899881616235,-0.06394161283970,9.78530502319336,0.19589231908321,-1.00969099998474,-0.77489942312241
285,1183925033,-0.33240744471550,-0.31237000226974,40.39674377441406,0.05386109650135,-0.05349798128009,9.77306747436523,0.12699417769909,-1.07075178623199,-0.80685126781464
286,1183941700,-0.33227235078812,-0.31214272975922,40.39458084106445,0.05239111557603,-0.06812732666731,9.77275466918945,0.15552669763565,-1.03079581260681,-0.89043825864792
287,1183958367,-0.33099228143692,-0.31191381812096,40.39408111572266,0.05048640072346,-0.03681989014149,9.76441669464111,0.22366932034492,-1.03132104873657,-0.85319751501083
288,1183975034,-0.33132016658783,-0.31227529048920,40.39259338378906,0.06231863796711,-0.07874023914337,9.76704597473145,0.12689170241356,-1.06657671928406,-0.91852259635925
289,1183991701,-0.33121499419212,-0.31287565827370,40.39146041870117,0.06199368461967,-0.03998583927751,9.77132511138916,0.15360577404499,-1.08084321022034,-0.86462074518204
290,1184008368,-0.33137664198875,-0.31303229928017,40.38967514038086,0.05228273198009,-0.07835830748081,9.75097942352295,0.13641965389252,-1.05329668521881,-0.95107644796371
291,1184025035,-0.33048579096794,-0.31247484683990,40.38818740844727,0.06443278491497,-0.02565370313823,9.76311492919922,0.20027209818363,-1.01127898693085,-0.91971355676651
292,1184041702,-0.32975775003433,-0.31162753701210,40.38874053955078,0.06592408567667,-0.06824810802937,9.77219009399414,0.19069296121597,-0.99418258666992,-0.88080799579620
293,1184058369,-0.32843682169914,-0.31163787841797,40.38747406005859,0.07160453498363,-0.06290439516306,9.76724147796631,0.22596162557602,-1.04472923278809,-0.90588277578354
294,1184075036,-0.32811799645424,-0.31024596095085,40.38741302490234,0.06270190328360,-0.06144600361586,9.75816917419434,0.16605351865292,-0.96142381429672,-0.87089574337006
295,1184091703,-0.32763969898224,-0.31032812595367,40.38846588134766,0.06321600079536,-0.06747284531593,9.76856899261475,0.17553023993969,-1.04958283901215,-0.84530872106552
296,1184108370,-0.32870647311211,-0.30934572219849,40.38793182373047,0.06633803993464,-0.05684179067612,9.77848720550537,0.08260736614466,-0.98599928617477,-0.86698985099792
297,1184125037,-0.32912266254425,-0.30940735340118,40.38757324218750,0.06410635262728,-0.06532645225525,9.76620101928711,0.12267842888832,-1.04837906360626,-0.85116124153137
298,1184141704,-0.32947742938995,-0.30931246280670,40.38539123535156,0.05818843096495,-0.05008642747998,9.76214504241943,0.12572634220123,-1.03935062885284,-0.86696422100067
299,1184158371,-0.32948574423790,-0.30840846896172,40.38550949096680,0.05100803077221,-0.07353452593088,9.75149726867676,0.14617806673050,-0.99068641662598,-0.82717490196228
300,1184175038,-0.32982474565506,-0.30815246701241,40.38459396362305,0.06537479162216,-0.06272379308939,9.78611660003662,0.12668681144714,-1.02882373332977,-0.89092493057251
301,1184191705,-0.32995179295540,-0.30771732330322,40.38333511352539,0.04941065609455,-0.08711875975132,9.75053596496582,0.13909617066383,-1.01866829395294,-0.91619199514389
302,1184208372,-0.32931524515152,-0.30715215206146,40.38178634643555,0.05799411982298,-0.05119953677058,9.76137447357178,0.18555760383606,-1.01065158843994,-0.84532159566879
303,1184225039,-0.33036473393440,-0.30532014369965,40.37937545776367,0.05234378948808,-0.04322753474116,9.75649642944336,0.08358064293861,-0.93496590852737,-0.96182096004486
304,1184241706,-0.33022573590279,-0.30625188350677,40.37763595581055,0.05094646662474,-0.05958008766174,9.77736377716064,0.15539863705635,-1.10006546974182,-0.90003037452698
305,1184258373,-0.32953599095345,-0.30596423149109,40.37717437744141,0.05184205621481,-0.06022383272648,9.77206802368164,0.18849027156830,-1.02733814716339,-0.90288603305817
306,1184275040,-0.32927003502846,-0.30566328763962,40.37622070312500,0.05172628909349,-0.08016261458397,9.77084827423096,0.16321054100990,-1.02645456790924,-0.86310958862305
307,1184291707,-0.33001515269279,-0.30489769577980,40.37462997436523,0.04757815971971,-0.04650508239865,9.75345706939697,0.10239316523075,-0.99954843521118,-0.89413940906525
308,1184308374,-0.33073920011520,-0.30446594953537,40.37330627441406,0.05168164893985,-0.07531971484423,9.77129840850830,0.10311032831669,-1.01841223239899,-0.89485657215118
309,1184325041,-0.33078944683075,-0.30376309156418,40.37081146240234,0.04462826251984,-0.04992963373661,9.78466701507568,0.14424431324005,-1.00282669067383,-0.89773786067963
310,1184341708,-0.33052092790604,-0.30163785815239,40.36906051635742,0.06095917150378,-0.06414093822241,9.76891708374023,0.16236531734467,-0.91702419519424,-0.94434022903442
311,1184358375,-0.33078226447105,-0.30133441090584,40.36557769775391,0.04649648070335,-0.05313575640321,9.77309513092041,0.13118185102940,-1.02604472637177,-0.96842896938324
312,1184375042,-0.33098384737968,-0.30053821206093,40.36678695678711,0.05081444233656,-0.05267343670130,9.76743888854980,0.13456273078918,-0.99665415287018,-0.88911932706833
313,1184391709,-0.33035430312157,-0.29988592863083,40.36923217773438,0.06038084626198,-0.05886825174093,9.78346061706543,0.18490447103977,-1.00588762760162,-0.85783332586288
314,1184408376,-0.33055827021599,-0.30000904202461,40.36972808837891,0.05917000025511,-0.04412993788719,9.77254104614258,0.13534389436245,-1.05246424674988,-0.88634032011032
315,1184425043,-0.33027508854866,-0.30037301778793,40.36894607543945,0.05802648887038,-0.07623917609453,9.76980686187744,0.16365875303745,-1.06577014923096,-0.95826083421707
316,1184441710,-0.32930779457092,-0.30057245492935,40.36757659912109,0.07521846890450,-0.03799939528108,9.74753665924072,0.20476712286472,-1.05652391910553,-0.93237918615341
317,1184458377,-0.32977452874184,-0.30082851648331,40.36663055419922,0.06959398090839,-0.06724684685469,9.78474998474121,0.11865723878145,-1.05986630916595,-0.89866006374359
318,1184475044,-0.33074656128883,-0.30083441734314,40.36727905273438,0.07600925862789,-0.03099660947919,9.76445007324219,0.08815251290798,-1.04535675048828,-0.87183076143265
319,1184491711,-0.33115741610527,-0.29956188797951,40.36620712280273,0.06620449572802,-0.06482198834419,9.76535701751709,0.12251196056604,-0.96851867437363,-0.89293563365936
320,1184508378,-0.32980120182037,-0.30011680722237,40.36589431762695,0.05309562012553,-0.05284341052175,9.76391410827637,0.22806185483932,-1.07807683944702,-0.86036896705627
321,1184525045,-0.32968693971634,-0.29977646470070,40.36520767211914,0.04832946509123,-0.06844460964203,9.77323722839355,0.15386189520359,-1.02446949481964,-0.85382491350174
322,1184541712,-0.33026355504990,-0.29924362897873,40.36312484741211,0.05511080846190,-0.06111991778016,9.79020500183105,0.11253581196070,-1.01245725154877,-0.88229352235794
323,1184558379,-0.32994520664215,-0.29789188504219,40.36257171630859,0.06502816081047,-0.04105564951897,9.76614665985107,0.16577179729939,-0.96349859237671,-0.89347350597382
324,1184575046,-0.33019369840622,-0.29846262931824,40.36269378662109,0.04956799373031,-0.07810989022255,9.75571441650391,0.13186059892178,-1.07912707328796,-0.89758431911469
325,1184591713,-0.32944729924202,-0.29809570312500,40.36170578002930,0.06791016459465,-0.04571427404881,9.78765869140625,0.19193518161774,-1.02248466014862,-0.91328489780426
326,1184608380,-0.32856154441833,-0.29748338460922,40.36271667480469,0.04649462550879,-0.08044514805079,9.77229404449463,0.20029771327972,-1.00773167610168,-0.84810060262680
327,1184625047,-0.32893177866936,-0.29743772745132,40.36448287963867,0.05855031684041,-0.02513306029141,9.75380897521973,0.12443290650845,-1.04148924350739,-0.86628562211990
328,1184641714,-0.32887694239616,-0.29660835862160,40.36217117309570,0.05691519379616,-0.08926112204790,9.77291488647461,0.15014806389809,-0.99538642168045,-0.88762098550797
329,1184658381,-0.32864570617676,-0.29615530371666,40.36346817016602,0.05347644537687,-0.05653588473797,9.74625301361084,0.16108466684818,-1.01816880702972,-0.80339342355728
330,1184675048,-0.32960212230682,-0.29571306705475,40.36282730102539,0.04144722968340,-0.06830818951130,9.76268196105957,0.08965086191893,-1.01782321929932,-0.90086269378662
331,1184691715,-0.32919049263000,-0.29554677009583,40.36166381835938,0.03633853048086,-0.06113072112203,9.77991199493408,0.17159867286682,-1.03521394729614,-0.83834195137024
332,1184708382,-0.32866680622101,-0.29565215110779,40.35926818847656,0.04799337685108,-0.05165581777692,9.77425003051758,0.17850129306316,-1.05045354366302,-0.94211202859879
333,1184725049,-0.32824254035950,-0.29626280069351,40.35899734497070,0.05543235689402,-0.06829898059368,9.76674652099609,0.17223899066448,-1.08094549179077,-0.91363054513931
334,1184741716,-0.32782059907913,-0.29719072580338,40.35837936401367,0.04239942133427,-0.04172560572624,9.75775337219238,0.17154745757580,-1.10069298744202,-0.91183775663376
335,1184758383,-0.32772293686867,-0.29736110568047,40.35461425781250,0.05799287185073,-0.08117369562387,9.79127883911133,0.15235073864460,-1.05493581295013,-0.94323891401291
336,1184775050,-0.32749181985855,-0.29746109247208,40.35404205322266,0.04397317022085,-0.02542993240058,9.77078914642334,0.16089257597923,-1.05087625980377,-0.88539260625839
337,1184791717,-0.32763916254044,-0.29758799076080,40.35255050659180,0.04120367020369,-0.07985200732946,9.75860595703125,0.13798201084137,-1.05154216289520,-0.94829738140106
338,1184808384,-0.32708987593651,-0.29679375886917,40.35149383544922,0.05547881126404,-0.03507318720222,9.77040386199951,0.18024297058582,-0.99742245674133,-0.87859237194061
339,1184825051,-0.32685881853104,-0.29678916931152,40.34914779663086,0.05928296223283,-0.06396521627903,9.76440048217773,0.16014979779720,-1.04407608509064,-0.95772284269333
340,1184841718,-0.32650691270828,-0.29679268598557,40.34867858886719,0.05068667605519,-0.05438193306327,9.76633358001709,0.16770555078983,-1.04540789127350,-0.84475803375244
341,1184858385,-0.32694783806801,-0.29724463820457,40.34721374511719,0.06513733416796,-0.06297540664673,9.77174758911133,0.12078309059143,-1.07186591625214,-0.91689622402191
342,1184875052,-0.32761040329933,-0.29733037948608,40.34580612182617,0.06726906448603,-0.06549992412329,9.76912593841553,0.10635033994913,-1.05026149749756,-0.90727871656418
343,1184891719,-0.32627344131470,-0.29729899764061,40.34618759155273,0.05723940953612,-0.03666874393821,9.78280258178711,0.22772891819477,-1.04343581199646,-0.82659870386124
344,1184908386,-0.32671329379082,-0.29697355628014,40.34543228149414,0.07621373236179,-0.08443346619606,9.77100944519043,0.12051415443420,-1.02554535865784,-0.86631113290787
345,1184925053,-0.32720828056335,-0.29641667008400,40.34536361694336,0.07136169075966,-0.03343248367310,9.75792407989502,0.11714609712362,-1.01179122924805,-0.87201005220413
346,1184941720,-0.32831424474716,-0.29652062058449,40.34525299072266,0.06351204961538,-0.08815604448318,9.77575969696045,0.08013573288918,-1.05058169364929,-0.89032298326492
347,1184958387,-0.32734641432762,-0.29636275768280,40.34603881835938,0.06586130708456,-0.03928549587727,9.75828742980957,0.20590689778328,-1.03553414344788,-0.84532159566879
348,1184975054,-0.32773941755295,-0.29669523239136,40.34496307373047,0.05717241391540,-0.06931076943874,9.75365257263184,0.12275526672602,-1.06429731845856,-0.88836377859116
349,1184991721,-0.32877123355865,-0.29671266674995,40.34535598754883,0.05012569576502,-0.05406637862325,9.77467727661133,0.08534792065620,-1.04647088050842,-0.80436682701111
350,1185008388,-0.32962736487389,-0.29617294669151,40.34455871582031,0.05523792281747,-0.06107281520963,9.76352024078369,0.09560580551624,-1.01229083538055,-0.90624135732651
351,1185025055,-0.32998421788216,-0.29629504680634,40.34323501586914,0.05685053020716,-0.06555134057999,9.75636672973633,0.12490672618151,-1.05209279060364,-0.91492402553558
352,1185041722,-0.32915607094765,-0.29666662216187,40.34276199340820,0.03729265555739,-0.04414504021406,9.76202487945557,0.19671194255352,-1.06673049926758,-0.89073294401169
353,1185058389,-0.32790285348892,-0.29748991131783,40.34532928466797,0.04414851590991,-0.07927539944649,9.74114799499512,0.22273443639278,-1.09393107891083,-0.84263217449188
354,1185075056,-0.32874014973640,-0.29735276103020,40.34394073486328,0.05381250008941,-0.03816273435950,9.78474044799805,0.09593876451254,-1.03700697422028,-0.90526807308197
355,1185091723,-0.32941120862961,-0.29663622379303,40.34305191040039,0.03884138911963,-0.08551803976297,9.78393173217773,0.10620947182178,-1.00079071521759,-0.95787662267685
356,1185108390,-0.32886540889740,-0.29698139429092,40.34236526489258,0.04601865634322,-0.05105590447783,9.75052928924561,0.17994841933250,-1.06605184078217,-0.91208094358444
357,1185125057,-0.32773786783218,-0.29669448733330,40.34013748168945,0.05234492197633,-0.07871190458536,9.74888801574707,0.21352665126324,-1.02644181251526,-0.98571753501892
358,1185141724,-0.32795724272728,-0.29698058962822,40.33949279785156,0.05774083733559,-0.05571378767490,9.76382350921631,0.13379435241222,-1.06213307380676,-0.86606788635254
359,1185158391,-0.33529344201088,-0.31181091070175,40.33751296997070,0.05222145840526,-0.05707681179047,9.76016998291016,0.13233442604542,-1.03913295269012,-0.85796147584915
360,1185175058,-0.33411842584610,-0.31194415688515,40.33768844604492,0.05221564322710,-0.07696282118559,9.77471828460693,0.21832907199860,-1.04992854595184,-0.85767960548401
361,1185191725,-0.33399170637131,-0.31310269236565,40.33420944213867,0.05126413330436,-0.04269745573401,9.77546215057373,0.15578281879425,-1.11185991764069,-0.94250893592834
362,1185208392,-0.33284282684326,-0.31344190239906,40.33365249633789,0.06036283075809,-0.07297747582197,9.76980209350586,0.21709966659546,-1.06305503845215,-0.84685838222504
363,1185225059,-0.33273869752884,-0.31435784697533,40.33370208740234,0.05193843320012,-0.03232084587216,9.75086688995361,0.15533462166786,-1.09736335277557,-0.86373704671860
364,1185241726,-0.33324196934700,-0.31379318237305,40.33361053466797,0.05744426324964,-0.07656407356262,9.76719188690186,0.11806814372540,-1.00793659687042,-0.86649048328400
365,1185258393,-0.33297032117844,-0.31469914317131,40.33115386962891,0.05267123132944,-0.03915666043758,9.77184963226318,0.16379961371422,-1.09633874893188,-0.88809472322464
366,1185275060,-0.33280882239342,-0.31549358367920,40.33155441284180,0.05741714686155,-0.07430613785982,9.78069686889648,0.15821605920792,-1.08999967575073,-0.87961703538895
367,1185291727,-0.33399054408073,-0.31558385491371,40.33228302001953,0.07309214770794,-0.05637594312429,9.75865268707275,0.07733114063740,-1.04834055900574,-0.83597284555435
368,1185308394,-0.33383664488792,-0.31563213467598,40.33173751831055,0.05957215279341,-0.04735679179430,9.77594184875488,0.15730680525303,-1.04490852355957,-0.88651961088181
369,1185325061,-0.33313369750977,-0.31561812758446,40.33058547973633,0.07290013134480,-0.06160324066877,9.76585960388184,0.19051368534565,-1.04077208042145,-0.97967302799225
370,1185341728,-0.33481070399284,-0.31611853837967,40.33090209960938,0.07485153526068,-0.04392565041780,9.75453090667725,0.04713377356529,-1.07263422012329,-0.91133826971054
371,1185358395,-0.33466967940331,-0.31665724515915,40.32984924316406,0.05867223814130,-0.05835661292076,9.75976085662842,0.15670488774776,-1.07438874244690,-0.86495363712311
372,1185375062,-0.33480215072632,-0.31692835688591,40.33176803588867,0.07275997847319,-0.04215560853481,9.75631141662598,0.13954439759254,-1.05821430683136,-0.89289718866348
373,1185391729,-0.33439642190933,-0.31734517216682,40.33054733276367,0.06252722442150,-0.07399938255548,9.78337192535400,0.17258477210999,-1.06684565544128,-0.94072878360748
374,1185408396,-0.33423587679863,-0.31735908985138,40.32817459106445,0.05395526438951,-0.04265076667070,9.76464653015137,0.15703786909580,-1.04292345046997,-0.93348044157028
375,1185425063,-0.33524325489998,-0.31780996918678,40.32902145385742,0.06031121686101,-0.05774472281337,9.74800491333008,0.08852389454842,-1.06858754158020,-0.84553933143616
376,1185441730,-0.33484640717506,-0.31807658076286,40.32997131347656,0.05497086420655,-0.05097051709890,9.73682212829590,0.17208532989025,-1.05848336219788,-0.81342101097107
377,1185458397,-0.33454516530037,-0.31670629978180,40.32867813110352,0.06242727488279,-0.06268458813429,9.75775432586670,0.16598951816559,-0.95951575040817,-0.93472272157669
378,1185475064,-0.33465799689293,-0.31739813089371,40.32913208007812,0.04845931008458,-0.05826728045940,9.76787662506104,0.14095309376717,-1.08407032489777,-0.83364218473434
379,1185491731,-0.33486431837082,-0.31836062669754,40.32846832275391,0.04315272346139,-0.04402763396502,9.76390361785889,0.13590738177299,-1.09983479976654,-0.92035388946533
380,1185508398,-0.33460396528244,-0.31850916147232,40.32569885253906,0.04364242032170,-0.07153452187777,9.75652980804443,0.16385084390640,-1.05174708366394,-0.83689498901367
381,1185525065,-0.33415928483009,-0.31905627250671,40.32545471191406,0.04490525647998,-0.03913919627666,9.74585819244385,0.17435204982758,-1.07419669628143,-0.93022757768631
382,1185541732,-0.33469668030739,-0.31711789965630,40.32544326782227,0.05129934847355,-0.07027962803841,9.77014350891113,0.11610877513885,-0.92607843875885,-0.85819196701050
383,1185558399,-0.33571308851242,-0.31698685884476,40.32441711425781,0.04812187701464,-0.04316114261746,9.75176906585693,0.08697433024645,-1.03477859497070,-0.90081143379211
384,1185575066,-0.33582204580307,-0.31646561622620,40.32203674316406,0.03393033146858,-0.07847743481398,9.76559734344482,0.14088906347752,-1.00988316535950,-0.99792200326920
385,1185591733,-0.33513003587723,-0.31661248207092,40.32082748413086,0.04903405159712,-0.04451477155089,9.77080154418945,0.18951475620270,-1.05155503749847,-0.86313521862030
386,1185608400,-0.33481991291046,-0.31667163968086,40.31863403320312,0.05165269970894,-0.06618160754442,9.76487541198730,0.16642491519451,-1.04577922821045,-0.91528260707855
387,1185625067,-0.33486062288284,-0.31736573576927,40.31617355346680,0.05247539281845,-0.07424596697092,9.76255130767822,0.14594757556915,-1.08349394798279,-0.87679952383041
388,1185641734,-0.33529299497604,-0.31711798906326,40.31589889526367,0.04638089239597,-0.05273441970348,9.75760364532471,0.12167954444885,-1.02801704406738,-0.87828510999680
389,1185658401,-0.33448097109795,-0.31687209010124,40.31394195556641,0.06871391087770,-0.06769292056561,9.76763534545898,0.19707050919533,-1.02694118022919,-0.90909713506699
390,1185675068,-0.33457577228546,-0.31765213608742,40.31160354614258,0.07059058547020,-0.04720280319452,9.75253200531006,0.14192637801170,-1.08893668651581,-0.90777802467346
391,1185691735,-0.33358505368233,-0.31595900654793,40.31090545654297,0.05468712374568,-0.07226651906967,9.78116989135742,0.20700824260712,-0.94042152166367,-0.94417375326157
392,1185708402,-0.33316013216972,-0.31713372468948,40.31138610839844,0.07002857327461,-0.05405806750059,9.76174068450928,0.17415995895863,-1.11370432376862,-0.81660974025726
393,1185725069,-0.33314979076385,-0.31760224699974,40.31067657470703,0.04626874625683,-0.06913554668427,9.77173995971680,0.14881619811058,-1.06980407238007,-0.91413009166718
394,1185741736,-0.33195206522942,-0.31698247790337,40.31076812744141,0.06037296727300,-0.05301631987095,9.74606704711914,0.21953286230564,-1.00522172451019,-0.90003037452698
395,1185758403,-0.33219540119171,-0.31759530305862,40.31115722656250,0.05072263628244,-0.04167724773288,9.75837516784668,0.13335891067982,-1.07902455329895,-0.83749687671661
396,1185775070,-0.33097180724144,-0.31771117448807,40.31105804443359,0.05191540345550,-0.08616672456264,9.78913688659668,0.22167152166367,-1.04955732822418,-0.90229701995850
397,1185791737,-0.33125683665276,-0.31748902797699,40.30988311767578,0.06977550685406,-0.04306581988931,9.74944972991943,0.13047750294209,-1.02899014949799,-0.92409342527390
398,1185808404,-0.33264508843422,-0.31729862093925,40.30862808227539,0.06491920351982,-0.07740523666143,9.76963710784912,0.06490898877382,-1.03038609027863,-0.88147389888763
399,1185825071,-0.33357319235802,-0.31693410873413,40.31058502197266,0.07310753315687,-0.03913550451398,9.74595737457275,0.09283963590860,-1.02113997936249,-0.83311712741852
400,1185841738,-0.33343321084976,-0.31803742051125,40.30982208251953,0.06394828855991,-0.05909086018801,9.77461528778076,0.15619264543056,-1.10812067985535,-0.90694558620453
401,1185858405,-0.33455491065979,-0.31841796636581,40.30815505981445,0.04757829010487,-0.03601940348744,9.76351928710938,0.08026380091906,-1.06482243537903,-0.95534092187881
402,1185875072,-0.33570367097855,-0.31754562258720,40.30851745605469,0.06865371018648,-0.06795752793550,9.76116466522217,0.07995644956827,-0.98987960815430,-0.84247863292694
403,1185891739,-0.33602738380432,-0.31750100851059,40.30565643310547,0.04517669975758,-0.05664770677686,9.76131439208984,0.12759606540203,-1.03932499885559,-0.95274126529694
404,1185908406,-0.33639502525330,-0.31820398569107,40.30601882934570,0.05017815157771,-0.06331924349070,9.77137756347656,0.12599526345730,-1.08430087566376,-0.91031372547150
405,1185925073,-0.33568799495697,-0.31851172447205,40.30397033691406,0.04342008382082,-0.06237392500043,9.74487876892090,0.19085942208767,-1.06016087532043,-0.89152687788010
406,1185941740,-0.33495879173279,-0.31872925162315,40.30289840698242,0.04621372744441,-0.04497361555696,9.77216815948486,0.19164061546326,-1.05540978908539,-0.91465520858765
407,1185958407,-0.33420661091805,-0.31821447610855,40.30437469482422,0.04276730120182,-0.05237514898181,9.77962112426758,0.19280599057674,-1.01176559925079,-0.81891489028931
408,1185975074,-0.33395120501518,-0.31772848963737,40.30218124389648,0.05501182377338,-0.05200026556849,9.75906085968018,0.16346664726734,-1.01282858848572,-0.94784915447235
409,1185991741,-0.33504521846771,-0.31829875707626,40.30410766601562,0.02809522300959,-0.07144419103861,9.75494289398193,0.08264578133821,-1.07748782634735,-0.79587620496750
410,1186008408,-0.33441248536110,-0.31918981671333,40.30338287353516,0.04563668370247,-0.05366122350097,9.77484321594238,0.18562161922455,-1.09596741199493,-0.90082418918610
411,1186025075,-0.33407092094421,-0.31929972767830,40.30143737792969,0.05905681103468,-0.06764206290245,9.77760219573975,0.16906301677227,-1.04894256591797,-0.87555736303329
412,1186041742,-0.33396300673485,-0.31890380382538,40.30111312866211,0.04789761453867,-0.05757511034608,9.78372955322266,0.15415643155575,-1.01851463317871,-0.87738871574402
413,1186058409,-0.33351579308510,-0.31837034225464,40.29934310913086,0.03537119552493,-0.05831225588918,9.74230003356934,0.17455695569515,-1.00975501537323,-0.93797546625137
414,1186075076,-0.33328607678413,-0.31769737601280,40.29827880859375,0.06446886807680,-0.04748072847724,9.75259399414062,0.16159690916538,-1.00204563140869,-0.91502648591995
415,1186091743,-0.33293136954308,-0.31698665022850,40.29804229736328,0.04005736857653,-0.05056541040540,9.78286170959473,0.16896058619022,-0.99989414215088,-0.90072178840637
416,1186108410,-0.33236685395241,-0.31739258766174,40.29808807373047,0.06441657245159,-0.07549042999744,9.76970291137695,0.18240723013878,-1.06711459159851,-0.86314791440964
417,1186125077,-0.33241114020348,-0.31762045621872,40.29778289794922,0.05751662701368,-0.04300578311086,9.76275730133057,0.14528164267540,-1.05628049373627,-0.89463883638382
418,1186141744,-0.33128425478935,-0.31818911433220,40.29718399047852,0.06207070499659,-0.07373301684856,9.75593376159668,0.21553727984428,-1.07572078704834,-0.91868919134140
419,1186158411,-0.33105421066284,-0.31866428256035,40.29657363891602,0.07049681991339,-0.03353190794587,9.78656578063965,0.16239091753960,-1.07186591625214,-0.80759412050247
420,1186175078,-0.33229872584343,-0.31848925352097,40.29546737670898,0.05824173241854,-0.06649288535118,9.75608634948730,0.07236228138208,-1.03130817413330,-0.95849132537842
421,1186191745,-0.33295449614525,-0.31876671314240,40.29468536376953,0.06038408353925,-0.04780728369951,9.76494598388672,0.10827127844095,-1.05922603607178,-0.89722573757172
422,1186208412,-0.33343467116356,-0.31842076778412,40.29499816894531,0.07693773508072,-0.06713015586138,9.76646995544434,0.11922072619200,-1.02140879631042,-0.87362354993820
423,1186225079,-0.33228030800819,-0.31842228770256,40.29361724853516,0.05469912290573,-0.05292962491512,9.76377773284912,0.21738140285015,-1.04282104969025,-0.92582219839096
424,1186241746,-0.33261647820473,-0.31726324558258,40.29358291625977,0.05340982973576,-0.05756786093116,9.75430202484131,0.12781378626823,-0.97294968366623,-0.83925133943558
425,1186258413,-0.33316886425018,-0.31772434711456,40.29244232177734,0.06127355992794,-0.08401730656624,9.77831459045410,0.11463604122400,-1.06988096237183,-0.92224931716919
426,1186275080,-0.33220168948174,-0.31772857904434,40.29169082641602,0.05966566875577,-0.04567820206285,9.75300407409668,0.20636792480946,-1.04269289970398,-0.84210711717606
427,1186291747,-0.33227071166039,-0.31750997900963,40.29098510742188,0.05071008950472,-0.06950104236603,9.75515556335449,0.14336067438126,-1.02947676181793,-0.90149009227753
428,1186308414,-0.33365198969841,-0.31677028536797,40.29055023193359,0.05685913562775,-0.03914855420589,9.76964187622070,0.06480652838945,-0.99794763326645,-0.93120098114014
429,1186325081,-0.33430892229080,-0.31644201278687,40.29131317138672,0.05082187429070,-0.06639251857996,9.79090309143066,0.10895002633333,-1.02266395092010,-0.84340053796768
430,1186341748,-0.33440962433815,-0.31667697429657,40.28865814208984,0.05699715018272,-0.05012468993664,9.78079891204834,0.14152938127518,-1.05570423603058,-0.96451032161713
431,1186358415,-0.33533084392548,-0.31789657473564,40.28864288330078,0.05034327134490,-0.05656906962395,9.76469039916992,0.09267315268517,-1.11613750457764,-0.88344609737396
432,1186375082,-0.33439436554909,-0.31721341609955,40.28783035278320,0.05480677261949,-0.04683524742723,9.76148223876953,0.20452381670475,-1.00068819522858,-0.90999358892441
433,1186391749,-0.33509510755539,-0.31614828109741,40.28781509399414,0.05555493384600,-0.04490303620696,9.74692916870117,0.10536425560713,-0.97844362258911,-0.92259508371353
434,1186408416,-0.33552306890488,-0.31542915105820,40.28783035278320,0.04773984476924,-0.06675514578819,9.76645469665527,0.12256318330765,-0.99988144636154,-0.85524654388428
435,1186425083,-0.33667662739754,-0.31402987241745,40.28357696533203,0.04343629628420,-0.04785447195172,9.77149295806885,0.07774094492197,-0.95783817768097,-1.01148402690887
436,1186441750,-0.33613365888596,-0.31355372071266,40.28433227539062,0.05351876094937,-0.07722481340170,9.75838947296143,0.18121625483036,-1.01371228694916,-0.83931529521942
437,1186458417,-0.33661758899689,-0.31394675374031,40.28474807739258,0.03815437853336,-0.04025604203343,9.75058269500732,0.11826023459435,-1.06623101234436,-0.87824660539627
438,1186475084,-0.33511862158775,-0.31288775801659,40.28450393676758,0.06238050013781,-0.08406648784876,9.77388095855713,0.23780752718449,-0.97896867990494,-0.89859604835510
439,1186491751,-0.33371794223785,-0.31321385502815,40.28379440307617,0.06136815994978,-0.03144016116858,9.76190662384033,0.23212149739265,-1.06215870380402,-0.87028115987778
440,1186508418,-0.33326685428619,-0.31254643201828,40.28203201293945,0.05609693750739,-0.06062193959951,9.73791027069092,0.17449291050434,-1.00209689140320,-0.95422661304474
441,1186525085,-0.33247181773186,-0.31222015619278,40.28137588500977,0.05578619614244,-0.05553004890680,9.76501083374023,0.19617407023907,-1.02322733402252,-0.79669582843781
442,1186541752,-0.33320000767708,-0.31259676814079,40.27819824218750,0.06148441880941,-0.05560167133808,9.77213668823242,0.10332804173231,-1.06427168846130,-1.00070095062256
443,1186558419,-0.33242458105087,-0.31376615166664,40.27764892578125,0.06773597002029,-0.06595167517662,9.76540279388428,0.19548250734806,-1.11372983455658,-0.78760325908661
444,1186575086,-0.33241125941277,-0.31416028738022,40.27803039550781,0.05867239832878,-0.03748401999474,9.75425338745117,0.14867532253265,-1.06607747077942,-0.85483670234680
445,1186591753,-0.33159369230270,-0.31349876523018,40.27794647216797,0.05428218841553,-0.06532079726458,9.77080154418945,0.19733947515488,-1.00289082527161,-0.82337152957916
446,1186608420,-0.33054342865944,-0.31279352307320,40.27650070190430,0.05520873516798,-0.04565054178238,9.76681804656982,0.21106784045696,-0.99976617097855,-0.92146807909012
447,1186625087,-0.33155596256256,-0.31357985734940,40.27236175537109,0.06255853176117,-0.06849442422390,9.77988910675049,0.08582174777985,-1.08870613574982,-1.02399563789368
448,1186641754,-0.33091512322426,-0.31319701671600,40.27278900146484,0.05744479969144,-0.04059379920363,9.76995563507080,0.18631315231323,-1.01975679397583,-0.87930941581726
449,1186658421,-0.33146083354950,-0.31328293681145,40.27241516113281,0.05979603528976,-0.05071239173412,9.73703002929688,0.11566055566072,-1.04786670207977,-0.88984924554825
450,1186675088,-0.32979568839073,-0.31426692008972,40.27218246459961,0.05958518013358,-0.05950478091836,9.76636028289795,0.24756594002247,-1.10148692131042,-0.84820294380188
451,1186691755,-0.33053985238075,-0.31343477964401,40.27257156372070,0.06528927385807,-0.04970979690552,9.73894023895264,0.10268771648407,-0.99245363473892,-0.86317366361618
452,1186708422,-0.33024170994759,-0.31419494748116,40.27096557617188,0.06596771627665,-0.06295000761747,9.77853965759277,0.16531077027321,-1.08763051033020,-0.95545607805252
453,1186725089,-0.33042144775391,-0.31244173645973,40.27218246459961,0.05929640680552,-0.03338398784399,9.76599693298340,0.13732889294624,-0.93732243776321,-0.81511139869690
454,1186741756,-0.33096802234650,-0.31279960274696,40.27141571044922,0.04924967139959,-0.08899857848883,9.76187610626221,0.11484093219042,-1.06392598152161,-0.91520577669144
455,1186758423,-0.33161345124245,-0.31215754151344,40.27021789550781,0.03866523504257,-0.04689599946141,9.76627826690674,0.10951349139214,-1.00350546836853,-0.92861396074295
456,1186775090,-0.33237105607986,-0.31203934550285,40.27074813842773,0.06130845844746,-0.07273073494434,9.77167320251465,0.10239316523075,-1.03603374958038,-0.84550082683563
457,1186791757,-0.33231613039970,-0.31193950772285,40.27014160156250,0.04939901083708,-0.04367905482650,9.77659893035889,0.15110851824284,-1.03607201576233,-0.89089941978455
458,1186808424,-0.33192679286003,-0.31081604957581,40.26824188232422,0.05235501751304,-0.07921672612429,9.77297401428223,0.17107361555099,-0.97448647022247,-0.94147169589996
459,1186825091,-0.33146247267723,-0.31053110957146,40.26799774169922,0.04350446537137,-0.05370452627540,9.74429225921631,0.17559427022934,-1.02613449096680,-0.86227709054947
460,1186841758,-0.33203461766243,-0.31035166978836,40.26683807373047,0.05288678407669,-0.05954803898931,9.77129840850830,0.11375240236521,-1.03167963027954,-0.88011634349823
461,1186858425,-0.33138975501060,-0.31019055843353,40.26696395874023,0.05248560383916,-0.06037213653326,9.77919101715088,0.18672299385071,-1.03265285491943,-0.83834213018417
462,1186875092,-0.32914036512375,-0.31113877892494,40.26609039306641,0.04833872988820,-0.05150304734707,9.76975536346436,0.28254011273384,-1.09998857975006,-0.90286052227020
463,1186891759,-0.32909837365150,-0.31171280145645,40.26539993286133,0.05083260685205,-0.06871617585421,9.74352550506592,0.15008401870728,-1.07674515247345,-0.90530657768250
464,1186908426,-0.32914403080940,-0.31288242340088,40.26437377929688,0.05444168299437,-0.05691775679588,9.76267147064209,0.14530724287033,-1.11203932762146,-0.94498056173325
465,1186925093,-0.32950580120087,-0.31339073181152,40.26477813720703,0.05534891411662,-0.06333945691586,9.75471115112305,0.12531653046608,-1.07335138320923,-0.90361601114273
466,1186941760,-0.32923445105553,-0.31342846155167,40.26453781127930,0.06147437170148,-0.03652212023735,9.77200031280518,0.16436311602592,-1.04434514045715,-0.87376451492310
467,1186958427,-0.32868018746376,-0.31263408064842,40.26484298706055,0.06462948769331,-0.06928394734859,9.76459598541260,0.18098573386669,-0.99479734897614,-0.87546771764755
468,1186975094,-0.32840004563332,-0.31230840086937,40.26519393920898,0.05336145311594,-0.05034942924976,9.75310325622559,0.16554127633572,-1.02326571941376,-0.82799452543259
469,1186991761,-0.32854601740837,-0.31218698620796,40.26492691040039,0.06040710955858,-0.05221667885780,9.74793529510498,0.13877600431442,-1.03541886806488,-0.89018213748932
470,1187008428,-0.32915654778481,-0.31299826502800,40.26909637451172,0.05723236501217,-0.07077106833458,9.77248573303223,0.11147287487984,-1.09210002422333,-0.79134279489517
471,1187025095,-0.32907316088676,-0.31201857328415,40.27010345458984,0.05086088553071,-0.05425497144461,9.75299644470215,0.15319596230984,-0.98361736536026,-0.81687861680984
472,1187041762,-0.32875069975853,-0.31154495477676,40.27067947387695,0.06124767661095,-0.05804769322276,9.78254508972168,0.16761590540409,-1.01459574699402,-0.87195879220963
473,1187058429,-0.32862061262131,-0.31102764606476,40.27165222167969,0.06063641607761,-0.05829127877951,9.75807285308838,0.15575723350048,-1.01135599613190,-0.88512372970581
474,1187075096,-0.32767036557198,-0.31149834394455,40.27084350585938,0.05105500295758,-0.06870775669813,9.74720382690430,0.20421646535397,-1.07008588314056,-0.95969504117966
475,1187091763,-0.32711768150330,-0.31097832322121,40.26980590820312,0.06356102973223,-0.05201224610209,9.76109218597412,0.18099851906300,-1.01166319847107,-0.90099066495895
476,1187108430,-0.32854765653610,-0.31151556968689,40.26922988891602,0.06052988022566,-0.06241827830672,9.76872539520264,0.06214281544089,-1.07420945167542,-0.90164387226105
477,1187125097,-0.32867279648781,-0.31110319495201,40.26921081542969,0.04541332274675,-0.04599176347256,9.76623439788818,0.14005665481091,-1.01800251007080,-0.86916702985764
478,1187141764,-0.32943627238274,-0.31037417054176,40.26947021484375,0.05333403497934,-0.07642253488302,9.76178550720215,0.10252124071121,-0.99838304519653,-0.89301246404648
479,1187158431,-0.33369278907776,-0.31303632259369,40.26671218872070,0.05227310210466,-0.05753072351217,9.73787021636963,0.11268948018551,-1.11914694309235,-0.92463129758835
480,1187175098,-0.33333882689476,-0.31327232718468,40.26793670654297,0.05385492742062,-0.06717915832996,9.76232147216797,0.17025402188301,-1.05715131759644,-0.77141600847244
481,1187191765,-0.33227545022964,-0.31344300508499,40.26747131347656,0.03641162812710,-0.05541106313467,9.76030731201172,0.21211796998978,-1.05298936367035,-0.85935735702515
482,1187208432,-0.33337813615799,-0.31352451443672,40.26645278930664,0.05758058279753,-0.05816615745425,9.76052284240723,0.08277383446693,-1.04732894897461,-0.87792646884918
483,1187225099,-0.33336365222931,-0.31374332308769,40.26661682128906,0.04673696309328,-0.07710030674934,9.76403903961182,0.14908513426781,-1.05530738830566,-0.85639905929565
484,1187241766,-0.33455049991608,-0.31178659200668,40.26681518554688,0.04458000138402,-0.04696427285671,9.76109600067139,0.07734394818544,-0.92469525337219,-0.92495137453079
485,1187258433,-0.33520215749741,-0.31121939420700,40.26751708984375,0.04385934770107,-0.05457741394639,9.75628089904785,0.10897564142942,-1.00894820690155,-0.82512593269348
486,1187275100,-0.33586040139198,-0.31086951494217,40.26739883422852,0.04681739583611,-0.05136008933187,9.76632785797119,0.10873232036829,-1.02099907398224,-0.95016717910767
487,1187291767,-0.33498024940491,-0.31177836656570,40.26924514770508,0.05554232001305,-0.06589082628489,9.76686096191406,0.20148868858814,-1.09694063663483,-0.81956797838211
488,1187308434,-0.33517071604729,-0.31153759360313,40.26828384399414,0.04080468416214,-0.05850911140442,9.76000308990479,0.13709838688374,-1.02820909023285,-0.93988364934921
489,1187325101,-0.33542969822884,-0.31124773621559,40.26900100708008,0.04895684495568,-0.04907896369696,9.76450634002686,0.13333329558372,-1.02522504329681,-0.86636233329773
490,1187341768,-0.33425164222717,-0.31111735105515,40.27027130126953,0.04516027867794,-0.06784658879042,9.77163887023926,0.21896935999393,-1.03434324264526,-0.84137713909149
491,1187358435,-0.33546158671379,-0.31093597412109,40.27030944824219,0.05149745196104,-0.05418101325631,9.75590610504150,0.07584560662508,-1.03228151798248,-0.87022995948792
492,1187375102,-0.33491683006287,-0.30965945124626,40.27089309692383,0.06413934379816,-0.06429259479046,9.77978038787842,0.18147234618664,-0.96582919359207,-0.83275842666626
493,1187391769,-0.33486518263817,-0.30914741754532,40.27237319946289,0.08109464496374,-0.05087987706065,9.78001403808594,0.15167200565338,-1.01197063922882,-0.88522619009018
494,1187408436,-0.33497211337090,-0.30873137712479,40.27404022216797,0.06719032675028,-0.08061675727367,9.75473022460938,0.14164462685585,-1.01741337776184,-0.86960238218307
495,1187425103,-0.33540856838226,-0.30914473533630,40.27561950683594,0.06448792666197,-0.05686486139894,9.76223564147949,0.12276805937290,-1.06664085388184,-0.88909357786179
496,1187441770,-0.33469414710999,-0.30920282006264,40.27581787109375,0.06654879450798,-0.07592342793941,9.76389884948730,0.19123081862926,-1.04590737819672,-0.90274524688721
497,1187458437,-0.33450719714165,-0.30931779742241,40.27706527709961,0.06690244376659,-0.05076939240098,9.76721286773682,0.15926617383957,-1.04941642284393,-0.88216549158096
498,1187475104,-0.33451065421104,-0.30871230363846,40.27762222290039,0.07377447932959,-0.04052846878767,9.77001571655273,0.14864970743656,-1.00618219375610,-0.85465741157532
499,1187491771,-0.33451271057129,-0.30903413891792,40.27875900268555,0.06645382940769,-0.05178060010076,9.75430774688721,0.14868812263012,-1.06142866611481,-0.78241682052612
500,1187508438,-0.33453920483589,-0.30966293811798,40.27761077880859,0.05241429433227,-0.05900939553976,9.76543045043945,0.14611403644085,-1.07992100715637,-0.95092266798019
501,1187525105,-0.33448791503906,-0.30887883901596,40.27776718139648,0.05428086221218,-0.05860721319914,9.77488231658936,0.15159517526627,-0.99539923667908,-0.86083006858826
502,1187541772,-0.33552068471909,-0.30867636203766,40.27796554565430,0.05219007655978,-0.04586431384087,9.78356075286865,0.08674380183220,-1.03020668029785,-0.86622148752213
503,1187558439,-0.33516645431519,-0.31018576025963,40.27748107910156,0.05836064368486,-0.07302800565958,9.76277065277100,0.16997227072716,-1.13316988945007,-0.91104370355606
504,1187575106,-0.33526679873466,-0.30954509973526,40.27771377563477,0.04189541563392,-0.05847781524062,9.76886081695557,0.14190076291561,-1.00321102142334,-0.90784209966660
505,1187591773,-0.33588889241219,-0.30910986661911,40.27856063842773,0.06036096811295,-0.04885286092758,9.75042915344238,0.11201072484255,-1.01676011085510,-0.83703577518463
506,1187608440,-0.33610358834267,-0.31003096699715,40.27973937988281,0.04393260926008,-0.06486053764820,9.75666618347168,0.13577933609486,-1.09768354892731,-0.84375923871994
507,1187625107,-0.33672863245010,-0.30949646234512,40.28058242797852,0.05472351610661,-0.06630618870258,9.74998950958252,0.11078131943941,-1.01089477539062,-0.81561082601547
508,1187641774,-0.33623644709587,-0.30809023976326,40.27832794189453,0.05701896920800,-0.05546890571713,9.77937030792236,0.17780977487564,-0.95731300115585,-0.91534662246704
509,1187658441,-0.33675262331963,-0.30745288729668,40.27721405029297,0.04721097648144,-0.04476082697511,9.77353954315186,0.11710767447948,-1.00413310527802,-0.90930211544037
510,1187675108,-0.33613508939743,-0.30803376436234,40.27660369873047,0.05519453808665,-0.07628529518843,9.74968242645264,0.18606984615326,-1.07680916786194,-0.89000272750854
511,1187691775,-0.33687397837639,-0.30855125188828,40.27592468261719,0.03961224108934,-0.03405424952507,9.74377346038818,0.10317436605692,-1.07367157936096,-0.92560452222824
512,1187708442,-0.33727121353149,-0.30849394202232,40.27447509765625,0.04752086475492,-0.06788565218449,9.76915073394775,0.12504760921001,-1.03840291500092,-0.92113512754440
513,1187725109,-0.33785733580589,-0.30890542268753,40.27405929565430,0.05689138174057,-0.06007342040539,9.77995777130127,0.11297120898962,-1.06738352775574,-0.85810226202011
514,1187741776,-0.33880913257599,-0.30948096513748,40.27271652221680,0.06788153946400,-0.07463558763266,9.75879383087158,0.09112358093262,-1.07655298709869,-0.88184529542923
515,1187758443,-0.33784466981888,-0.31056526303291,40.27257919311523,0.05125827342272,-0.04557220637798,9.75348567962646,0.20638073980808,-1.10691690444946,-0.89881372451782
516,1187775110,-0.33836311101913,-0.31127938628197,40.27141952514648,0.04853085428476,-0.08193198591471,9.75004100799561,0.11754308640957,-1.08501803874969,-0.90937894582748
517,1187791777,-0.33786013722420,-0.31108668446541,40.27081680297852,0.05469454452395,-0.04941726475954,9.77259922027588,0.17796346545219,-1.03062939643860,-0.90159267187119
518,1187808444,-0.33763995766640,-0.31094288825989,40.26807022094727,0.05102841556072,-0.05276044085622,9.75797080993652,0.16177621483803,-1.03360056877136,-0.99424666166306
519,1187825111,-0.33826968073845,-0.31053104996681,40.26734542846680,0.06811954826117,-0.05404300987720,9.76229858398438,0.11046117544174,-1.01708042621613,-0.89973580837250
520,1187841778,-0.33720472455025,-0.31040647625923,40.26480865478516,0.05328485369682,-0.04413472488523,9.75361824035645,0.21178500354290,-1.03477871417999,-0.95703136920929
521,1187858445,-0.33822399377823,-0.31069615483284,40.26309967041016,0.06513472646475,-0.06350430846214,9.76863098144531,0.08648768812418,-1.05884170532227,-0.94683742523193
522,1187875112,-0.33906883001328,-0.31072938442230,40.26343917846680,0.05756765231490,-0.04992439597845,9.76614093780518,0.09751395136118,-1.04453718662262,-0.90998089313507
523,1187891779,-0.33914473652840,-0.31139504909515,40.26252365112305,0.05208875611424,-0.07403609901667,9.75157451629639,0.14373207092285,-1.08141946792603,-0.95119166374207
524,1187908446,-0.33934432268143,-0.31222519278526,40.26261138916016,0.05233583971858,-0.04916219785810,9.74285030364990,0.13659892976284,-1.09211266040802,-0.90517842769623
525,1187925113,-0.33993494510651,-0.31216588616371,40.26134872436523,0.05195794627070,-0.05084112659097,9.76571655273438,0.11291999369860,-1.03892803192139,-0.93935859203339
526,1187941780,-0.33963894844055,-0.31274729967117,40.26110458374023,0.06561617553234,-0.05986793339252,9.78287220001221,0.16546443104744,-1.07686030864716,-0.89206463098526
527,1187958447,-0.34047067165375,-0.31170392036438,40.25971984863281,0.06283105909824,-0.06606962531805,9.75896358489990,0.09852565824986,-0.97916078567505,-0.95455974340439
528,1187975114,-0.33943399786949,-0.31057754158974,40.25925445556641,0.04820377379656,-0.08815088123083,9.78198623657227,0.20995369553566,-0.97497302293777,-0.89766103029251
529,1187991781,-0.33987879753113,-0.31114825606346,40.25775527954102,0.05870635807514,-0.05353597551584,9.76101207733154,0.12175638228655,-1.07581031322479,-0.96360105276108
530,1188008448,-0.33918550610542,-0.31276735663414,40.25687408447266,0.06269444525242,-0.08538085222244,9.75563716888428,0.18977089226246,-1.13904798030853,-0.92059725522995
531,1188025115,-0.33918997645378,-0.31251770257950,40.25686264038086,0.05989164859056,-0.04034619405866,9.76232814788818,0.14852163195610,-1.02779924869537,-0.88722395896912
532,1188041782,-0.33957567811012,-0.31350168585777,40.25557327270508,0.04890662431717,-0.07125017791986,9.78231906890869,0.12536776065826,-1.10129487514496,-0.90018391609192
533,1188058449,-0.34041574597359,-0.31385603547096,40.25413513183594,0.05084524303675,-0.04754900559783,9.73809337615967,0.09744991362095,-1.06293964385986,-0.90662544965744
534,1188075116,-0.34019637107849,-0.31459751725197,40.25403594970703,0.05632787942886,-0.06495364010334,9.77169895172119,0.16177621483803,-1.08699023723602,-0.87617200613022
535,1188091783,-0.33963152766228,-0.31467825174332,40.25485229492188,0.04894549027085,-0.04175443202257,9.78374004364014,0.18242004513741,-1.04736721515656,-0.85194247961044
536,1188108450,-0.34007319808006,-0.31404525041580,40.25387573242188,0.04188244044781,-0.07270106673241,9.74838161468506,0.12165391445160,-1.00427389144897,-0.96371620893478
537,1188125117,-0.34023609757423,-0.31388488411903,40.25320434570312,0.06017978861928,-0.04681530222297,9.76632881164551,0.13832777738571,-1.03214049339294,-0.90460211038589
538,1188141784,-0.34125107526779,-0.31333699822426,40.25276947021484,0.05340796709061,-0.04527333006263,9.74836730957031,0.08767867833376,-1.00998556613922,-0.89000296592712
539,1188158451,-0.34056943655014,-0.31259790062904,40.25244140625000,0.05005633085966,-0.06858682632446,9.77525520324707,0.18954038619995,-0.99794763326645,-0.89442110061646
540,1188175118,-0.34020963311195,-0.31226950883865,40.25119400024414,0.06462027877569,-0.03865228220820,9.77508163452148,0.16921669244766,-1.02148568630219,-0.95102506875992
541,1188191785,-0.34021872282028,-0.31197360157967,40.25155258178711,0.05787032842636,-0.07028295099735,9.75735092163086,0.14802220463753,-1.02503311634064,-0.91132545471191
542,1188208452,-0.33908465504646,-0.31208804249763,40.24972915649414,0.05934891477227,-0.04693982377648,9.74578094482422,0.21626724302769,-1.04841744899750,-0.99338859319687
543,1188225119,-0.33865001797676,-0.31229779124260,40.24998855590820,0.07012423872948,-0.07376861572266,9.76295375823975,0.17395506799221,-1.05484628677368,-0.86285346746445
544,1188241786,-0.33975782990456,-0.31208401918411,40.24908447265625,0.06628667563200,-0.05033167824149,9.75859642028809,0.08231281489134,-1.02978420257568,-0.91245234012604
545,1188258453,-0.34010159969330,-0.31177374720573,40.25074386596680,0.05817357823253,-0.05051075667143,9.77528762817383,0.12785220146179,-1.02379083633423,-0.81575167179108
546,1188275120,-0.34016883373260,-0.31157770752907,40.25143432617188,0.04613903909922,-0.05235031619668,9.76852893829346,0.14493587613106,-1.03057825565338,-0.86409574747086
547,1188291787,-0.33989635109901,-0.31228357553482,40.24940872192383,0.05335273593664,-0.04129332676530,9.75349617004395,0.16447834670544,-1.08454406261444,-0.94262415170670
548,1188308454,-0.33918312191963,-0.31337654590607,40.24825668334961,0.05190682783723,-0.07008726149797,9.75713634490967,0.19066734611988,-1.10773646831512,-0.89590650796890
549,1188325121,-0.33989003300667,-0.31368061900139,40.24824905395508,0.05089580267668,-0.03326353430748,9.75188255310059,0.10615822672844,-1.06072437763214,-0.87044751644135
550,1188341788,-0.34017223119736,-0.31405344605446,40.24868011474609,0.06282988935709,-0.07218024134636,9.76571559906006,0.13177093863487,-1.06411802768707,-0.89235931634903
551,1188358455,-0.34127297997475,-0.31420177221298,40.24787521362305,0.06614459306002,-0.03043865785003,9.74187946319580,0.08197985589504,-1.05137562751770,-0.90484553575516
552,1188375122,-0.34264823794365,-0.31412327289581,40.24628829956055,0.06527362763882,-0.07018073648214,9.77364635467529,0.06490898132324,-1.03700709342957,-0.97781610488892
553,1188391789,-0.34260246157646,-0.31493860483170,40.24491119384766,0.05525961145759,-0.03955098614097,9.76170730590820,0.15081396698952,-1.09062707424164,-0.94404560327530
554,1188408456,-0.34387210011482,-0.31395399570465,40.24385070800781,0.06004392728209,-0.05905771628022,9.78164672851562,0.07222140580416,-0.98310500383377,-0.92303037643433
555,1188425123,-0.34330716729164,-0.31306645274162,40.24646377563477,0.04338153451681,-0.05423753336072,9.77546310424805,0.18266339600086,-0.98899602890015,-0.84160774946213
556,1188441790,-0.34443098306656,-0.31314206123352,40.24598693847656,0.05492242053151,-0.06739382445812,9.77167415618896,0.08000767230988,-1.04717516899109,-0.94439136981964
557,1188458457,-0.34450426697731,-0.31263250112534,40.24658203125000,0.04025379195809,-0.04864712059498,9.74982452392578,0.14471815526485,-1.01109981536865,-0.87035799026489
558,1188475124,-0.34440204501152,-0.31195920705795,40.24628448486328,0.05392124503851,-0.06040480360389,9.75864696502686,0.15420764684677,-1.00177669525146,-0.90592116117477
559,1188491791,-0.34328362345695,-0.31229871511459,40.24789428710938,0.03995002806187,-0.05767482891679,9.76605415344238,0.21501222252846,-1.06343936920166,-0.84523189067841
560,1188508458,-0.34463831782341,-0.31322705745697,40.24695205688477,0.04725842550397,-0.03634813800454,9.75432872772217,0.06759831309319,-1.09778594970703,-0.88174283504486
561,1188525125,-0.34502005577087,-0.31214395165443,40.24570465087891,0.05288996919990,-0.06343992054462,9.75675106048584,0.12527811527252,-0.97708612680435,-0.93350607156754
562,1188541792,-0.34562280774117,-0.31183230876923,40.24502563476562,0.03571750968695,-0.03656959161162,9.74521446228027,0.11194669455290,-1.02313768863678,-0.90707367658615
563,1188558459,-0.34630152583122,-0.31134399771690,40.24504470825195,0.06182783469558,-0.07022799551487,9.78990364074707,0.10697785019875,-1.01339209079742,-0.88946509361267
564,1188575126,-0.34417620301247,-0.31176170706749,40.24701309204102,0.05455973744392,-0.05742391571403,9.78467559814453,0.27690529823303,-1.06797266006470,-0.77310651540756
565,1188591793,-0.34404715895653,-0.31089204549789,40.24623107910156,0.05741887167096,-0.05334702506661,9.76038551330566,0.15569321811199,-0.98958516120911,-0.91625601053238
566,1188608460,-0.34402573108673,-0.31129291653633,40.24660873413086,0.06654054671526,-0.06849303096533,9.77197647094727,0.14968702197075,-1.06667923927307,-0.84138995409012
567,1188625127,-0.34429064393044,-0.31078022718430,40.24523544311523,0.05321045219898,-0.04002080485225,9.76718807220459,0.13219355046749,-1.01168894767761,-0.95855528116226
568,1188641794,-0.34405657649040,-0.31029933691025,40.24587249755859,0.06340846419334,-0.06917190551758,9.75681304931641,0.16205793619156,-1.01280295848846,-0.89101457595825
569,1188658461,-0.34435176849365,-0.30998161435127,40.24538040161133,0.05765478685498,-0.03559166938066,9.77284622192383,0.13074642419815,-1.02349627017975,-0.89973568916321
570,1188675128,-0.34440323710442,-0.31109839677811,40.24486541748047,0.05289892479777,-0.06523974984884,9.75761318206787,0.14450046420097,-1.10924756526947,-0.90980160236359
571,1188691795,-0.34422883391380,-0.31044983863831,40.24610137939453,0.05324757099152,-0.04383559152484,9.76382732391357,0.15958634018898,-1.00377452373505,-0.80764538049698
572,1188708462,-0.34353458881378,-0.31150132417679,40.24547576904297,0.07447459548712,-0.07212100178003,9.75891494750977,0.19009104371071,-1.10526478290558,-0.85693693161011
573,1188725129,-0.34434232115746,-0.31118762493134,40.24624252319336,0.07525061815977,-0.05147879570723,9.77250385284424,0.09960140287876,-1.02414953708649,-0.82198840379715
574,1188741796,-0.34494876861572,-0.31138932704926,40.24655151367188,0.06932805478573,-0.05908504128456,9.76408100128174,0.11193388700485,-1.05434679985046,-0.86727160215378
575,1188758463,-0.34393426775932,-0.31081250309944,40.24600982666016,0.06731087714434,-0.06291943043470,9.77996635437012,0.20903164148331,-1.00736033916473,-0.92424714565277
576,1188775130,-0.34472975134850,-0.31014379858971,40.24473953247070,0.06441776454449,-0.05415116995573,9.77041435241699,0.10085640847683,-1.00239133834839,-0.93052226305008
577,1188791797,-0.34476211667061,-0.31038111448288,40.24533462524414,0.06288482248783,-0.06855984032154,9.75407123565674,0.14590917527676,-1.05648553371429,-0.83975082635880
578,1188808464,-0.34543037414551,-0.30984675884247,40.24612808227539,0.05115736275911,-0.05079109594226,9.76992797851562,0.10843776166439,-1.01103579998016,-0.80485349893570
579,1188825131,-0.34617030620575,-0.31011646986008,40.24606323242188,0.03970807045698,-0.07583919167519,9.76873588562012,0.10458306223154,-1.05825281143188,-0.86088132858276
580,1188841798,-0.34485825896263,-0.30921888351440,40.24459838867188,0.06229192018509,-0.04642217978835,9.77160549163818,0.22616653144360,-0.98813790082932,-0.93771934509277
581,1188858465,-0.34498035907745,-0.30935823917389,40.24450683593750,0.04138719663024,-0.07713636010885,9.78535079956055,0.14100432395935,-1.05085051059723,-0.88153785467148
582,1188875132,-0.34435939788818,-0.30909904837608,40.24409484863281,0.04558514431119,-0.06180723011494,9.77338886260986,0.18545517325401,-1.02627527713776,-0.89903146028519
583,1188891799,-0.34420889616013,-0.30881711840630,40.24498367309570,0.03519366681576,-0.05221788957715,9.77446174621582,0.15787029266357,-1.02575027942657,-0.81903010606766
584,1188908466,-0.34445044398308,-0.30822890996933,40.24540710449219,0.03852150216699,-0.04995172843337,9.76780605316162,0.13430659472942,-1.00773167610168,-0.81799280643463
585,1188925133,-0.34507030248642,-0.30783733725548,40.24440383911133,0.05127029493451,-0.05092996731400,9.75956058502197,0.11044836789370,-1.01839923858643,-0.92799925804138
586,1188941800,-0.34486851096153,-0.30858916044235,40.24515914916992,0.04650897160172,-0.06731858104467,9.77552223205566,0.16039314866066,-1.08757925033569,-0.89034873247147
587,1188958467,-0.34549993276596,-0.30778282880783,40.24333190917969,0.04164564609528,-0.04594220966101,9.77050876617432,0.10980805009604,-0.99283790588379,-0.98689574003220
588,1188975134,-0.34572339057922,-0.30657401680946,40.24324798583984,0.05045451223850,-0.07977221161127,9.77916622161865,0.13476762175560,-0.97015786170959,-0.91019850969315
589,1188991801,-0.34611937403679,-0.30669453740120,40.24260711669922,0.04202301055193,-0.03877236321568,9.75722312927246,0.12398467957973,-1.04924988746643,-0.89589381217957
590,1189008468,-0.34595128893852,-0.30664262175560,40.24174880981445,0.05168947204947,-0.07713041454554,9.76126003265381,0.15825447440147,-1.03878712654114,-0.92801213264465
591,1189025135,-0.34611812233925,-0.30550232529640,40.24230194091797,0.05528784170747,-0.04508306458592,9.75990772247314,0.13894248008728,-0.97408944368362,-0.84870243072510
592,1189041802,-0.34694048762321,-0.30573794245720,40.24285888671875,0.05334544926882,-0.05775912478566,9.73891258239746,0.09853845089674,-1.05739474296570,-0.85556656122208
593,1189058469,-0.34594616293907,-0.30727547407150,40.24335479736328,0.05590301752090,-0.06547483801842,9.76535892486572,0.20816080272198,-1.13459146022797,-0.84141564369202
594,1189075136,-0.34629127383232,-0.30677080154419,40.24039077758789,0.05123607814312,-0.04404126852751,9.75568485260010,0.12781380116940,-1.01157367229462,-0.93065029382706
595,1189091803,-0.34666821360588,-0.30634739995003,40.24157333374023,0.03947502747178,-0.05620890483260,9.75230312347412,0.12553425133228,-1.01769506931305,-0.87919437885284
596,1189108470,-0.34762868285179,-0.30631369352341,40.24093627929688,0.07170512527227,-0.03552595525980,9.74990558624268,0.09020151942968,-1.03992688655853,-0.91453981399536
597,1189125137,-0.34790393710136,-0.30615541338921,40.24123001098633,0.06654919683933,-0.07245589792728,9.76587867736816,0.13206548988819,-1.03263998031616,-0.85655272006989
598,1189141804,-0.34870499372482,-0.30453523993492,40.24171829223633,0.06437483429909,-0.03502834960818,9.75414180755615,0.10002399235964,-0.94594097137451,-0.85309493541718
599,1189158471,-0.33731254935265,-0.30976235866547,40.24204254150391,0.06041560694575,-0.07926448434591,9.75710773468018,0.15078836679459,-0.98282337188721,-0.88039809465408
600,1189175138,-0.33703047037125,-0.30968597531319,40.24219894409180,0.05307779088616,-0.05153157934546,9.77087688446045,0.16396610438824,-1.03762173652649,-0.85531055927277
601,1189191805,-0.33839055895805,-0.30938178300858,40.24156570434570,0.06143560260534,-0.06709361821413,9.76120853424072,0.06525474786758,-1.02253568172455,-0.87457108497620
602,1189208472,-0.33887246251106,-0.31004434823990,40.24030685424805,0.07014478743076,-0.04659298434854,9.74907302856445,0.11776078492403,-1.08162438869476,-0.91083890199661
603,1189225139,-0.34002241492271,-0.31016257405281,40.23968124389648,0.06211306527257,-0.04683018848300,9.77438259124756,0.07813794165850,-1.04880166053772,-0.87379008531570
604,1189241806,-0.34029701352119,-0.31011021137238,40.24011611938477,0.05357505753636,-0.07356719672680,9.76080608367920,0.13027258217335,-1.03844130039215,-0.89938992261887
605,1189258473,-0.34064057469368,-0.30975225567818,40.24013519287109,0.04938977211714,-0.04013867676258,9.75051403045654,0.12582878768444,-1.01976954936981,-0.89593225717545
606,1189275140,-0.34129247069359,-0.30918079614639,40.23984527587891,0.05340057611465,-0.07009380310774,9.76084518432617,0.10793830454350,-1.00700163841248,-0.88208854198456
607,1189291807,-0.34081771969795,-0.30957546830177,40.24000930786133,0.03421663865447,-0.05469409748912,9.76148033142090,0.17533813416958,-1.06588542461395,-0.86445426940918
608,1189308474,-0.34041959047318,-0.30999436974525,40.23879623413086,0.04672295972705,-0.05787330865860,9.79340839385986,0.17103518545628,-1.06661510467529,-0.89380627870560
609,1189325141,-0.34057113528252,-0.31045517325401,40.23975753784180,0.05086266249418,-0.03983719274402,9.77385520935059,0.13741853833199,-1.06944537162781,-0.84028869867325
610,1189341808,-0.34135755896568,-0.30967482924461,40.23916625976562,0.04321100562811,-0.06077225878835,9.76457118988037,0.09921719133854,-0.99414420127869,-0.91126143932343
611,1189358475,-0.34116727113724,-0.30900901556015,40.23909378051758,0.04407136142254,-0.05143629759550,9.76642131805420,0.15856181085110,-1.00208401679993,-0.86631113290787
612,1189375142,-0.34269186854362,-0.30895704030991,40.23798751831055,0.04925138875842,-0.05827844887972,9.75321769714355,0.05479196459055,-1.03789067268372,-0.94701671600342
613,1189391809,-0.34287723898888,-0.30896043777466,40.23715972900391,0.05378138273954,-0.07331754267216,9.77312278747559,0.13594581186771,-1.04180943965912,-0.92153221368790
614,1189408476,-0.34162893891335,-0.30838444828987,40.23562240600586,0.05184511095285,-0.03740192577243,9.77720737457275,0.22109523415565,-1.00710427761078,-0.93495321273804
615,1189425143,-0.34114819765091,-0.30836126208305,40.23455429077148,0.05818517506123,-0.07531233131886,9.76790523529053,0.17553023993969,-1.03951704502106,-0.92037951946259
616,1189441810,-0.34162130951881,-0.30773806571960,40.23453140258789,0.05476630479097,-0.04356087744236,9.75567054748535,0.11869565397501,-1.00404345989227,-0.88826131820679
617,1189458477,-0.34130677580833,-0.30736654996872,40.23397445678711,0.04976524412632,-0.06766428053379,9.75347614288330,0.16555407643318,-1.01982080936432,-0.93047100305557
618,1189475144,-0.34152972698212,-0.30801802873611,40.23487091064453,0.05142810940742,-0.04304106906056,9.77691650390625,0.13259056210518,-1.08034372329712,-0.92908781766891
619,1189491811,-0.34276440739632,-0.30793997645378,40.23665618896484,0.05515684932470,-0.06852336227894,9.78254032135010,0.07297699153423,-1.03703260421753,-0.84971415996552
620,1189508478,-0.34321734309196,-0.30872720479965,40.23679351806641,0.06512602418661,-0.04117464274168,9.77819919586182,0.11938718706369,-1.08911609649658,-0.88399666547775
621,1189525145,-0.34244593977928,-0.30981436371803,40.23555755615234,0.06092258170247,-0.05234661325812,9.75972080230713,0.19303649663925,-1.10610997676849,-0.93205893039703
622,1189541812,-0.34289795160294,-0.30981531739235,40.23605346679688,0.05422645062208,-0.05803943425417,9.76722526550293,0.12005311250687,-1.04186058044434,-0.87149769067764
623,1189558479,-0.34338909387589,-0.31107410788536,40.23604202270508,0.06296071410179,-0.05788045004010,9.74841403961182,0.11676190048456,-1.11689305305481,-0.90076011419296
624,1189575146,-0.34459757804871,-0.31145501136780,40.23606872558594,0.04889291524887,-0.07330705970526,9.75791645050049,0.07471864670515,-1.06450212001801,-0.86362177133560
625,1189591813,-0.34492734074593,-0.31141427159309,40.23476028442383,0.07078333944082,-0.02711343392730,9.76730155944824,0.12672522664070,-1.03956830501556,-0.92098152637482
626,1189608480,-0.34460315108299,-0.31245264410973,40.23436355590820,0.06768703460693,-0.07039099931717,9.76748943328857,0.16554127633572,-1.10339522361755,-0.92386293411255
627,1189625147,-0.34417551755905,-0.31279531121254,40.23331069946289,0.06340346485376,-0.04605496674776,9.76879405975342,0.17208531498909,-1.06179988384247,-0.94075441360474
628,1189641814,-0.34504798054695,-0.31271794438362,40.23363113403320,0.05886862054467,-0.08301304280758,9.77555656433105,0.09483741968870,-1.03666114807129,-0.87176662683487
629,1189658481,-0.34518286585808,-0.31302952766418,40.23437881469727,0.06072086468339,-0.04952385649085,9.76873683929443,0.13818691670895,-1.06098043918610,-0.85413235425949
630,1189675148,-0.34486427903175,-0.31308713555336,40.23394393920898,0.04389313235879,-0.05992099270225,9.75990676879883,0.16638650000095,-1.04443478584290,-0.89922356605530
631,1189691815,-0.34472271800041,-0.31199437379837,40.23472976684570,0.05351649597287,-0.04536603763700,9.75709629058838,0.15479674935341,-0.97616404294968,-0.84948366880417
632,1189708482,-0.34542387723923,-0.31218519806862,40.23379516601562,0.06488639116287,-0.04803973808885,9.76955509185791,0.10442938655615,-1.05298936367035,-0.90639501810074
633,1189725149,-0.34474450349808,-0.31160888075829,40.23278808593750,0.05460245534778,-0.05670971423388,9.73795032501221,0.18754258751869,-1.00729632377625,-0.90515291690826
634,1189741816,-0.34533530473709,-0.31283015012741,40.23212051391602,0.05126358941197,-0.04229698330164,9.75159358978271,0.11119112372398,-1.11422932147980,-0.88890159130096
635,1189758483,-0.34684094786644,-0.31218329071999,40.23202514648438,0.06103521212935,-0.06494515389204,9.76063632965088,0.05678975582123,-1.00292909145355,-0.87772148847580
636,1189775150,-0.34548053145409,-0.31221476197243,40.23099136352539,0.04792241007090,-0.04132113978267,9.75707721710205,0.22803626954556,-1.04338467121124,-0.88475233316422
637,1189791817,-0.34715056419373,-0.31270179152489,40.23027420043945,0.04049360752106,-0.06926422566175,9.78083419799805,0.04632696881890,-1.07073903083801,-0.93284004926682
638,1189808484,-0.34709718823433,-0.31189510226250,40.23083877563477,0.05701142549515,-0.05499822646379,9.75056648254395,0.14982788264751,-0.99322211742401,-0.84730648994446
639,1189825151,-0.34756782650948,-0.31257051229477,40.23014068603516,0.04361371695995,-0.05914753302932,9.75575065612793,0.11879810690880,-1.08229017257690,-0.88605844974518
640,1189841818,-0.34704789519310,-0.31205251812935,40.23038101196289,0.05872578918934,-0.05106694623828,9.76054763793945,0.17786099016666,-1.01086926460266,-0.85481107234955
641,1189858485,-0.34606152772903,-0.31196376681328,40.22880554199219,0.04953334480524,-0.03690132126212,9.75011634826660,0.20507448911667,-1.03568780422211,-0.96128308773041
642,1189875152,-0.34530660510063,-0.31306281685829,40.22791671752930,0.05575022101402,-0.08307699114084,9.75526714324951,0.19210164248943,-1.10776209831238,-0.89374238252640
643,1189891819,-0.34537053108215,-0.31372275948524,40.22702407836914,0.06532037258148,-0.03778386861086,9.75856876373291,0.14241302013397,-1.08062553405762,-0.89673906564713
644,1189908486,-0.34448209404945,-0.31321042776108,40.22681045532227,0.06490918248892,-0.08391689509153,9.79584503173828,0.20042577385902,-1.01150965690613,-0.85295408964157
645,1189925153,-0.34497663378716,-0.31324213743210,40.22726821899414,0.06015763431787,-0.03756120428443,9.77755165100098,0.11673627048731,-1.04357659816742,-0.86579883098602
646,1189941820,-0.34593182802200,-0.31269723176956,40.22658157348633,0.05845799297094,-0.07428712397814,9.77541065216064,0.08913859724998,-1.00832080841064,-0.95618605613708
647,1189958487,-0.34634524583817,-0.31273603439331,40.22560119628906,0.05934619158506,-0.03637917339802,9.76385021209717,0.12252476066351,-1.04396092891693,-0.86641365289688
648,1189975154,-0.34627982974052,-0.31270182132721,40.22427368164062,0.05445092543960,-0.04469695687294,9.76948928833008,0.14990472793579,-1.03862059116364,-0.94446820020676
649,1189991821,-0.34585291147232,-0.31371724605560,40.22470092773438,0.05598247423768,-0.06864254176617,9.76991462707520,0.17185482382774,-1.10243475437164,-0.91104382276535
650,1190008488,-0.34573408961296,-0.31341195106506,40.22518539428711,0.06011798232794,-0.04197646677494,9.76853942871094,0.15381067991257,-1.02367556095123,-0.90044009685516
651,1190025155,-0.34475943446159,-0.31276106834412,40.22534561157227,0.05486332625151,-0.07626830041409,9.77357387542725,0.20494641363621,-1.00235295295715,-0.86698997020721
652,1190041822,-0.34612986445427,-0.31215000152588,40.22492599487305,0.05230617895722,-0.04971252009273,9.78278827667236,0.06447356939316,-1.00502943992615,-0.91005760431290
653,1190058489,-0.34580790996552,-0.31230676174164,40.22566223144531,0.05401949957013,-0.08604288846254,9.76504039764404,0.16577179729939,-1.05053043365479,-0.87819534540176
654,1190075156,-0.34599450230598,-0.31222444772720,40.22552108764648,0.04584010317922,-0.03371178731322,9.75836086273193,0.13609948754311,-1.03650748729706,-0.87379002571106
655,1190091823,-0.34612318873405,-0.31170058250427,40.22497177124023,0.04980948939919,-0.07590266317129,9.75540256500244,0.13859672844410,-1.01058757305145,-0.86782234907150
656,1190108490,-0.34619528055191,-0.31265172362328,40.22593688964844,0.06082852557302,-0.04893119633198,9.76190662384033,0.14286123216152,-1.09883594512939,-0.87613356113434
657,1190125157,-0.34639587998390,-0.31288427114487,40.22595596313477,0.05105432122946,-0.05816092342138,9.76489353179932,0.13420413434505,-1.05543529987335,-0.90895622968674
658,1190141824,-0.34620836377144,-0.31285890936852,40.22620773315430,0.05253542214632,-0.05794008821249,9.77081108093262,0.15811359882355,-1.04025983810425,-0.85538727045059
659,1190158491,-0.34645518660545,-0.31289583444595,40.22536849975586,0.05107398703694,-0.04622469469905,9.76834487915039,0.13119465112686,-1.04374313354492,-0.93698948621750
660,1190175158,-0.34545788168907,-0.31303802132607,40.22573471069336,0.05751682445407,-0.06935818493366,9.76499748229980,0.20695701241493,-1.05003118515015,-0.84697359800339
661,1190191825,-0.34566724300385,-0.31330329179764,40.22460174560547,0.05515626072884,-0.03169788420200,9.76152515411377,0.13380715250969,-1.05730509757996,-0.97182267904282
662,1190208492,-0.34458908438683,-0.31336271762848,40.22488403320312,0.05588203296065,-0.07819633930922,9.75199127197266,0.21143925189972,-1.04495978355408,-0.86409574747086
663,1190225159,-0.34359139204025,-0.31401577591896,40.22323608398438,0.04697382450104,-0.03123864717782,9.76083183288574,0.20535622537136,-1.08081746101379,-0.96306318044662
664,1190241826,-0.34392943978310,-0.31351834535599,40.22293853759766,0.03950822353363,-0.10128286480904,9.76974868774414,0.12685328722000,-1.01145839691162,-0.89493328332901
665,1190258493,-0.34392699599266,-0.31449034810066,40.22447967529297,0.06164932623506,-0.02785529009998,9.76343631744385,0.14654947817326,-1.10034728050232,-0.80966860055923
666,1190275160,-0.34363290667534,-0.31442585587502,40.22360610961914,0.06871697306633,-0.07684560120106,9.76863670349121,0.16478571295738,-1.03725039958954,-0.90175914764404
667,1190291827,-0.34264680743217,-0.31457725167274,40.22352218627930,0.05009047687054,-0.03542017936707,9.77668476104736,0.20497204363346,-1.05040240287781,-0.90817505121231
668,1190308494,-0.34344813227654,-0.31538325548172,40.22294998168945,0.05271735787392,-0.06781034916639,9.75209426879883,0.09901229292154,-1.08960270881653,-0.91833049058914
669,1190325161,-0.34266254305840,-0.31494888663292,40.22246932983398,0.07132457196712,-0.06629956513643,9.77227306365967,0.19311334192753,-1.01623499393463,-0.87361073493958
670,1190341828,-0.34191557765007,-0.31488129496574,40.22214508056641,0.06090630963445,-0.04950568079948,9.77232360839844,0.19132046401501,-1.03677642345428,-0.90872573852539
671,1190358495,-0.34193840622902,-0.31562435626984,40.22224426269531,0.04999773949385,-0.08022964000702,9.77940273284912,0.14546093344688,-1.08665716648102,-0.87439191341400
672,1190375162,-0.34222984313965,-0.31598442792892,40.22210693359375,0.06280001997948,-0.05014905706048,9.78256511688232,0.12929931282997,-1.06270933151245,-0.89047682285309
673,1190391829,-0.34197443723679,-0.31602638959885,40.22121047973633,0.06133573129773,-0.09241409599781,9.77984905242920,0.16107186675072,-1.04417860507965,-0.94366139173508
674,1190408496,-0.34137782454491,-0.31674656271935,40.22169494628906,0.05739031359553,-0.03169452399015,9.78778362274170,0.18284264206886,-1.08450579643250,-0.83119612932205
675,1190425163,-0.34200766682625,-0.31558242440224,40.22132110595703,0.06725007295609,-0.06766618043184,9.74506187438965,0.10880915820599,-0.97113114595413,-0.94682472944260
676,1190441830,-0.34192514419556,-0.31548064947128,40.22129821777344,0.04781306162477,-0.05351645499468,9.75455474853516,0.15162077546120,-1.03594398498535,-0.88412469625473
677,1190458497,-0.34186965227127,-0.31626456975937,40.22162628173828,0.06640768051147,-0.05201156064868,9.76626873016357,0.14954614639282,-1.08853971958160,-0.84512943029404
678,1190475164,-0.34210100769997,-0.31589394807816,40.22169113159180,0.05940281227231,-0.07281999289989,9.77682304382324,0.13325646519661,-1.01971828937531,-0.84779310226440
679,1190491831,-0.34304296970367,-0.31564912199974,40.22176361083984,0.05675440654159,-0.04940433427691,9.76561546325684,0.09012468904257,-1.02640342712402,-0.87053728103638
680,1190508498,-0.34375271201134,-0.31658008694649,40.22105026245117,0.04966403916478,-0.06926477700472,9.79107570648193,0.10404518991709,-1.09700465202332,-0.91647362709045
681,1190525165,-0.34491124749184,-0.31784853339195,40.21926498413086,0.06187953054905,-0.03141728416085,9.76699924468994,0.07651153951883,-1.11772537231445,-0.97621512413025
682,1190541832,-0.34432399272919,-0.31761261820793,40.21910095214844,0.04754293709993,-0.07496161758900,9.77719306945801,0.18158762156963,-1.02677464485168,-0.88262653350830
683,1190558499,-0.34389400482178,-0.31736585497856,40.21877670288086,0.06126195564866,-0.04190591722727,9.76589775085449,0.17227743566036,-1.02744066715240,-0.86924374103546
684,1190575166,-0.34344345331192,-0.31752213835716,40.21949005126953,0.05120124667883,-0.07357099652290,9.76263713836670,0.17382697761059,-1.05106830596924,-0.85089230537415
685,1190591833,-0.34341141581535,-0.31651946902275,40.21956634521484,0.04281344637275,-0.04089668393135,9.74564361572266,0.14857286214828,-0.98051816225052,-0.90557539463043
686,1190608500,-0.34315827488899,-0.31624522805214,40.21892547607422,0.04810332879424,-0.07245224714279,9.75695896148682,0.16144324839115,-1.02550697326660,-0.89220565557480
687,1190625167,-0.34328258037567,-0.31620061397552,40.22057342529297,0.05484297871590,-0.05441075563431,9.77123069763184,0.13916021585464,-1.03899204730988,-0.82433193922043
