sep=,
DeviceTag:,Xsens DOT
FirmwareVersion:,3.0.0
AppVersion:,2023.6.0
StartTime: ,2025-03-06_12:42:08_000 PST
© Movella Technologies B. V. 2005-2025

PacketCounter,SampleTimeFine,Euler_X,Euler_Y,Euler_Z,Acc_X,Acc_Y,Acc_Z,Gyr_X,Gyr_Y,Gyr_Z
0,1952264912,-0.67606747150421,-0.46963089704514,11.14039897918701,0.00000000000000,0.00000000000000,0.00000000000000,0.00000000000000,0.00000000000000,0.00000000000000
1,1952273245,-0.67654967308044,-0.47018584609032,11.14088344573975,0.09325161576271,-0.13268524408340,9.79238510131836,0.15158502757549,-1.14458489418030,-0.78841894865036
2,1952281578,-0.67695868015289,-0.47006073594093,11.13982868194580,0.07615637779236,-0.12438829243183,9.77149868011475,0.15870581567287,-1.06259381771088,-0.97330260276794
3,1952289911,-0.67650878429413,-0.46997994184494,11.13965797424316,0.06409662216902,-0.11206359416246,9.81069660186768,0.26167500019073,-1.06792151927948,-0.84149169921875
4,1952298244,-0.67667359113693,-0.47021892666817,11.13980007171631,0.08120622485876,-0.12041810899973,9.77276515960693,0.18895620107651,-1.10636842250824,-0.83101534843445
5,1952306577,-0.67748171091080,-0.47014626860619,11.13962173461914,0.07930357009172,-0.11868712306023,9.77435302734375,0.11137069016695,-1.06979131698608,-0.86392968893051
6,1952314910,-0.67738014459610,-0.47017982602119,11.13920497894287,0.08845213055611,-0.13664108514786,9.79683399200439,0.22099959850311,-1.08098471164703,-0.89697211980820
7,1952323243,-0.67656821012497,-0.46997907757759,11.13836956024170,0.08770100772381,-0.12546801567078,9.79038238525391,0.30463010072708,-1.05280900001526,-0.88946712017059
8,1952331576,-0.67640435695648,-0.46998751163483,11.13792610168457,0.07837370038033,-0.12716324627399,9.78128337860107,0.22768491506577,-1.07901239395142,-0.90071177482605
9,1952339909,-0.67671364545822,-0.47009268403053,11.13825607299805,0.08305165916681,-0.12139805406332,9.76222896575928,0.17164099216461,-1.09097433090210,-0.81626158952713
10,1952348242,-0.67683053016663,-0.46976637840271,11.13825893402100,0.09169223159552,-0.12548203766346,9.78360939025879,0.19556467235088,-1.03941273689270,-0.84553867578506
11,1952356575,-0.67641401290894,-0.46972006559372,11.13758373260498,0.08564098924398,-0.11584744602442,9.77340888977051,0.25696197152138,-1.07096946239471,-0.90829348564148
12,1952364908,-0.67605489492416,-0.46979331970215,11.13756752014160,0.07537665963173,-0.13262085616589,9.78418064117432,0.25199285149574,-1.08810544013977,-0.84861236810684
13,1952373241,-0.67488366365433,-0.47037598490715,11.13655090332031,0.10061188787222,-0.10688493400812,9.79385852813721,0.34827676415443,-1.14614725112915,-0.91971755027771
14,1952381574,-0.67481517791748,-0.47081151604652,11.13578796386719,0.08972526341677,-0.10267905890942,9.80093955993652,0.21623535454273,-1.12993347644806,-0.94013214111328
15,1952389907,-0.67481863498688,-0.47089353203773,11.13593292236328,0.10122697055340,-0.11064702272415,9.80475330352783,0.20760335028172,-1.08692717552185,-0.83793127536774
16,1952398240,-0.67544394731522,-0.47093862295151,11.13577079772949,0.08775107562542,-0.10187794268131,9.78747081756592,0.13421858847141,-1.08344364166260,-0.86513352394104
17,1952406573,-0.67519277334213,-0.47135099768639,11.13543510437012,0.08110615611076,-0.12299346178770,9.79306411743164,0.23818679153919,-1.12791013717651,-0.84940648078918
18,1952414906,-0.67486286163330,-0.47205352783203,11.13467121124268,0.07032675296068,-0.11543973535299,9.76179218292236,0.24733105301857,-1.16102921962738,-0.94118225574493
19,1952423239,-0.67496860027313,-0.47278174757957,11.13482761383057,0.07501186430454,-0.11753551661968,9.78724956512451,0.19692222774029,-1.16533243656158,-0.79658985137939
20,1952431572,-0.67483317852020,-0.47307598590851,11.13431549072266,0.08604862540960,-0.13515263795853,9.77768611907959,0.22441910207272,-1.11278474330902,-0.91045790910721
21,1952439905,-0.67491626739502,-0.47223037481308,11.13444042205811,0.08937484025955,-0.12019665539265,9.78915214538574,0.19769066572189,-0.97706776857376,-0.84912467002869
22,1952448238,-0.67508381605148,-0.47216430306435,11.13420677185059,0.08689273893833,-0.11197060346603,9.81117534637451,0.18857200443745,-1.06994497776031,-0.87591713666916
23,1952456571,-0.67541980743408,-0.47177723050117,11.13483047485352,0.08979678899050,-0.12711317837238,9.81543159484863,0.16795252263546,-1.03242027759552,-0.76382929086685
24,1952464904,-0.67570310831070,-0.47158759832382,11.13420200347900,0.07212932407856,-0.12240693718195,9.79918003082275,0.17535503208637,-1.05478131771088,-0.92299610376358
25,1952473237,-0.67510986328125,-0.47220396995544,11.13425445556641,0.08850919455290,-0.10578305274248,9.80411624908447,0.27860605716705,-1.15127027034760,-0.88052773475647
26,1952481570,-0.67528253793716,-0.47140988707542,11.13442516326904,0.07456839084625,-0.11276456713676,9.80828571319580,0.18767549097538,-0.98213940858841,-0.82497036457062
27,1952489903,-0.67537510395050,-0.47196272015572,11.13433170318604,0.08260818570852,-0.11307214200497,9.81269168853760,0.19689662754536,-1.14466178417206,-0.83434540033340
28,1952498236,-0.67496746778488,-0.47190850973129,11.13440704345703,0.05710122361779,-0.11152028292418,9.78827953338623,0.25806343555450,-1.07248079776764,-0.83875095844269
29,1952506569,-0.67426115274429,-0.47161480784416,11.13372611999512,0.09811554849148,-0.11649119853973,9.80960941314697,0.29371839761734,-1.04189729690552,-0.91861593723297
30,1952514902,-0.67370563745499,-0.47094511985779,11.13345909118652,0.08059108257294,-0.09348050504923,9.77956676483154,0.27427721023560,-0.99750792980194,-0.87919580936432
31,1952523235,-0.67336714267731,-0.47106251120567,11.13343238830566,0.08250796794891,-0.10413794219494,9.78423118591309,0.24886792898178,-1.09197330474854,-0.81623613834381
32,1952531568,-0.67360705137253,-0.47099965810776,11.13349628448486,0.07846668362617,-0.10461748391390,9.79785728454590,0.18073403835297,-1.07053411006927,-0.83831542730331
33,1952539901,-0.67432075738907,-0.47081300616264,11.13338661193848,0.08737912774086,-0.10640569031239,9.78648376464844,0.12248726189137,-1.05685615539551,-0.79858773946762
34,1952548234,-0.67411434650421,-0.46981647610664,11.13353729248047,0.06821666657925,-0.11034690588713,9.77672767639160,0.23337128758430,-0.95854866504669,-0.82773673534393
35,1952556567,-0.67437362670898,-0.46965882182121,11.13319206237793,0.08765088021755,-0.11614040285349,9.77539730072021,0.17778839170933,-1.05952012538910,-0.86313563585281
36,1952564900,-0.67425090074539,-0.46917006373405,11.13341140747070,0.07400324940681,-0.10325816273689,9.77093410491943,0.22389400005341,-1.02058625221252,-0.82084649801254
37,1952573233,-0.67445987462997,-0.46914067864418,11.13461780548096,0.07602051645517,-0.12402367591858,9.75974082946777,0.18406388163567,-1.07532393932343,-0.71851766109467
38,1952581566,-0.67446094751358,-0.46913325786591,11.13499927520752,0.08604869991541,-0.11423805356026,9.80070400238037,0.20852547883987,-1.07837200164795,-0.80020147562027
39,1952589899,-0.67407786846161,-0.46988356113434,11.13604354858398,0.07870279997587,-0.11275772005320,9.79292869567871,0.25555321574211,-1.16876471042633,-0.77384442090988
40,1952598232,-0.67379391193390,-0.46998506784439,11.13667774200439,0.07415352016687,-0.11099066585302,9.78038978576660,0.24297662079334,-1.09092307090759,-0.77310162782669
41,1952606565,-0.67382562160492,-0.46991729736328,11.13635063171387,0.08677107095718,-0.11884418129921,9.81142616271973,0.20465771853924,-1.06940710544586,-0.84561550617218
42,1952614898,-0.67364102602005,-0.46957203745842,11.13681697845459,0.08883824199438,-0.10543978214264,9.78640556335449,0.23234671354294,-1.03879809379578,-0.79108285903931
43,1952623231,-0.67363768815994,-0.47026124596596,11.13631153106689,0.06780894845724,-0.12701302766800,9.76572608947754,0.20739845931530,-1.15918493270874,-0.83826422691345
44,1952631564,-0.67383503913879,-0.47043040394783,11.13686943054199,0.07874558866024,-0.12450925260782,9.78783607482910,0.18608742952347,-1.09914517402649,-0.77994060516357
45,1952639897,-0.67430126667023,-0.47009193897247,11.13605499267578,0.07353837788105,-0.10925967246294,9.79312133789062,0.15191802382469,-1.03718435764313,-0.93741691112518
46,1952648230,-0.67490684986115,-0.46961772441864,11.13569355010986,0.07451111823320,-0.11536075174809,9.76030540466309,0.13593474030495,-1.02066314220428,-0.88918530941010
47,1952656563,-0.67424690723419,-0.46935871243477,11.13593959808350,0.08576259016991,-0.11649119853973,9.78042507171631,0.28751978278160,-1.04732763767242,-0.80327516794205
48,1952664896,-0.67375093698502,-0.46874126791954,11.13580513000488,0.08674261718988,-0.11417397856712,9.79212760925293,0.26769432425499,-1.00465428829193,-0.86177808046341
49,1952673229,-0.67349249124527,-0.46873527765274,11.13629341125488,0.08532626181841,-0.11861559748650,9.78819370269775,0.24008224904537,-1.07616937160492,-0.80204570293427
50,1952681562,-0.67409771680832,-0.46873122453690,11.13592052459717,0.07520499080420,-0.12631204724312,9.78266429901123,0.13539682328701,-1.07721936702728,-0.89141374826431
51,1952689895,-0.67429298162460,-0.46785858273506,11.13566780090332,0.07978281378746,-0.11831517517567,9.80500984191895,0.18460178375244,-0.97263646125793,-0.88516384363174
52,1952698228,-0.67414391040802,-0.46777042746544,11.13516998291016,0.07014077901840,-0.10252884775400,9.78624820709229,0.22696772217751,-1.06753718852997,-0.90698724985123
53,1952706561,-0.67428445816040,-0.46755009889603,11.13460540771484,0.08662801235914,-0.13331437110901,9.80855846405029,0.19041621685028,-1.04968404769897,-0.90601384639740
54,1952714894,-0.67455840110779,-0.46774667501450,11.13456153869629,0.07570563256741,-0.11216341704130,9.76967525482178,0.17553433775902,-1.10273122787476,-0.85212153196335
55,1952723227,-0.67529517412186,-0.46773761510849,11.13450622558594,0.08079136162996,-0.12412328273058,9.79414463043213,0.12074550241232,-1.07601547241211,-0.88152676820755
56,1952731560,-0.67545807361603,-0.46833497285843,11.13395786285400,0.07597749680281,-0.11984588205814,9.78516769409180,0.18785479664803,-1.14955401420593,-0.91397982835770
57,1952739893,-0.67545711994171,-0.46827456355095,11.13441276550293,0.07720778882504,-0.11289332062006,9.78664112091064,0.20867916941643,-1.07035481929779,-0.79735833406448
58,1952748226,-0.67502015829086,-0.46792224049568,11.13350677490234,0.09582655131817,-0.11997430771589,9.76363849639893,0.26090657711029,-1.03503274917603,-0.95514196157455
59,1952756559,-0.67577040195465,-0.46729657053947,11.13282299041748,0.06991904228926,-0.11064017564058,9.78793621063232,0.11667285114527,-1.00145256519318,-0.92678701877594
60,1952764892,-0.67502856254578,-0.46690356731415,11.13325309753418,0.08190014213324,-0.09514024853706,9.77844429016113,0.29858514666557,-1.03321409225464,-0.79541164636612
61,1952773225,-0.67474681138992,-0.46656274795532,11.13323020935059,0.08751503378153,-0.11244984716177,9.75541877746582,0.24167029559612,-1.03621101379395,-0.85248011350632
62,1952781558,-0.67429840564728,-0.46674141287804,11.13345909118652,0.06903924047947,-0.10369476675987,9.77754974365234,0.26439008116722,-1.10083568096161,-0.82059043645859
63,1952789891,-0.67354756593704,-0.46703249216080,11.13245487213135,0.07571293413639,-0.10969633609056,9.79197025299072,0.29707384109497,-1.11151683330536,-0.89246386289597
64,1952798224,-0.67297273874283,-0.46613389253616,11.13272953033447,0.08438923954964,-0.11904476583004,9.77237129211426,0.27855479717255,-0.97022879123688,-0.81359779834747
65,1952806557,-0.67300856113434,-0.46660572290421,11.13285636901855,0.06777312606573,-0.10523946583271,9.78604125976562,0.20358195900917,-1.13492834568024,-0.82607197761536
66,1952814890,-0.67256760597229,-0.46670326590538,11.13311100006104,0.09095562994480,-0.11242868751287,9.78298664093018,0.26134207844734,-1.09002673625946,-0.81787538528442
67,1952823223,-0.67228269577026,-0.46680977940559,11.13376808166504,0.08087003976107,-0.12176284193993,9.78722763061523,0.24384748935699,-1.09192192554474,-0.77353709936142
68,1952831556,-0.67260241508484,-0.46738079190254,11.13316631317139,0.07632804661989,-0.12185619026423,9.80336475372314,0.16948938369751,-1.14640355110168,-0.92038345336914
69,1952839889,-0.67226552963257,-0.46711158752441,11.13308811187744,0.07466137409210,-0.11391617357731,9.80398654937744,0.24950824677944,-1.04502236843109,-0.84789526462555
70,1952848222,-0.67203038930893,-0.46709972620010,11.13378334045410,0.08142802864313,-0.10782223939896,9.82043838500977,0.23770008981228,-1.07727074623108,-0.76539182662964
71,1952856555,-0.67259448766708,-0.46630945801735,11.13370132446289,0.07299485057592,-0.12413816154003,9.79522609710693,0.13982811570168,-0.98413741588593,-0.84861248731613
72,1952864888,-0.67292672395706,-0.46665918827057,11.13331985473633,0.08020482957363,-0.13179112970829,9.79388046264648,0.16897709667683,-1.11897063255310,-0.89246398210526
73,1952873221,-0.67353969812393,-0.46591782569885,11.13394832611084,0.09893096983433,-0.10083362460136,9.80762100219727,0.13496141135693,-0.98905539512634,-0.80535000562668
74,1952881554,-0.67422568798065,-0.46607866883278,11.13350582122803,0.07411060482264,-0.10572617501020,9.81166934967041,0.12543292343616,-1.09694242477417,-0.90124976634979
75,1952889887,-0.67455297708511,-0.46619233489037,11.13338756561279,0.07965406030416,-0.09824429452419,9.79114055633545,0.16907955706120,-1.09176826477051,-0.84064632654190
76,1952898220,-0.67438483238220,-0.46690464019775,11.13298416137695,0.06821666657925,-0.11150567233562,9.79166984558105,0.22883759438992,-1.16405177116394,-0.89515346288681
77,1952906553,-0.67377829551697,-0.46736988425255,11.13191509246826,0.08960366249084,-0.11409499496222,9.77659893035889,0.28034776449203,-1.13162410259247,-0.98026949167252
78,1952914886,-0.67379438877106,-0.46763718128204,11.13159751892090,0.07067724317312,-0.10326559096575,9.79154109954834,0.20673249661922,-1.10962140560150,-0.88534319400787
79,1952923219,-0.67362433671951,-0.46766299009323,11.13176918029785,0.07408199459314,-0.10949572175741,9.75800132751465,0.22786423563957,-1.08147132396698,-0.85688579082489
80,1952931552,-0.67291790246964,-0.46802020072937,11.13250541687012,0.07389602065086,-0.09251487255096,9.74805164337158,0.29402580857277,-1.12217235565186,-0.75934684276581
81,1952939885,-0.67307221889496,-0.46784389019012,11.13240432739258,0.08647786825895,-0.11216372996569,9.75805187225342,0.19039061665535,-1.05537045001984,-0.85020053386688
82,1952948218,-0.67319566011429,-0.46790233254433,11.13267230987549,0.07514061778784,-0.11970282346010,9.78058242797852,0.19379730522633,-1.08572351932526,-0.81503218412399
83,1952956551,-0.67378002405167,-0.46828657388687,11.13269805908203,0.08078425377607,-0.11705659329891,9.78923034667969,0.13813757896423,-1.12504124641418,-0.83163017034531
84,1952964884,-0.67369997501373,-0.46764385700226,11.13248538970947,0.08745058625937,-0.10930230468512,9.77701377868652,0.21774660050869,-1.00053036212921,-0.87289464473724
85,1952973217,-0.67317771911621,-0.46767362952232,11.13216686248779,0.08039786666632,-0.12151933461428,9.81080436706543,0.27179262042046,-1.08142018318176,-0.85860192775726
86,1952981550,-0.67326074838638,-0.46771135926247,11.13200759887695,0.07561992108822,-0.10859478265047,9.76811504364014,0.19912505149841,-1.08334124088287,-0.86649107933044
87,1952989883,-0.67314565181732,-0.46757149696350,11.13226890563965,0.07983288168907,-0.12875832617283,9.75463962554932,0.22148628532887,-1.06046772003174,-0.84474462270737
88,1952998216,-0.67366039752960,-0.46754732728004,11.13242340087891,0.06529834866524,-0.11539711803198,9.79313564300537,0.14705131947994,-1.07583618164062,-0.82950425148010
89,1953006549,-0.67379438877106,-0.46728760004044,11.13258171081543,0.06519816070795,-0.11720648407936,9.82003116607666,0.19313135743141,-1.04699468612671,-0.79156959056854
90,1953014882,-0.67398709058762,-0.46675068140030,11.13303279876709,0.07609183341265,-0.07853052020073,9.77402973175049,0.18616425991058,-1.01518177986145,-0.79141587018967
91,1953023215,-0.67420184612274,-0.46657219529152,11.13285064697266,0.09020444005728,-0.09631270915270,9.81640529632568,0.18152806162834,-1.05575478076935,-0.90009695291519
92,1953031548,-0.67405742406845,-0.46689566969872,11.13286399841309,0.07073446363211,-0.11393763870001,9.79558944702148,0.22635297477245,-1.11681902408600,-0.84564125537872
93,1953039881,-0.67316877841949,-0.46706286072731,11.13299083709717,0.06976167857647,-0.11124101281166,9.76358795166016,0.31546494364738,-1.09863305091858,-0.81754243373871
94,1953048214,-0.67333424091339,-0.46677023172379,11.13250541687012,0.07069154828787,-0.09335890412331,9.79825019836426,0.18757303059101,-1.04322934150696,-0.90598821640015
95,1953056547,-0.67391043901443,-0.46711617708206,11.13125705718994,0.08593430370092,-0.11507530510426,9.77684211730957,0.13867546617985,-1.11807417869568,-0.95037770271301
96,1953064880,-0.67336070537567,-0.46681332588196,11.13064575195312,0.08093442022800,-0.11121955513954,9.77198505401611,0.27335509657860,-1.04046297073364,-0.92130553722382
97,1953073213,-0.67329740524292,-0.46728548407555,11.13023376464844,0.07357414066792,-0.11190623044968,9.79703426361084,0.21587678790092,-1.13408327102661,-0.89597320556641
98,1953081546,-0.67344814538956,-0.46800911426544,11.12965488433838,0.07760834693909,-0.10006827116013,9.80238437652588,0.19033937156200,-1.16476881504059,-0.91643869876862
99,1953089879,-0.67392593622208,-0.46820959448814,11.12939453125000,0.06760147213936,-0.11797866970301,9.78113460540771,0.15127766132355,-1.10152733325958,-0.86382722854614
100,1953098212,-0.67437028884888,-0.46796715259552,11.12927246093750,0.09279382973909,-0.11865136027336,9.77872276306152,0.15550401806831,-1.04901814460754,-0.86093282699585
101,1953106545,-0.67517828941345,-0.46708601713181,11.12913131713867,0.08667092770338,-0.12729144096375,9.78244876861572,0.11090964823961,-0.97104841470718,-0.83583086729050
102,1953114878,-0.67555797100067,-0.46709331870079,11.12870407104492,0.07189322263002,-0.11190623044968,9.78823661804199,0.16343161463737,-1.07989609241486,-0.89900839328766
103,1953123211,-0.67571246623993,-0.46733215451241,11.12862873077393,0.10638416558504,-0.10384464263916,9.78787899017334,0.18770109117031,-1.10531806945801,-0.88352459669113
104,1953131544,-0.67605632543564,-0.46793028712273,11.12865829467773,0.09278673678637,-0.11709953099489,9.80813598632812,0.16797815263271,-1.15078341960907,-0.84461653232574
105,1953139877,-0.67602497339249,-0.46768766641617,11.12771034240723,0.08512605726719,-0.10282244533300,9.80091094970703,0.21141991019249,-1.04855716228485,-0.92168986797333
106,1953148210,-0.67599225044250,-0.46750560402870,11.12770652770996,0.08067691326141,-0.11209220439196,9.77416706085205,0.21369956433773,-1.05601084232330,-0.84751093387604
107,1953156543,-0.67571699619293,-0.46677929162979,11.12764739990234,0.07575583457947,-0.11250019818544,9.77547550201416,0.24097870290279,-0.99015653133392,-0.83296209573746
108,1953164876,-0.67574292421341,-0.46702432632446,11.12750816345215,0.06474038213491,-0.11333679407835,9.79297828674316,0.20552860200405,-1.10726487636566,-0.86441624164581
109,1953173209,-0.67555797100067,-0.46711984276772,11.12733745574951,0.07970412820578,-0.11622654646635,9.77506828308105,0.23055373132229,-1.08997535705566,-0.88232082128525
110,1953181542,-0.67516517639160,-0.46752446889877,11.12697982788086,0.08346660435200,-0.12271451950073,9.77940940856934,0.25509214401245,-1.12583529949188,-0.89205414056778
111,1953189875,-0.67514210939407,-0.46779891848564,11.12663173675537,0.04873953759670,-0.13830770552158,9.80190563201904,0.21077956259251,-1.11120963096619,-0.87117850780487
112,1953198208,-0.67486542463303,-0.46719530224800,11.12634277343750,0.07878856360912,-0.11484604328871,9.78309345245361,0.24123483896255,-1.00544834136963,-0.88180845975876
113,1953206541,-0.67471188306808,-0.46709573268890,11.12654399871826,0.08330200612545,-0.11289332062006,9.80642604827881,0.22704456746578,-1.06617975234985,-0.84520578384399
114,1953214874,-0.67511862516403,-0.46688526868820,11.12601280212402,0.06516955047846,-0.12088304758072,9.79246330261230,0.15924368798733,-1.05245041847229,-0.91193068027496
115,1953223207,-0.67525804042816,-0.46711209416389,11.12573623657227,0.09116298705339,-0.12110478430986,9.77936649322510,0.19108217954636,-1.10403740406036,-0.87981051206589
116,1953231540,-0.67538338899612,-0.46736359596252,11.12632179260254,0.08638488501310,-0.11732808500528,9.79345130920410,0.19492430984974,-1.11033856868744,-0.77661079168320
117,1953239873,-0.67530596256256,-0.46719434857368,11.12615966796875,0.08519751578569,-0.11089052259922,9.77829360961914,0.21792590618134,-1.05698418617249,-0.81695312261581
118,1953248206,-0.67522060871124,-0.46741569042206,11.12554645538330,0.07458984851837,-0.11204928159714,9.77438163757324,0.21869434416294,-1.10475480556488,-0.92061400413513
119,1953256539,-0.67552566528320,-0.46737852692604,11.12492465972900,0.07867412269115,-0.10290794819593,9.77616977691650,0.17101344466209,-1.07213509082794,-0.93596976995468
120,1953264872,-0.67579936981201,-0.46800199151039,11.12508583068848,0.08979672938585,-0.11202035099268,9.79205703735352,0.17520137131214,-1.15452325344086,-0.82799297571182
121,1953273205,-0.67512381076813,-0.46790751814842,11.12514591217041,0.09947458654642,-0.11159150302410,9.80061054229736,0.28951770067215,-1.06525766849518,-0.85913991928101
122,1953281538,-0.67509955167770,-0.46775296330452,11.12507820129395,0.08174984157085,-0.11227817833424,9.81787109375000,0.21216273307800,-1.05975055694580,-0.85455495119095
123,1953289871,-0.67521309852600,-0.46767282485962,11.12534236907959,0.07844529300928,-0.12131252884865,9.79947376251221,0.19359236955643,-1.06843364238739,-0.86403214931488
124,1953298204,-0.67522674798965,-0.46765777468681,11.12457084655762,0.08277270197868,-0.11139122396708,9.79310035705566,0.20678372681141,-1.07547760009766,-0.93987590074539
125,1953306537,-0.67490148544312,-0.46726974844933,11.12513828277588,0.08694266527891,-0.10992435365915,9.76119041442871,0.24789457023144,-1.03290677070618,-0.75880897045135
126,1953314870,-0.67543578147888,-0.46698227524757,11.12363338470459,0.06358156353235,-0.11508173495531,9.79677772521973,0.14384952187538,-1.04182052612305,-1.02665698528290
127,1953323203,-0.67476052045822,-0.46663916110992,11.12392997741699,0.08099879324436,-0.12186298519373,9.80160522460938,0.28967136144638,-1.03682577610016,-0.81610792875290
128,1953331536,-0.67536908388138,-0.46722528338432,11.12395572662354,0.08502588421106,-0.09956790506840,9.77832221984863,0.13571703433990,-1.14792764186859,-0.84470617771149
129,1953339869,-0.67452865839005,-0.46660709381104,11.12401962280273,0.08968234807253,-0.11299346387386,9.80013179779053,0.30922785401344,-1.00374507904053,-0.85600203275681
130,1953348202,-0.67464911937714,-0.46674126386642,11.12422275543213,0.08867379277945,-0.11526806652546,9.75694274902344,0.19436080753803,-1.09486758708954,-0.82348477840424
131,1953356535,-0.67493444681168,-0.46704930067062,11.12413024902344,0.08697141706944,-0.10310107469559,9.77033996582031,0.17353643476963,-1.11546146869659,-0.82489359378815
132,1953364868,-0.67458856105804,-0.46595427393913,11.12420177459717,0.06318106502295,-0.11695613712072,9.80591106414795,0.25037911534309,-0.94684296846390,-0.83626639842987
133,1953373201,-0.67467480897903,-0.46581292152405,11.12366104125977,0.08467535674572,-0.12092596292496,9.77490329742432,0.19820293784142,-1.05913579463959,-0.89592200517654
134,1953381534,-0.67479562759399,-0.46626815199852,11.12385845184326,0.08153525739908,-0.11457423865795,9.79837894439697,0.19464257359505,-1.13410866260529,-0.82348483800888
135,1953389867,-0.67514038085938,-0.46643212437630,11.12371444702148,0.09202132374048,-0.11277887225151,9.76919555664062,0.16687673330307,-1.09776198863983,-0.82830035686493
136,1953398200,-0.67534881830215,-0.46652418375015,11.12348842620850,0.08078420907259,-0.13088987767696,9.78008937835693,0.18334667384624,-1.08979582786560,-0.87286907434464
137,1953406533,-0.67558425664902,-0.46602225303650,11.12352371215820,0.08895990997553,-0.12837207317352,9.78794288635254,0.17932525277138,-1.01728212833405,-0.84699869155884
138,1953414866,-0.67595505714417,-0.46690747141838,11.12357807159424,0.07525505870581,-0.12903013825417,9.78731346130371,0.16500690579414,-1.18551635742188,-0.84302848577499
139,1953423199,-0.67578011751175,-0.46691930294037,11.12326908111572,0.09579079598188,-0.11674122512341,9.78420257568359,0.22840212285519,-1.07890987396240,-0.90224856138229
140,1953431532,-0.67634838819504,-0.46743792295456,11.12327098846436,0.07642816752195,-0.11425983905792,9.79521083831787,0.14092950522900,-1.14023029804230,-0.84822809696198
141,1953439865,-0.67693883180618,-0.46742260456085,11.12302017211914,0.08717164397240,-0.11398024111986,9.81610488891602,0.13754843175411,-1.07665586471558,-0.87094801664352
142,1953448198,-0.67728239297867,-0.46741187572479,11.12214946746826,0.08071268349886,-0.10882335156202,9.79325008392334,0.16697919368744,-1.07468366622925,-0.95030087232590
143,1953456531,-0.67770248651505,-0.46756091713905,11.12219333648682,0.08571251481771,-0.12794290482998,9.78651237487793,0.15716895461082,-1.09673750400543,-0.80798822641373
144,1953464864,-0.67778927087784,-0.46834328770638,11.12246799468994,0.09167083352804,-0.10066195577383,9.79507446289062,0.19874086976051,-1.17173600196838,-0.81559568643570
145,1953473197,-0.67696088552475,-0.46797037124634,11.12165737152100,0.08313024044037,-0.11960951238871,9.78787899017334,0.30762696266174,-1.03149807453156,-0.94812375307083
146,1953481530,-0.67749160528183,-0.46806266903877,11.12193012237549,0.08463244140148,-0.12299313396215,9.77103424072266,0.14500218629837,-1.09015452861786,-0.81451982259750
147,1953489863,-0.67715299129486,-0.46839180588722,11.12127399444580,0.09080534428358,-0.12319341301918,9.79501056671143,0.24715173244476,-1.11623001098633,-0.94074684381485
148,1953498196,-0.67707353830338,-0.46797981858253,11.12169551849365,0.07302337139845,-0.13449490070343,9.80061817169189,0.21928344666958,-1.02970516681671,-0.79559087753296
149,1953506529,-0.67638820409775,-0.46784940361977,11.12177944183350,0.08382416516542,-0.09843742102385,9.81021022796631,0.29069593548775,-1.06264495849609,-0.80447906255722
150,1953514862,-0.67597192525864,-0.46767544746399,11.12202548980713,0.07245122641325,-0.11860874295235,9.79457378387451,0.25885745882988,-1.05813670158386,-0.81823390722275
151,1953523195,-0.67572283744812,-0.46770840883255,11.12227153778076,0.06912507116795,-0.11549695581198,9.77821540832520,0.23910889029503,-1.08144581317902,-0.84917587041855
152,1953531528,-0.67557352781296,-0.46668949723244,11.12182235717773,0.08809441328049,-0.10302954912186,9.78820037841797,0.22537964582443,-0.95521885156631,-0.89950788021088
153,1953539861,-0.67535907030106,-0.46585011482239,11.12110805511475,0.08232198655605,-0.10141985118389,9.78231430053711,0.23470322787762,-0.97760576009750,-0.93011695146561
154,1953548194,-0.67543166875839,-0.46569234132767,11.12117862701416,0.07211495935917,-0.11000356823206,9.75965404510498,0.19909945130348,-1.05898213386536,-0.83775198459625
155,1953556527,-0.67562639713287,-0.46584138274193,11.12077236175537,0.07562700659037,-0.11348700523376,9.78897285461426,0.18401266634464,-1.09527742862701,-0.89791971445084
156,1953564860,-0.67528653144836,-0.46605274081230,11.12088298797607,0.06307376921177,-0.11229248344898,9.78695583343506,0.25068652629852,-1.10324347019196,-0.83455014228821
157,1953573193,-0.67538321018219,-0.46630573272705,11.12107467651367,0.08277276158333,-0.10879506170750,9.78783607482910,0.19679418206215,-1.10790538787842,-0.84243941307068
158,1953581526,-0.67489010095596,-0.46660748124123,11.12151336669922,0.06862437725067,-0.10522547364235,9.80659770965576,0.26838594675064,-1.11725461483002,-0.79536050558090
159,1953589859,-0.67508977651596,-0.46675321459770,11.12158679962158,0.07894592732191,-0.11543258279562,9.77534675598145,0.18414074182510,-1.09432983398438,-0.82932490110397
160,1953598192,-0.67480331659317,-0.46692118048668,11.12159729003906,0.05929699540138,-0.09388075023890,9.78582668304443,0.24284853041172,-1.09855616092682,-0.84720361232758
161,1953606525,-0.67447203397751,-0.46688890457153,11.12015151977539,0.06351009011269,-0.10358031839132,9.80961608886719,0.24797141551971,-1.07255768775940,-0.97325128316879
162,1953614858,-0.67458975315094,-0.46684092283249,11.11985874176025,0.08852352201939,-0.11787138879299,9.77432441711426,0.19388692080975,-1.07200694084167,-0.88320440053940
163,1953623191,-0.67503672838211,-0.46787148714066,11.11981678009033,0.07695748656988,-0.12306500971317,9.78570461273193,0.15478682518005,-1.20257568359375,-0.85888379812241
164,1953631524,-0.67485415935516,-0.46769839525223,11.11933040618896,0.08145657926798,-0.11521083861589,9.79312133789062,0.22983650863171,-1.05598521232605,-0.90573209524155
165,1953639857,-0.67511397600174,-0.46759304404259,11.11968326568604,0.08217895776033,-0.12879380583763,9.76702880859375,0.17712244391441,-1.06684577465057,-0.80524754524231
166,1953648190,-0.67395108938217,-0.46707549691200,11.11959552764893,0.08335218578577,-0.11320119351149,9.74957561492920,0.34881463646889,-1.01518166065216,-0.85780787467957
167,1953656523,-0.67351490259171,-0.46698448061943,11.11925411224365,0.08785130828619,-0.10941021144390,9.76315879821777,0.25990763306618,-1.06669199466705,-0.89917474985123
168,1953664856,-0.67375773191452,-0.46607926487923,11.11849498748779,0.08183567970991,-0.09927430748940,9.78939533233643,0.17935085296631,-0.96876877546310,-0.93833905458450
169,1953673189,-0.67343860864639,-0.46672028303146,11.11818885803223,0.08253665268421,-0.12008192390203,9.79141235351562,0.24594788253307,-1.15378034114838,-0.91310888528824
170,1953681522,-0.67361992597580,-0.46566459536552,11.11826229095459,0.08143500238657,-0.10695591568947,9.77117538452148,0.18716318905354,-0.95155602693558,-0.83762389421463
171,1953689855,-0.67434501647949,-0.46578997373581,11.11827182769775,0.07863119989634,-0.10840133577585,9.77992439270020,0.12123216688633,-1.09384310245514,-0.86221355199814
172,1953698188,-0.67496919631958,-0.46581721305847,11.11778640747070,0.06055596843362,-0.10660596936941,9.78197765350342,0.13298912346363,-1.08037006855011,-0.90475887060165
173,1953706521,-0.67588329315186,-0.46543502807617,11.11790275573730,0.08192151039839,-0.11204928159714,9.80750656127930,0.09848673641682,-1.03195905685425,-0.83485758304596
174,1953714854,-0.67585641145706,-0.46513733267784,11.11724853515625,0.08895997703075,-0.10707838833332,9.78508186340332,0.21141991019249,-1.04269158840179,-0.92576259374619
175,1953723187,-0.67530542612076,-0.46491459012032,11.11776447296143,0.09340182691813,-0.10388074070215,9.80271339416504,0.27478951215744,-1.05178451538086,-0.79961234331131
176,1953731520,-0.67503893375397,-0.46519282460213,11.11797237396240,0.08838768303394,-0.11508209258318,9.77093410491943,0.24097870290279,-1.11256706714630,-0.82274204492569
177,1953739853,-0.67487007379532,-0.46556982398033,11.11792087554932,0.08338784426451,-0.10275059193373,9.81717681884766,0.22876073420048,-1.12247979640961,-0.85163486003876
178,1953748186,-0.67455494403839,-0.46582633256912,11.11786651611328,0.07857406139374,-0.10390967875719,9.80121135711670,0.24571731686592,-1.10936534404755,-0.85524648427963
179,1953756519,-0.67516839504242,-0.47136074304581,11.12070465087891,0.06866729259491,-0.09616281837225,9.79336452484131,0.19354116916656,-0.94038826227188,-0.86054873466492
180,1953764852,-0.67485272884369,-0.47158071398735,11.12063598632812,0.06958277523518,-0.09506096690893,9.79179191589355,0.24658824503422,-1.10524153709412,-0.85547709465027
181,1953773185,-0.67513495683670,-0.47192248702049,11.12047195434570,0.08891698718071,-0.10554735362530,9.78543949127197,0.17427922785282,-1.11638355255127,-0.85373520851135
182,1953781518,-0.67499893903732,-0.47143507003784,11.12053012847900,0.06627831608057,-0.11673469096422,9.79270648956299,0.22532843053341,-1.02025330066681,-0.84049266576767
183,1953789851,-0.67502075433731,-0.47160089015961,11.12028694152832,0.08072692155838,-0.11058263480663,9.80266475677490,0.20591282844543,-1.09745466709137,-0.86912935972214
184,1953798184,-0.67510342597961,-0.47141164541245,11.12006759643555,0.08623467385769,-0.11906622350216,9.78215694427490,0.19812610745430,-1.05455076694489,-0.87325322628021
185,1953806517,-0.67493075132370,-0.47129219770432,11.11961269378662,0.09222152829170,-0.12619014084339,9.81528949737549,0.22824846208096,-1.06179964542389,-0.89197725057602
186,1953814850,-0.67506724596024,-0.47198042273521,11.12005138397217,0.08318046480417,-0.12356567382812,9.78970241546631,0.19325940310955,-1.16164386272430,-0.79664117097855
187,1953823183,-0.67616575956345,-0.47190502285957,11.11966991424561,0.07248690724373,-0.11355137825012,9.79607582092285,0.07679147273302,-1.06735789775848,-0.87978488206863
188,1953831516,-0.67596304416656,-0.47238966822624,11.11989116668701,0.07139245420694,-0.10781449079514,9.80395221710205,0.23347377777100,-1.13720810413361,-0.82123082876205
189,1953839849,-0.67525571584702,-0.47255074977875,11.11994552612305,0.07704318314791,-0.12139061093330,9.79775714874268,0.29230967164040,-1.09671187400818,-0.79487371444702
190,1953848182,-0.67504519224167,-0.47243469953537,11.11992740631104,0.07780862599611,-0.10994634777308,9.79304313659668,0.23513865470886,-1.06379759311676,-0.84979063272476
191,1953856515,-0.67567932605743,-0.47271794080734,11.11995220184326,0.08105601370335,-0.11359430104494,9.78199195861816,0.13152909278870,-1.11251592636108,-0.85634791851044
192,1953864848,-0.67524760961533,-0.47207513451576,11.11985206604004,0.08346660435200,-0.10017585754395,9.79069709777832,0.26141887903214,-0.99999254941940,-0.85965210199356
193,1953873181,-0.67542701959610,-0.47238638997078,11.11981868743896,0.07929641753435,-0.11472444981337,9.79732036590576,0.18547268211842,-1.11494946479797,-0.85473424196243
194,1953881514,-0.67610323429108,-0.47202995419502,11.12031745910645,0.08208602666855,-0.12460252642632,9.76835823059082,0.12791749835014,-1.03559625148773,-0.78734320402145
195,1953889847,-0.67558741569519,-0.47276163101196,11.11998271942139,0.07460423558950,-0.11887344717979,9.79500293731689,0.27043503522873,-1.16540920734406,-0.87445700168610
196,1953898180,-0.67532932758331,-0.47257781028748,11.11984157562256,0.08951783180237,-0.10557596385479,9.79575443267822,0.24031274020672,-1.05567789077759,-0.86341738700867
197,1953906513,-0.67563146352768,-0.47306108474731,11.11950397491455,0.09799394756556,-0.12355105578899,9.76945304870605,0.17166659235954,-1.13500511646271,-0.89008182287216
198,1953914846,-0.67477619647980,-0.47376048564911,11.11908912658691,0.08297298103571,-0.12197028100491,9.78973102569580,0.31026518344879,-1.16038882732391,-0.89817595481873
199,1953923179,-0.67493784427643,-0.47434031963348,11.11853122711182,0.09685664623976,-0.11398055404425,9.77100563049316,0.18844394385815,-1.14742815494537,-0.89336043596268
200,1953931512,-0.67605793476105,-0.47452846169472,11.11773967742920,0.07704330235720,-0.10508992522955,9.80916595458984,0.07394830137491,-1.09899163246155,-0.94238609075546
201,1953939845,-0.67634153366089,-0.47511821985245,11.11744880676270,0.08815878629684,-0.11993887275457,9.77747821807861,0.17417678236961,-1.14768421649933,-0.86482620239258
202,1953948178,-0.67625010013580,-0.47551110386848,11.11726379394531,0.08374548703432,-0.10956009477377,9.78653430938721,0.22015434503555,-1.12519502639771,-0.87092238664627
203,1953956511,-0.67637187242508,-0.47542056441307,11.11634635925293,0.07959689944983,-0.12843678891659,9.78040409088135,0.19228605926037,-1.06587231159210,-0.94822621345520
204,1953964844,-0.67690938711166,-0.47498375177383,11.11691665649414,0.07093474268913,-0.11976720392704,9.79826450347900,0.14497657120228,-1.02494072914124,-0.77789151668549
205,1953973177,-0.67678231000900,-0.47516176104546,11.11707687377930,0.08382423222065,-0.11864451318979,9.79119014739990,0.22363789379597,-1.10006737709045,-0.82125633955002
206,1953981510,-0.67681014537811,-0.47577834129333,11.11761474609375,0.09297974407673,-0.12109018117189,9.78121280670166,0.20550303161144,-1.15226924419403,-0.78429514169693
207,1953989843,-0.67644333839417,-0.47482681274414,11.11769580841064,0.08036918938160,-0.12312850356102,9.80533790588379,0.25322231650352,-0.96331292390823,-0.81541633605957
208,1953998176,-0.67604815959930,-0.47493085265160,11.11720943450928,0.06700067967176,-0.13124752044678,9.78606224060059,0.25545078516006,-1.08956551551819,-0.90509176254272
209,1954006509,-0.67600560188293,-0.47464308142662,11.11749267578125,0.10076216608286,-0.10455339401960,9.77124118804932,0.21436552703381,-1.04320371150970,-0.81349527835846
210,1954014842,-0.67567127943039,-0.47515007853508,11.11696338653564,0.06662873178720,-0.10801508277655,9.76676368713379,0.24817630648613,-1.13797628879547,-0.91326266527176
211,1954023175,-0.67573124170303,-0.47551488876343,11.11675167083740,0.08621314913034,-0.11697011440992,9.79505348205566,0.20119979977608,-1.12181377410889,-0.86579954624176
212,1954031508,-0.67587375640869,-0.47481054067612,11.11664485931396,0.09056929498911,-0.13400851190090,9.78109073638916,0.19156885147095,-0.99241071939468,-0.85898613929749
213,1954039841,-0.67647260427475,-0.47431278228760,11.11631679534912,0.07223650813103,-0.11769973486662,9.76737976074219,0.13539682328701,-1.01835799217224,-0.88905721902847
214,1954048174,-0.67589861154556,-0.47389864921570,11.11597442626953,0.08455375581980,-0.13767077028751,9.76236438751221,0.27799129486084,-1.02719485759735,-0.88744366168976
215,1954056507,-0.67633622884750,-0.47400969266891,11.11556148529053,0.07341677695513,-0.11002503335476,9.80339336395264,0.15470997989178,-1.09035956859589,-0.89400082826614
216,1954064840,-0.67649245262146,-0.47426399588585,11.11498355865479,0.08369547873735,-0.11925970017910,9.78538227081299,0.18908426165581,-1.10723936557770,-0.91835993528366
217,1954073173,-0.67568701505661,-0.47509083151817,11.11411762237549,0.08967519551516,-0.11570438742638,9.78578281402588,0.30496308207512,-1.17557799816132,-0.92724800109863
218,1954081506,-0.67468804121017,-0.47582155466080,11.11417007446289,0.06008388102055,-0.12832200527191,9.78383731842041,0.32883554697037,-1.16617774963379,-0.84223443269730
219,1954089839,-0.67405110597610,-0.47666499018669,11.11383533477783,0.08044087141752,-0.11248560994864,9.77996063232422,0.28475347161293,-1.17798590660095,-0.88518959283829
220,1954098172,-0.67427659034729,-0.47632452845573,11.11387729644775,0.07719348371029,-0.11491757631302,9.78203487396240,0.18091331422329,-1.03761982917786,-0.84264415502548
221,1954106505,-0.67427015304565,-0.47633031010628,11.11356830596924,0.09251480549574,-0.11390157043934,9.79966735839844,0.20944762229919,-1.07757818698883,-0.83747023344040
222,1954114838,-0.67407780885696,-0.47665381431580,11.11350917816162,0.07768702507019,-0.11459569633007,9.78689193725586,0.23186005651951,-1.11663961410522,-0.85624545812607
223,1954123171,-0.67321586608887,-0.47690707445145,11.11212921142578,0.06270182132721,-0.10079786181450,9.78371620178223,0.31064945459366,-1.10647094249725,-0.99868613481522
224,1954131504,-0.67337077856064,-0.47679796814919,11.11250400543213,0.06511954218149,-0.09301585704088,9.81488037109375,0.19016008079052,-1.06456613540649,-0.80368500947952
225,1954139837,-0.67340630292892,-0.47730764746666,11.11224842071533,0.07442533224821,-0.09744317829609,9.79318618774414,0.20409423112869,-1.13966703414917,-0.82222980260849
226,1954148170,-0.67319297790527,-0.47782227396965,11.11126613616943,0.07180023938417,-0.12149103730917,9.76276493072510,0.23385797441006,-1.13797628879547,-0.96669405698776
227,1954156503,-0.67298024892807,-0.47792664170265,11.11041927337646,0.09418148547411,-0.12941639125347,9.80350780487061,0.23380671441555,-1.08971917629242,-0.90867769718170
228,1954164836,-0.67274802923203,-0.47920286655426,11.11039543151855,0.06623532623053,-0.10861591994762,9.78433799743652,0.23679079115391,-1.23014914989471,-0.85328698158264
229,1954173169,-0.67316907644272,-0.47874438762665,11.10974979400635,0.08216470479965,-0.10594075918198,9.78563976287842,0.15572173893452,-1.02170062065125,-0.92490440607071
230,1954181502,-0.67315006256104,-0.47797727584839,11.11013221740723,0.09738595783710,-0.11780732125044,9.78389453887939,0.21134305000305,-0.98613524436951,-0.79958671331406
231,1954189835,-0.67321342229843,-0.47766324877739,11.11018085479736,0.08189283311367,-0.10562574863434,9.79704952239990,0.20209631323814,-1.03997635841370,-0.82684028148651
232,1954198168,-0.67337918281555,-0.47806948423386,11.11000347137451,0.08118470013142,-0.09466754645109,9.80954551696777,0.18816214799881,-1.12770509719849,-0.87041008472443
233,1954206501,-0.67306613922119,-0.47787743806839,11.10871791839600,0.11053287982941,-0.12679129838943,9.79542541503906,0.24412927031517,-1.05152845382690,-1.01308143138885
234,1954214834,-0.67298018932343,-0.47774621844292,11.10895824432373,0.08720030635595,-0.12312904000282,9.81500911712646,0.21936030685902,-1.06174850463867,-0.81892555952072
235,1954223167,-0.67325150966644,-0.47703012824059,11.10841464996338,0.07016944885254,-0.11587636172771,9.78571128845215,0.17555993795395,-0.99112993478775,-0.90583455562592
236,1954231500,-0.67317742109299,-0.47712105512619,11.10832214355469,0.09678518772125,-0.12367297708988,9.80184078216553,0.21746484935284,-1.08956551551819,-0.85760301351547
237,1954239833,-0.67303609848022,-0.47722408175468,11.10891437530518,0.08579113334417,-0.11130510270596,9.79042625427246,0.22553333640099,-1.08966791629791,-0.78035044670105
238,1954248166,-0.67291128635406,-0.47713604569435,11.10906028747559,0.07051279395819,-0.12375164031982,9.80370044708252,0.22430384159088,-1.06830561161041,-0.83022141456604
239,1954256499,-0.67278611660004,-0.47731554508209,11.10910606384277,0.06734401732683,-0.11572584509850,9.79199886322021,0.22448313236237,-1.09937572479248,-0.85040533542633
240,1954264832,-0.67315065860748,-0.47678548097610,11.10890102386475,0.07577006518841,-0.12164124846458,9.79316425323486,0.16370058059692,-1.01359367370605,-0.87253606319427
241,1954273165,-0.67314481735229,-0.47746631503105,11.10848999023438,0.08197151869535,-0.10677014291286,9.77159214019775,0.20865353941917,-1.15851902961731,-0.88070702552795
242,1954281498,-0.67285120487213,-0.47678855061531,11.10893917083740,0.08182122558355,-0.10639799386263,9.79130363464355,0.24561485648155,-0.99773848056793,-0.79354172945023
243,1954289831,-0.67274475097656,-0.47676685452461,11.10955142974854,0.08293727785349,-0.11069052666426,9.78261470794678,0.22105087339878,-1.07581067085266,-0.76769697666168
244,1954298164,-0.67264837026596,-0.47595533728600,11.11005306243896,0.05440452322364,-0.11775010079145,9.79621887207031,0.22112768888474,-0.98062807321548,-0.78508901596069
245,1954306497,-0.67255455255508,-0.47576969861984,11.10919189453125,0.07463276386261,-0.09144909679890,9.77842998504639,0.21902732551098,-1.05447399616241,-0.94817489385605
246,1954314830,-0.67272943258286,-0.47565793991089,11.10930728912354,0.07880286872387,-0.11865851283073,9.79970264434814,0.18734250962734,-1.06507825851440,-0.83301323652267
247,1954323163,-0.67318052053452,-0.47606119513512,11.10901641845703,0.08326624333858,-0.09742887318134,9.79680538177490,0.15401838719845,-1.12463128566742,-0.89594751596451
248,1954331496,-0.67288827896118,-0.47583782672882,11.10899925231934,0.07577006518841,-0.10529699921608,9.78682708740234,0.24354013800621,-1.05029892921448,-0.84838187694550
249,1954339829,-0.67292159795761,-0.47535976767540,11.10801219940186,0.08887407183647,-0.12511752545834,9.80069637298584,0.20406860113144,-1.02009963989258,-0.95314407348633
250,1954348162,-0.67411834001541,-0.47536501288414,11.10758304595947,0.08637770265341,-0.10347270220518,9.76810932159424,0.06370259821415,-1.07719397544861,-0.89953345060349
251,1954356495,-0.67311197519302,-0.47577679157257,11.10778522491455,0.07445394247770,-0.13040347397327,9.76037597656250,0.33067977428436,-1.12855041027069,-0.80289101600647
252,1954364828,-0.67362093925476,-0.47619125247002,11.10803318023682,0.07939655333757,-0.11370874196291,9.79322910308838,0.14656464755535,-1.12747454643250,-0.81933528184891
253,1954373161,-0.67429476976395,-0.47665151953697,11.10856056213379,0.06637123227119,-0.11777871102095,9.76132011413574,0.12917257845402,-1.13341712951660,-0.78808593750000
254,1954381494,-0.67476069927216,-0.47619578242302,11.10844135284424,0.06718665361404,-0.10935266315937,9.77854442596436,0.15138012170792,-1.02245616912842,-0.86116331815720
255,1954389827,-0.67451065778732,-0.47624605894089,11.10805797576904,0.08782983571291,-0.12225671112537,9.77674198150635,0.23846851289272,-1.08403277397156,-0.87445712089539
256,1954398160,-0.67469227313995,-0.47635352611542,11.10804653167725,0.08056962490082,-0.11675585806370,9.80753517150879,0.18744495511055,-1.09120476245880,-0.84830504655838
257,1954406493,-0.67517250776291,-0.47665026783943,11.10781478881836,0.09644178301096,-0.11644113063812,9.80115413665771,0.15002256631851,-1.11241340637207,-0.85475981235504
258,1954414826,-0.67533993721008,-0.47705113887787,11.10856819152832,0.08252950012684,-0.11892316490412,9.79161262512207,0.18998076021671,-1.12655246257782,-0.75683659315109
259,1954423159,-0.67530953884125,-0.47698467969894,11.10811424255371,0.08579835295677,-0.11950254440308,9.78001785278320,0.21131742000580,-1.06922769546509,-0.89684396982193
260,1954431492,-0.67590165138245,-0.47660207748413,11.10843753814697,0.08607731014490,-0.11014662683010,9.79566860198975,0.13839371502399,-1.03208720684052,-0.80729663372040
261,1954439825,-0.67526376247406,-0.47679352760315,11.10851860046387,0.08005470782518,-0.10641316324472,9.77202796936035,0.28495836257935,-1.10052835941315,-0.84520566463470
262,1954448158,-0.67559039592743,-0.47646942734718,11.10884761810303,0.07051992416382,-0.10621284693480,9.79653358459473,0.17066766321659,-1.03997635841370,-0.80755275487900
263,1954456491,-0.67583167552948,-0.47685420513153,11.10931205749512,0.08909580856562,-0.10684201866388,9.76540470123291,0.17964543402195,-1.12413191795349,-0.80031669139862
264,1954464824,-0.67564314603806,-0.47730696201324,11.10957336425781,0.06142854690552,-0.12031050771475,9.79906654357910,0.23086106777191,-1.13211071491241,-0.82222968339920
265,1954473157,-0.67579120397568,-0.47744134068489,11.11030960083008,0.07956101745367,-0.11534646898508,9.80712795257568,0.19128710031509,-1.09453463554382,-0.76080685853958
266,1954481490,-0.67521816492081,-0.47740510106087,11.11060333251953,0.07222948968410,-0.10991803556681,9.81242752075195,0.27783757448196,-1.07427382469177,-0.81226575374603
267,1954489823,-0.67522943019867,-0.47710767388344,11.11057949066162,0.08146373182535,-0.08176414668560,9.77320861816406,0.20760336518288,-1.04248666763306,-0.86147081851959
268,1954498156,-0.67496293783188,-0.47744324803352,11.11034774780273,0.09061937034130,-0.11196345090866,9.76380920410156,0.24033838510513,-1.11738264560699,-0.87586587667465
269,1954506489,-0.67575031518936,-0.47815337777138,11.11003589630127,0.09515427052975,-0.12855088710785,9.77126979827881,0.11329177767038,-1.16213071346283,-0.88142430782318
270,1954514822,-0.67521190643311,-0.47840443253517,11.11041545867920,0.05959041416645,-0.11516107618809,9.76793670654297,0.27455899119377,-1.10826385021210,-0.80388993024826
271,1954523155,-0.67551714181900,-0.47838336229324,11.11074733734131,0.07757258415222,-0.12263549119234,9.75257968902588,0.17188429832458,-1.07492697238922,-0.78638255596161
272,1954531488,-0.67537814378738,-0.47818922996521,11.10994529724121,0.06974737346172,-0.10782910883427,9.78840065002441,0.22417578101158,-1.05380797386169,-0.94474261999130
273,1954539821,-0.67571258544922,-0.47856426239014,11.10889911651611,0.08692850172520,-0.10046167671680,9.78512477874756,0.16744028031826,-1.12196755409241,-0.93941491842270
274,1954548154,-0.67528516054153,-0.47890233993530,11.10862445831299,0.09541892260313,-0.10641999542713,9.78624820709229,0.25995886325836,-1.11804866790771,-0.88129621744156
275,1954556487,-0.67596244812012,-0.47925683856010,11.10880279541016,0.09349476546049,-0.10704914480448,9.75484085083008,0.12699536979198,-1.11902177333832,-0.81544190645218
276,1954564820,-0.67593711614609,-0.47916936874390,11.10926055908203,0.08571973443031,-0.10403839498758,9.75910282135010,0.21313606202602,-1.06922793388367,-0.79231232404709
277,1954573153,-0.67585712671280,-0.47898077964783,11.10916042327881,0.08999706804752,-0.09330883622169,9.76998233795166,0.21656832098961,-1.05419218540192,-0.84558981657028
278,1954581486,-0.67617821693420,-0.47872683405876,11.10832977294922,0.08629910647869,-0.10993237793446,9.76502513885498,0.16941255331039,-1.04653370380402,-0.94740658998489
279,1954589819,-0.67686456441879,-0.47869446873665,11.10879707336426,0.07198613882065,-0.11161953955889,9.77945899963379,0.12717467546463,-1.07409441471100,-0.78109318017960
280,1954598152,-0.67705363035202,-0.47886654734612,11.10937500000000,0.07566992193460,-0.12091165781021,9.81230545043945,0.18662530183792,-1.09991359710693,-0.77940273284912
281,1954606485,-0.67700892686844,-0.47884556651115,11.10942840576172,0.07504762709141,-0.11818642169237,9.78864383697510,0.21393010020256,-1.07453012466431,-0.84879165887833
282,1954614818,-0.67712581157684,-0.47888544201851,11.10884571075439,0.07793022692204,-0.10464609414339,9.79072570800781,0.19411745667458,-1.08186841011047,-0.91842395067215
283,1954623151,-0.67792046070099,-0.47870549559593,11.10931587219238,0.08192866295576,-0.10800077766180,9.79451656341553,0.11231843382120,-1.05685615539551,-0.78849589824677
284,1954631484,-0.67862540483475,-0.47886189818382,11.10966682434082,0.08883826434612,-0.10887312889099,9.79446029663086,0.12471570819616,-1.09758269786835,-0.80458152294159
285,1954639817,-0.67781591415405,-0.47941833734512,11.10993576049805,0.07788730412722,-0.11160580813885,9.77760028839111,0.30568030476570,-1.14391899108887,-0.83337199687958
286,1954648150,-0.67717939615250,-0.47945782542229,11.10966014862061,0.09230744093657,-0.12584711611271,9.78536796569824,0.28541937470436,-1.08298265933990,-0.87996411323547
287,1954656483,-0.67679727077484,-0.47920158505440,11.10968685150146,0.09222168475389,-0.11167048662901,9.79075431823730,0.25393953919411,-1.04730188846588,-0.85135310888290
288,1954664816,-0.67618781328201,-0.47846356034279,11.10974025726318,0.07431088387966,-0.12794290482998,9.78817176818848,0.28237131237984,-0.98859411478043,-0.84015971422195
289,1954673149,-0.67565673589706,-0.47919824719429,11.10961055755615,0.07308059930801,-0.09926000237465,9.78423118591309,0.27122914791107,-1.16535806655884,-0.88495898246765
290,1954681482,-0.67632699012756,-0.48048123717308,11.10888767242432,0.07430373132229,-0.10782910883427,9.78830051422119,0.12858346104622,-1.23070001602173,-0.93557274341583
291,1954689815,-0.67600816488266,-0.48092371225357,11.10918235778809,0.08360958099365,-0.09859478473663,9.80978107452393,0.24679315090179,-1.13131666183472,-0.82409960031509
292,1954698148,-0.67589408159256,-0.48075029253960,11.10872459411621,0.07785869389772,-0.10535422712564,9.76790809631348,0.22099959850311,-1.05580592155457,-0.90186434984207
293,1954706481,-0.67618364095688,-0.48045673966408,11.10831260681152,0.06364594399929,-0.10308645665646,9.77370262145996,0.17304976284504,-1.04097521305084,-0.90473318099976
294,1954714814,-0.67690634727478,-0.48039388656616,11.10792255401611,0.07701469957829,-0.12567578256130,9.78398036956787,0.12264095991850,-1.07050836086273,-0.89366769790649
295,1954723147,-0.67690598964691,-0.48038098216057,11.10809803009033,0.07765119522810,-0.10900187492371,9.81184101104736,0.20849989354610,-1.07675838470459,-0.82558524608612
296,1954731480,-0.67697966098785,-0.48076292872429,11.10790729522705,0.07496172934771,-0.10694897919893,9.79058361053467,0.19962452352047,-1.12277448177338,-0.87126815319061
297,1954739813,-0.67671298980713,-0.47968083620071,11.10787296295166,0.08697141706944,-0.11028968542814,9.78126239776611,0.23992857336998,-0.94853359460831,-0.84464216232300
298,1954748146,-0.67698967456818,-0.48017099499702,11.10753822326660,0.07419644296169,-0.11903046071529,9.78521823883057,0.17435608804226,-1.13579916954041,-0.88780212402344
299,1954756479,-0.67744839191437,-0.48013770580292,11.10704517364502,0.08375258743763,-0.10153427720070,9.81075382232666,0.15322434902191,-1.07301867008209,-0.91930758953094
300,1954764812,-0.67718786001205,-0.47965288162231,11.10702705383301,0.08278707414865,-0.12621936202049,9.79027462005615,0.23954431712627,-1.01861405372620,-0.84940642118454
301,1954773145,-0.67696100473404,-0.47952431440353,11.10659790039062,0.08616306632757,-0.12243489921093,9.79142761230469,0.23603516817093,-1.06182527542114,-0.88933897018433
302,1954781478,-0.67720443010330,-0.47878468036652,11.10608577728271,0.07624220848083,-0.12472442537546,9.75736427307129,0.17958138883114,-0.98849165439606,-0.90724325180054
303,1954789811,-0.67728781700134,-0.47845885157585,11.10636138916016,0.08961081504822,-0.12262833863497,9.79297828674316,0.19751137495041,-1.03820908069611,-0.81825953722000
304,1954798144,-0.67768967151642,-0.47846558690071,11.10618686676025,0.09235035628080,-0.10285788029432,9.79398059844971,0.16062687337399,-1.07988321781158,-0.86864268779755
305,1954806477,-0.67762368917465,-0.47741341590881,11.10635662078857,0.07681438326836,-0.10417400300503,9.79207706451416,0.21682448685169,-0.95071071386337,-0.80721974372864
306,1954814810,-0.67758047580719,-0.47762498259544,11.10615825653076,0.08609870076180,-0.12177683413029,9.80605506896973,0.21390447020531,-1.10247516632080,-0.87189567089081
307,1954823143,-0.67759841680527,-0.47746533155441,11.10634708404541,0.08311597257853,-0.10639824718237,9.80661964416504,0.20575915277004,-1.05995547771454,-0.81257325410843
308,1954831476,-0.67653000354767,-0.47756090760231,11.10539913177490,0.07657118141651,-0.11787885427475,9.78817176818848,0.33631488680840,-1.08792614936829,-0.96192967891693
309,1954839809,-0.67651766538620,-0.47698929905891,11.10504817962646,0.07948954403400,-0.10338003933430,9.78209972381592,0.20960125327110,-1.00747191905975,-0.89812475442886
310,1954848142,-0.67655533552170,-0.47764286398888,11.10489463806152,0.07409636676311,-0.11017557978630,9.79124736785889,0.20437599718571,-1.15577828884125,-0.86641424894333
311,1954856475,-0.67595255374908,-0.47765627503395,11.10573196411133,0.06708643585443,-0.12665513157845,9.80030345916748,0.28137236833572,-1.08170187473297,-0.73824065923691
312,1954864808,-0.67528891563416,-0.47748091816902,11.10547733306885,0.08033357560635,-0.10885196179152,9.77567577362061,0.28823697566986,-1.05608785152435,-0.87765896320343
313,1954873141,-0.67520660161972,-0.47714394330978,11.10499668121338,0.09405988454819,-0.12143381685019,9.80576801300049,0.21751607954502,-1.03687703609467,-0.88839131593704
314,1954881474,-0.67564618587494,-0.47736927866936,11.10550785064697,0.08751508593559,-0.12473157048225,9.76589775085449,0.15709209442139,-1.10544633865356,-0.78798353672028
315,1954889807,-0.67558354139328,-0.47744601964951,11.10545635223389,0.07933933287859,-0.12679129838943,9.76563358306885,0.21585114300251,-1.08697855472565,-0.83519059419632
316,1954898140,-0.67488253116608,-0.47743210196495,11.10501956939697,0.08167125284672,-0.11709952354431,9.78295040130615,0.29182296991348,-1.07517027854919,-0.90017378330231
317,1954906473,-0.67554485797882,-0.47705948352814,11.10504913330078,0.07817337661982,-0.10744972527027,9.78708553314209,0.13027399778366,-1.03347039222717,-0.83206564188004
318,1954914806,-0.67580908536911,-0.47731608152390,11.10513687133789,0.07444678992033,-0.12964527308941,9.80715560913086,0.17620031535625,-1.10887861251831,-0.83790564537048
319,1954923139,-0.67541295289993,-0.47834163904190,11.10514640808105,0.09138472378254,-0.10039015114307,9.80005264282227,0.25660338997841,-1.20052635669708,-0.83826416730881
320,1954931472,-0.67519026994705,-0.47872966527939,11.10558700561523,0.07090613245964,-0.11353707313538,9.77236461639404,0.23524112999439,-1.12447762489319,-0.79630810022354
321,1954939805,-0.67478001117706,-0.47813251614571,11.10583972930908,0.10388065874577,-0.11847942322493,9.77692127227783,0.25865253806114,-1.00613987445831,-0.80355691909790
322,1954948138,-0.67405134439468,-0.47746789455414,11.10579681396484,0.06462603062391,-0.11355166882277,9.78129100799561,0.29502475261688,-0.99835306406021,-0.85337662696838
323,1954956471,-0.67337703704834,-0.47781372070312,11.10577201843262,0.07766565680504,-0.10502552241087,9.79031085968018,0.28977382183075,-1.11833024024963,-0.86300760507584
324,1954964804,-0.67341059446335,-0.47725158929825,11.10524654388428,0.07401762157679,-0.10792924463749,9.77105522155762,0.20422229170799,-1.00972592830658,-0.91062444448471
325,1954973137,-0.67360389232635,-0.47748097777367,11.10523700714111,0.08073414117098,-0.10818675160408,9.79897308349609,0.18549831211567,-1.10547196865082,-0.84776717424393
326,1954981470,-0.67305183410645,-0.47743466496468,11.10513687133789,0.08240790665150,-0.10525408387184,9.77043342590332,0.27473828196526,-1.07209658622742,-0.86049741506577
327,1954989803,-0.67346251010895,-0.47796958684921,11.10459232330322,0.09177103638649,-0.10672792047262,9.77767181396484,0.15742509067059,-1.14081966876984,-0.90983051061630
328,1954998136,-0.67264485359192,-0.47815454006195,11.10546016693115,0.07861697673798,-0.09921736270189,9.77747821807861,0.30803680419922,-1.10150182247162,-0.74379897117615
329,1955006469,-0.67311155796051,-0.47781175374985,11.10587978363037,0.07262276858091,-0.11991714686155,9.78616237640381,0.15281452238560,-1.03708195686340,-0.78818839788437
330,1955014802,-0.67319697141647,-0.47759160399437,11.10523128509521,0.07850960642099,-0.11986018717289,9.79109001159668,0.19897137582302,-1.05081129074097,-0.92476356029510
331,1955023135,-0.67255365848541,-0.47763887047768,11.10537242889404,0.07241538167000,-0.10010403394699,9.78630542755127,0.28581640124321,-1.08327722549438,-0.83023411035538
332,1955031468,-0.67303884029388,-0.47713717818260,11.10532760620117,0.08542640507221,-0.10497512668371,9.74798774719238,0.14935660362244,-1.01774311065674,-0.85160923004150
333,1955039801,-0.67299771308899,-0.47731316089630,11.10488414764404,0.07413921505213,-0.11383749544621,9.79645538330078,0.21339221298695,-1.09837687015533,-0.90130090713501
334,1955048134,-0.67335909605026,-0.47706016898155,11.10442638397217,0.07727216184139,-0.12368696182966,9.81852912902832,0.16513498127460,-1.04576516151428,-0.90345251560211
335,1955056467,-0.67383867502213,-0.47631910443306,11.10465049743652,0.08157826960087,-0.11611980944872,9.82990264892578,0.15032994747162,-0.98982363939285,-0.82348483800888
336,1955064800,-0.67403662204742,-0.47575446963310,11.10439777374268,0.06845980137587,-0.11543229222298,9.77070522308350,0.18544705212116,-1.00911116600037,-0.87778699398041
337,1955073133,-0.67346960306168,-0.47578522562981,11.10486221313477,0.07593449950218,-0.12787108123302,9.79008293151855,0.27619829773903,-1.08142018318176,-0.80412048101425
338,1955081466,-0.67357289791107,-0.47617194056511,11.10512065887451,0.08074849843979,-0.11780048161745,9.80249214172363,0.19779311120510,-1.12545096874237,-0.81656891107559
339,1955089799,-0.67389327287674,-0.47691968083382,11.10568618774414,0.09303703159094,-0.10787917673588,9.77624797821045,0.16974554955959,-1.16804778575897,-0.79546296596527
340,1955098132,-0.67394518852234,-0.47689810395241,11.10629749298096,0.09039762616158,-0.11445263773203,9.78052520751953,0.20273667573929,-1.07550323009491,-0.77602165937424
341,1955106465,-0.67382836341858,-0.47639733552933,11.10627555847168,0.08978240936995,-0.13015998899937,9.75599956512451,0.22251084446907,-1.01881909370422,-0.83903270959854
342,1955114798,-0.67416387796402,-0.47685089707375,11.10628414154053,0.08061254024506,-0.10937412083149,9.78256416320801,0.16884902119637,-1.13103497028351,-0.84587168693542
343,1955123131,-0.67394280433655,-0.47782975435257,11.10608673095703,0.08504730463028,-0.09988944977522,9.77353763580322,0.23403729498386,-1.19524991512299,-0.88513827323914
344,1955131464,-0.67407256364822,-0.47750017046928,11.10619354248047,0.07654257118702,-0.10384497046471,9.76819419860840,0.19374606013298,-1.03769671916962,-0.83475506305695
345,1955139797,-0.67437118291855,-0.47706335783005,11.10589694976807,0.08898136764765,-0.11455993354321,9.76551151275635,0.17210203409195,-1.02483832836151,-0.90634691715240
346,1955148130,-0.67361944913864,-0.47620916366577,11.10604858398438,0.06241570785642,-0.10796501487494,9.79900169372559,0.29963532090187,-0.97604310512543,-0.82814657688141
347,1955156463,-0.67376941442490,-0.47617325186729,11.10570240020752,0.07406775653362,-0.10523295402527,9.79262828826904,0.18999357521534,-1.07241678237915,-0.89175951480865
348,1955164796,-0.67362773418427,-0.47614428400993,11.10611057281494,0.07880293577909,-0.12111937999725,9.79194164276123,0.22580227255821,-1.07400465011597,-0.79801148176193
349,1955173129,-0.67354047298431,-0.47624048590660,11.10593223571777,0.08870233595371,-0.12230613827705,9.78848743438721,0.21797712147236,-1.08930945396423,-0.87455958127975
350,1955181462,-0.67428827285767,-0.47649353742599,11.10555934906006,0.06257306784391,-0.13527455925941,9.80125427246094,0.11869636178017,-1.10734188556671,-0.89225906133652
351,1955189795,-0.67436301708221,-0.47672635316849,11.10534954071045,0.09209291636944,-0.10610560327768,9.81130409240723,0.19892014563084,-1.10567688941956,-0.87166517972946
352,1955198128,-0.67475241422653,-0.47656589746475,11.10576057434082,0.08110608905554,-0.14483076334000,9.79124069213867,0.16341882944107,-1.05872607231140,-0.79835730791092
353,1955206461,-0.67429554462433,-0.47712132334709,11.10558700561523,0.05473355576396,-0.11568292975426,9.80629730224609,0.26285326480865,-1.14519953727722,-0.86943680047989
354,1955214794,-0.67293310165405,-0.47753274440765,11.10569477081299,0.06195803731680,-0.12641967833042,9.81594657897949,0.37196990847588,-1.12616825103760,-0.83439642190933
355,1955223127,-0.67295891046524,-0.47774878144264,11.10519886016846,0.09556913375854,-0.10810091346502,9.79120445251465,0.20501634478569,-1.10380709171295,-0.91105997562408
356,1955231460,-0.67313462495804,-0.47777521610260,11.10457801818848,0.07863119989634,-0.11047565937042,9.82141876220703,0.18652285635471,-1.08029317855835,-0.92245823144913
357,1955239793,-0.67316770553589,-0.47754046320915,11.10452270507812,0.08455368876457,-0.10971001535654,9.78608417510986,0.20504194498062,-1.04827535152435,-0.82904309034348
358,1955248126,-0.67336851358414,-0.47788757085800,11.10405254364014,0.09508274495602,-0.12146957963705,9.78985977172852,0.18355162441730,-1.11932933330536,-0.90542483329773
359,1955256459,-0.67352509498596,-0.47820696234703,11.10341930389404,0.07773703336716,-0.10011799633503,9.79596900939941,0.18946848809719,-1.11597371101379,-0.92786288261414
360,1955264792,-0.67408913373947,-0.47840335965157,11.10324573516846,0.09310855716467,-0.10472477227449,9.78477478027344,0.14139057695866,-1.10019540786743,-0.86784863471985
361,1955273125,-0.67445564270020,-0.47829082608223,11.10345458984375,0.08793704956770,-0.11050426959991,9.78175640106201,0.16452020406723,-1.06454038619995,-0.81723493337631
362,1955281458,-0.67493516206741,-0.47874259948730,11.10332107543945,0.06624247878790,-0.12536072731018,9.78371620178223,0.15079098939896,-1.13093245029449,-0.86459565162659
363,1955289791,-0.67486852407455,-0.47836485505104,11.10330867767334,0.08237213641405,-0.11758558452129,9.75722122192383,0.21579992771149,-1.03275310993195,-0.84366881847382
364,1955298124,-0.67559307813644,-0.47855213284492,11.10329532623291,0.06474753469229,-0.11167018115520,9.80467319488525,0.12205182760954,-1.10055398941040,-0.85020047426224
365,1955306457,-0.67501753568649,-0.47837844491005,11.10373973846436,0.08319471776485,-0.12388008832932,9.79934501647949,0.27855479717255,-1.05785501003265,-0.80406922101974
366,1955314790,-0.67448109388351,-0.47817844152451,11.10402774810791,0.08142080903053,-0.10581915825605,9.78370857238770,0.27332949638367,-1.05373132228851,-0.81170231103897
367,1955323123,-0.67468434572220,-0.47787606716156,11.10439872741699,0.08728608489037,-0.10407359153032,9.77228641510010,0.18439686298370,-1.04276835918427,-0.79351621866226
368,1955331456,-0.67503428459167,-0.47721594572067,11.10514736175537,0.08338069170713,-0.09918847680092,9.79986667633057,0.16631323099136,-0.99845564365387,-0.75688779354095
369,1955339789,-0.67464387416840,-0.47729507088661,11.10572528839111,0.09575502574444,-0.10755699872971,9.80477428436279,0.25621920824051,-1.08784937858582,-0.82010382413864
370,1955348122,-0.67510730028152,-0.47847327589989,11.10628795623779,0.09059080481529,-0.11754299700260,9.78244972229004,0.15424890816212,-1.21999311447144,-0.78114449977875
371,1955356455,-0.67571210861206,-0.47814533114433,11.10634422302246,0.09481088817120,-0.11979552358389,9.77398109436035,0.13613966107368,-1.03836262226105,-0.85025179386139
372,1955364788,-0.67518240213394,-0.47825139760971,11.10593032836914,0.08465398102999,-0.09681406617165,9.78928089141846,0.27076804637909,-1.09002649784088,-0.89748418331146
373,1955373121,-0.67415255308151,-0.47872108221054,11.10674285888672,0.09096270054579,-0.11419513821602,9.78514671325684,0.33347174525261,-1.13482582569122,-0.77540695667267
374,1955381454,-0.67379403114319,-0.47888848185539,11.10652828216553,0.07551248371601,-0.14037422835827,9.79428863525391,0.25171107053757,-1.09704470634460,-0.87381678819656
375,1955389787,-0.67404842376709,-0.47935158014297,11.10722827911377,0.08681400120258,-0.11067564785480,9.79527568817139,0.17847996950150,-1.13567101955414,-0.76142156124115
376,1955398120,-0.67390829324722,-0.47971823811531,11.10661506652832,0.06878180801868,-0.10815133899450,9.78571128845215,0.22425261139870,-1.12002086639404,-0.92081880569458
377,1955406453,-0.67427700757980,-0.47937464714050,11.10613155364990,0.06314535439014,-0.11340864002705,9.78523254394531,0.16375178098679,-1.03598046302795,-0.88741785287857
378,1955414786,-0.67418742179871,-0.47867625951767,11.10657024383545,0.06499800831079,-0.10933889448643,9.76994800567627,0.21987254917622,-0.99579173326492,-0.79459196329117
379,1955423119,-0.67481935024261,-0.47820237278938,11.10636711120605,0.07880291342735,-0.11174201220274,9.79017448425293,0.13311716914177,-1.01933121681213,-0.85376083850861
380,1955431452,-0.67449414730072,-0.47713017463684,11.10622692108154,0.06804499775171,-0.11344408988953,9.78677749633789,0.24774083495140,-0.94973731040955,-0.86364781856537
381,1955439785,-0.67474883794785,-0.47650298476219,11.10662651062012,0.09184250235558,-0.13306434452534,9.78645515441895,0.17730174958706,-1.00257968902588,-0.79635941982269
382,1955448118,-0.67512857913971,-0.47622817754745,11.10680007934570,0.10194236785173,-0.10624861717224,9.76496791839600,0.16344442963600,-1.04435634613037,-0.82745504379272
383,1955456451,-0.67461305856705,-0.47694298624992,11.10738563537598,0.08624905347824,-0.12168446928263,9.78830051422119,0.27084493637085,-1.16556298732758,-0.76290720701218
384,1955464784,-0.67460167407990,-0.47714468836784,11.10788059234619,0.08338791131973,-0.10850892215967,9.81334304809570,0.21152234077454,-1.10234713554382,-0.78872627019882
385,1955473117,-0.67460685968399,-0.47679272294044,11.10805606842041,0.07484019547701,-0.10096237808466,9.77541828155518,0.20753934979439,-1.03530180454254,-0.84094101190567
386,1955481450,-0.67503941059113,-0.47604432702065,11.10799598693848,0.07270149886608,-0.10981044173241,9.79762840270996,0.15552963316441,-0.98756957054138,-0.85332536697388
387,1955489783,-0.67491066455841,-0.47631162405014,11.10881233215332,0.08169255405664,-0.09338722378016,9.80973148345947,0.22466248273849,-1.11095333099365,-0.78742003440857
388,1955498116,-0.67465049028397,-0.47595363855362,11.10909461975098,0.08708593249321,-0.11711379140615,9.78775024414062,0.24110677838326,-1.03510963916779,-0.81387954950333
389,1955506449,-0.67503565549850,-0.47642353177071,11.10960960388184,0.08533341437578,-0.12245666980743,9.79875850677490,0.16185633838177,-1.13510751724243,-0.77991497516632
390,1955514782,-0.67509621381760,-0.47671395540237,11.10913372039795,0.07888870686293,-0.11853691190481,9.77119159698486,0.20135350525379,-1.11228537559509,-0.90488684177399
391,1955523115,-0.67492741346359,-0.47632423043251,11.10954093933105,0.07383880019188,-0.10392365604639,9.77418136596680,0.22914493083954,-1.03075516223907,-0.79938179254532
392,1955531448,-0.67453384399414,-0.47627097368240,11.10867023468018,0.06687899678946,-0.11531063914299,9.79455280303955,0.25524589419365,-1.06956088542938,-0.95252943038940
393,1955539781,-0.67443740367889,-0.47668594121933,11.10821342468262,0.09343758970499,-0.11024677008390,9.81861495971680,0.21889923512936,-1.12698781490326,-0.93470180034637
394,1955548114,-0.67441701889038,-0.47687265276909,11.10842418670654,0.08094157278538,-0.10099098831415,9.78500366210938,0.21165041625500,-1.10055398941040,-0.82212728261948
395,1955556447,-0.67457026243210,-0.47763130068779,11.10803794860840,0.08242942392826,-0.11149171739817,9.80950164794922,0.19018568098545,-1.16879022121429,-0.88598352670670
396,1955564780,-0.67446631193161,-0.47804266214371,11.10798931121826,0.07830210030079,-0.11769255995750,9.79743576049805,0.21979574859142,-1.12698781490326,-0.85363280773163
397,1955573113,-0.67464578151703,-0.47855469584465,11.10821628570557,0.08051949739456,-0.10021816939116,9.79733562469482,0.18726566433907,-1.13823258876801,-0.81833630800247
398,1955581446,-0.67455559968948,-0.47857043147087,11.10737037658691,0.08932470530272,-0.12456676363945,9.76541900634766,0.21879678964615,-1.07947337627411,-0.94943004846573
399,1955589779,-0.67438554763794,-0.47849440574646,11.10714435577393,0.09184965491295,-0.11317943036556,9.79846477508545,0.22835092246532,-1.06933021545410,-0.86188054084778
400,1955598112,-0.67418271303177,-0.47926691174507,11.10730075836182,0.10338003933430,-0.12732775509357,9.78141975402832,0.23401165008545,-1.16927695274353,-0.83065682649612
401,1955606445,-0.67404776811600,-0.47900506854057,11.10735797882080,0.08300159126520,-0.11828656494617,9.80379390716553,0.22417578101158,-1.04719948768616,-0.81974512338638
402,1955614778,-0.67413759231567,-0.47913050651550,11.10789775848389,0.08499722927809,-0.13066813349724,9.76726436614990,0.19876648485661,-1.09235751628876,-0.78219473361969
403,1955623111,-0.67373710870743,-0.47882178425789,11.10746574401855,0.07678584754467,-0.10894527286291,9.76848697662354,0.25573250651360,-1.04041182994843,-0.89392393827438
404,1955631444,-0.67392539978027,-0.47835290431976,11.10756683349609,0.06638547778130,-0.11586862057447,9.79014682769775,0.18567758798599,-1.02219998836517,-0.83424282073975
405,1955639777,-0.67420405149460,-0.47884422540665,11.10791492462158,0.07519068568945,-0.11586175113916,9.78756427764893,0.17491960525513,-1.13602972030640,-0.81487852334976
406,1955648110,-0.67502653598785,-0.47790920734406,11.10812568664551,0.06805930286646,-0.12159118056297,9.77887344360352,0.11080715805292,-0.96656590700150,-0.82164061069489
407,1955656443,-0.67476367950439,-0.47734960913658,11.10713291168213,0.09910263866186,-0.11187046021223,9.78023910522461,0.23882712423801,-1.00875258445740,-0.96292871236801
408,1955664776,-0.67491602897644,-0.47732388973236,11.10665988922119,0.06582767516375,-0.11190656572580,9.78304386138916,0.19016006588936,-1.07414567470551,-0.90537339448929
409,1955673109,-0.67504215240479,-0.47793662548065,11.10724258422852,0.08682841807604,-0.11761450022459,9.80777072906494,0.19338747859001,-1.15157759189606,-0.78268134593964
410,1955681442,-0.67524355649948,-0.47790604829788,11.10773277282715,0.08214324712753,-0.11224240809679,9.76963901519775,0.18565197288990,-1.07609236240387,-0.78852140903473
411,1955689775,-0.67483747005463,-0.47872418165207,11.10786151885986,0.10238571465015,-0.11531065404415,9.77240085601807,0.25729498267174,-1.17491209506989,-0.84110748767853
412,1955698108,-0.67485207319260,-0.47920718789101,11.10736560821533,0.08294429630041,-0.12744900584221,9.78383827209473,0.20578475296497,-1.13561987876892,-0.90803736448288
413,1955706441,-0.67426192760468,-0.47992998361588,11.10739612579346,0.09035471081734,-0.10945280641317,9.76726436614990,0.27906706929207,-1.16417980194092,-0.85634797811508
414,1955714774,-0.67434811592102,-0.47935009002686,11.10739421844482,0.08478264510632,-0.10439573973417,9.78914451599121,0.19981662929058,-1.00854766368866,-0.84674257040024
415,1955723107,-0.67398512363434,-0.47926568984985,11.10751152038574,0.08029066026211,-0.11226387321949,9.76132774353027,0.25185194611549,-1.06760132312775,-0.83066964149475
416,1955731440,-0.67411792278290,-0.47922170162201,11.10759162902832,0.08186428993940,-0.10473907738924,9.78417396545410,0.19205553829670,-1.07281386852264,-0.83706045150757
417,1955739773,-0.67509251832962,-0.47900250554085,11.10778427124023,0.07652826607227,-0.10186363756657,9.78777122497559,0.09172456711531,-1.05109286308289,-0.83081042766571
418,1955748106,-0.67486292123795,-0.47888639569283,11.10793972015381,0.07947516441345,-0.12131192535162,9.78597640991211,0.23641936480999,-1.06349015235901,-0.82858204841614
419,1955756439,-0.67454338073730,-0.47258639335632,11.11016654968262,0.08377409726381,-0.12840783596039,9.79840755462646,0.21915538609028,-1.14163935184479,-0.88434422016144
420,1955764772,-0.67444199323654,-0.47329902648926,11.10942554473877,0.07893169671297,-0.11236438155174,9.77852249145508,0.22069224715233,-1.16125965118408,-0.93813419342041
421,1955773105,-0.67413580417633,-0.47311830520630,11.10985565185547,0.10204961150885,-0.12518189847469,9.78609085083008,0.24602472782135,-1.05731713771820,-0.79835724830627
422,1955781438,-0.67368566989899,-0.47351029515266,11.11007976531982,0.09392397850752,-0.10966023802757,9.78840065002441,0.26180306077003,-1.12511813640594,-0.82279324531555
423,1955789771,-0.67331898212433,-0.47363466024399,11.11012458801270,0.06933251023293,-0.10988197475672,9.80759906768799,0.25324794650078,-1.09384322166443,-0.84000599384308
424,1955798104,-0.67253494262695,-0.47330096364021,11.10998153686523,0.07456848025322,-0.11729262769222,9.76820087432861,0.30183812975883,-1.03785049915314,-0.86469823122025
425,1955806437,-0.67292791604996,-0.47323879599571,11.11001873016357,0.06986896693707,-0.10587637871504,9.80791378021240,0.16265039145947,-1.07004737854004,-0.80711740255356
426,1955814770,-0.67272913455963,-0.47297170758247,11.10928058624268,0.06774457544088,-0.11830087006092,9.75993251800537,0.23101477324963,-1.04584205150604,-0.93716078996658
427,1955823103,-0.67264240980148,-0.47291946411133,11.10947227478027,0.07029814273119,-0.12207041680813,9.79818630218506,0.21859186887741,-1.07158434391022,-0.84026217460632
428,1955831436,-0.67208302021027,-0.47304400801659,11.10935020446777,0.06784471869469,-0.11952400207520,9.75569057464600,0.27619829773903,-1.09317708015442,-0.86336618661880
429,1955839769,-0.67204123735428,-0.47317615151405,11.10945320129395,0.06776603311300,-0.10863022506237,9.80434417724609,0.21362273395061,-1.09417617321014,-0.87440598011017
430,1955848102,-0.67215305566788,-0.47380927205086,11.10963439941406,0.07803751528263,-0.09173521399498,9.74979019165039,0.19539819657803,-1.15353715419769,-0.82757031917572
431,1955856435,-0.67248183488846,-0.47298741340637,11.10907459259033,0.07981857657433,-0.13061806559563,9.79640483856201,0.16878500580788,-0.97820764780045,-0.87114012241364
432,1955864768,-0.67239743471146,-0.47281381487846,11.10839939117432,0.08460375666618,-0.10817927122116,9.79999637603760,0.21787467598915,-1.05772686004639,-0.92965579032898
433,1955873101,-0.67189776897430,-0.47284615039825,11.10781192779541,0.10123410075903,-0.10386610776186,9.76476097106934,0.26700279116631,-1.08075428009033,-0.90045553445816
434,1955881434,-0.67307537794113,-0.47387799620628,11.10798072814941,0.06758008897305,-0.10568359494209,9.80126190185547,0.06795457005501,-1.20295977592468,-0.82988840341568
435,1955889767,-0.67262172698975,-0.47477936744690,11.10770416259766,0.07675715535879,-0.11959553509951,9.78096199035645,0.26231536269188,-1.18533706665039,-0.87517422437668
436,1955898100,-0.67342102527618,-0.47414699196815,11.10855960845947,0.07243683934212,-0.09916701167822,9.77380943298340,0.11429071426392,-1.00319433212280,-0.74425995349884
437,1955906433,-0.67335301637650,-0.47445297241211,11.10927581787109,0.10315836966038,-0.10483235865831,9.79089736938477,0.21672204136848,-1.11676776409149,-0.75678539276123
438,1955914766,-0.67311245203018,-0.47428423166275,11.10938262939453,0.09521864354610,-0.09801540523767,9.78667736053467,0.23913450539112,-1.05808568000793,-0.83552348613739
439,1955923099,-0.67295557260513,-0.47432613372803,11.10830020904541,0.08667099475861,-0.11347270011902,9.77143478393555,0.22540526092052,-1.08167612552643,-0.97074109315872
440,1955931432,-0.67297047376633,-0.47412472963333,11.10786437988281,0.06729394942522,-0.09844458103180,9.77308654785156,0.20655317604542,-1.05339825153351,-0.90101915597916
441,1955939765,-0.67265963554382,-0.47424864768982,11.10811901092529,0.07090620696545,-0.11373050510883,9.78809356689453,0.24578137695789,-1.09196043014526,-0.82956820726395
442,1955948098,-0.67247813940048,-0.47410339117050,11.10849380493164,0.07744376361370,-0.11664827913046,9.78688526153564,0.23074580729008,-1.06263208389282,-0.80364656448364
443,1955956431,-0.67242491245270,-0.47426223754883,11.10782146453857,0.09366655349731,-0.10984656214714,9.76582622528076,0.21382762491703,-1.09566175937653,-0.93185859918594
444,1955964764,-0.67228573560715,-0.47352534532547,11.10840892791748,0.07900314778090,-0.12706309556961,9.76041221618652,0.22609685361385,-0.98928576707840,-0.77581667900085
445,1955973097,-0.67107981443405,-0.47341141104698,11.10827064514160,0.08024059236050,-0.10742139816284,9.78516101837158,0.35268238186836,-1.06484770774841,-0.89538389444351
446,1955981430,-0.67001682519913,-0.47328755259514,11.10843753814697,0.07054123282433,-0.11741362512112,9.80085468292236,0.33577701449394,-1.06320834159851,-0.82850533723831
447,1955989763,-0.66958516836166,-0.47383737564087,11.10835170745850,0.09315147250891,-0.09741456806660,9.77345180511475,0.26029184460640,-1.14453375339508,-0.86897569894791
448,1955998096,-0.66871553659439,-0.47352230548859,11.10808181762695,0.07140672951937,-0.11783562600613,9.77528285980225,0.31318521499634,-1.03979706764221,-0.88004106283188
449,1956006429,-0.66922277212143,-0.47326087951660,11.10851478576660,0.09293694049120,-0.11085505038500,9.78453159332275,0.14787097275257,-1.04684090614319,-0.81856685876846
450,1956014762,-0.66902440786362,-0.47306385636330,11.10843563079834,0.10227842628956,-0.10711352527142,9.76003360748291,0.23224425315857,-1.05429470539093,-0.85783350467682
451,1956023095,-0.66908299922943,-0.47337239980698,11.10885143280029,0.08933185786009,-0.10704945027828,9.77342319488525,0.20185297727585,-1.11544871330261,-0.80661779642105
452,1956031428,-0.66890859603882,-0.47419142723083,11.10853576660156,0.07272295653820,-0.11674155294895,9.78108310699463,0.22819723188877,-1.17650032043457,-0.88662397861481
453,1956039761,-0.66894906759262,-0.47396731376648,11.10913753509521,0.08668530732393,-0.12166270613670,9.80420875549316,0.20478580892086,-1.05265533924103,-0.75960290431976
454,1956048094,-0.66833335161209,-0.47419255971909,11.10935497283936,0.07102773338556,-0.11319374293089,9.78633403778076,0.28334465622902,-1.10506212711334,-0.82274204492569
455,1956056427,-0.66777110099792,-0.47396054863930,11.10882377624512,0.08300864696503,-0.09763598442078,9.76035499572754,0.27512249350548,-1.04929995536804,-0.92507088184357
456,1956064760,-0.66783922910690,-0.47421672940254,11.10916519165039,0.08055531978607,-0.11727800965309,9.78164863586426,0.20099489390850,-1.11036407947540,-0.80793696641922
457,1956073093,-0.66825681924820,-0.47395426034927,11.10870456695557,0.07318073511124,-0.10888772457838,9.78664875030518,0.15814228355885,-1.04568827152252,-0.91246867179871
458,1956081426,-0.66772294044495,-0.47330889105797,11.10846233367920,0.08350237458944,-0.10810836404562,9.78816509246826,0.27238178253174,-1.00006949901581,-0.87760770320892
459,1956089759,-0.66805613040924,-0.47317031025887,11.10739326477051,0.08684987574816,-0.11767177283764,9.76749992370605,0.16603147983551,-1.05972492694855,-0.96093088388443
460,1956098092,-0.66791343688965,-0.47221976518631,11.10768413543701,0.08562668412924,-0.10797931998968,9.76672744750977,0.22712142765522,-0.96561831235886,-0.81308549642563
461,1956106425,-0.66819345951080,-0.47144100070000,11.10768699645996,0.08202165365219,-0.10161329060793,9.77147769927979,0.17417678236961,-0.98423963785172,-0.84015959501266
462,1956114758,-0.66757106781006,-0.47203305363655,11.10789012908936,0.06306669861078,-0.10546183586121,9.77644157409668,0.28362640738487,-1.14922106266022,-0.82461184263229
463,1956123091,-0.66778063774109,-0.47147244215012,11.10792446136475,0.08202885836363,-0.10940301418304,9.77898788452148,0.18378214538097,-1.01062250137329,-0.82550835609436
464,1956131424,-0.66745555400848,-0.47101315855980,11.10828018188477,0.06442565470934,-0.12105471640825,9.78817176818848,0.24784334003925,-1.02412128448486,-0.80634891986847
465,1956139757,-0.66755932569504,-0.47052842378616,11.10658740997314,0.07962537556887,-0.10129106044769,9.76740837097168,0.19464257359505,-1.01853728294373,-1.02929520606995
466,1956148090,-0.66731816530228,-0.47064572572708,11.10710811614990,0.08996845781803,-0.10873036831617,9.75830173492432,0.23841728270054,-1.09181952476501,-0.78667718172073
467,1956156423,-0.66746246814728,-0.47045388817787,11.10710906982422,0.09891666471958,-0.12001755088568,9.79493904113770,0.19153045117855,-1.05643355846405,-0.83438366651535
468,1956164756,-0.66775172948837,-0.47059896588326,11.10668468475342,0.09168519824743,-0.08546250313520,9.80225563049316,0.17269116640091,-1.09440660476685,-0.89891874790192
469,1956173089,-0.66812294721603,-0.47072094678879,11.10652828216553,0.06405370682478,-0.11955977231264,9.80803585052490,0.16331636905670,-1.09251117706299,-0.86813044548035
470,1956181422,-0.66833198070526,-0.47077250480652,11.10592460632324,0.08721461147070,-0.12125499546528,9.78026103973389,0.18375653028488,-1.08449387550354,-0.91989684104919
471,1956189755,-0.66889262199402,-0.47093990445137,11.10662651062012,0.07938940078020,-0.12215625494719,9.80008888244629,0.13998177647591,-1.09714722633362,-0.80534994602203
472,1956198088,-0.66937422752380,-0.47188359498978,11.10697460174561,0.09761479496956,-0.11960236728191,9.80403804779053,0.15281455218792,-1.19389247894287,-0.80832129716873
473,1956206421,-0.66922384500504,-0.47230347990990,11.10605335235596,0.06072048470378,-0.11142698675394,9.79569721221924,0.22540526092052,-1.12591207027435,-0.95567989349365
474,1956214754,-0.67002594470978,-0.47173789143562,11.10657310485840,0.07701466232538,-0.10910946875811,9.79801464080811,0.11293316632509,-1.01164698600769,-0.78508907556534
475,1956223087,-0.67016804218292,-0.47152221202850,11.10709476470947,0.07208640873432,-0.10819418728352,9.77272224426270,0.19110780954361,-1.05339825153351,-0.79689729213715
476,1956231420,-0.67027074098587,-0.47149911522865,11.10740947723389,0.08432486653328,-0.12560392916203,9.79227733612061,0.19689664244652,-1.07447886466980,-0.80973005294800
477,1956239753,-0.66968101263046,-0.47254225611687,11.10765743255615,0.08637764304876,-0.11779983341694,9.75510501861572,0.27893900871277,-1.20390725135803,-0.83175814151764
478,1956248086,-0.67003905773163,-0.47268217802048,11.10777473449707,0.07281593978405,-0.09688525646925,9.78356552124023,0.16574971377850,-1.09553360939026,-0.83283400535583
479,1956256419,-0.66959857940674,-0.47178241610527,11.10806655883789,0.07393893599510,-0.10966023802757,9.76432418823242,0.26067608594894,-0.96943479776382,-0.81679958105087
480,1956264752,-0.66934096813202,-0.47222509980202,11.10751914978027,0.07031960040331,-0.11533959209919,9.77376651763916,0.24038957059383,-1.13134229183197,-0.91392862796783
481,1956273085,-0.66911238431931,-0.47263243794441,11.10785388946533,0.07396762073040,-0.11877325922251,9.79476737976074,0.23603516817093,-1.12714147567749,-0.79633373022079
482,1956281418,-0.66955041885376,-0.47242000699043,11.10782051086426,0.07193613797426,-0.12712033092976,9.77021884918213,0.15552963316441,-1.05252718925476,-0.85281312465668
483,1956289751,-0.67011797428131,-0.47180098295212,11.10815429687500,0.09189972281456,-0.11792176961899,9.82402229309082,0.14003302156925,-1.00470542907715,-0.80745023488998
484,1956298084,-0.66952782869339,-0.47149255871773,11.10770130157471,0.08144932985306,-0.09570472687483,9.80485343933105,0.27922078967094,-1.04036068916321,-0.90270960330963
485,1956306417,-0.67006742954254,-0.47065931558609,11.10798549652100,0.06632822006941,-0.11526751518250,9.79853534698486,0.14413128793240,-0.97834849357605,-0.82302379608154
486,1956314750,-0.66992336511612,-0.47068306803703,11.10787677764893,0.06727248430252,-0.11187046021223,9.80459499359131,0.22666037082672,-1.08103597164154,-0.86162441968918
487,1956323083,-0.67000180482864,-0.47088563442230,11.10806274414062,0.08095587790012,-0.11325096338987,9.77371597290039,0.19835662841797,-1.10275673866272,-0.81239390373230
488,1956331416,-0.67036449909210,-0.46983453631401,11.10779666900635,0.08597002178431,-0.12352959811687,9.78008174896240,0.16528864204884,-0.95229882001877,-0.87868344783783
489,1956339749,-0.67057627439499,-0.46915426850319,11.10718345642090,0.08617745339870,-0.11996748298407,9.79930877685547,0.18204037845135,-0.99543315172195,-0.93470191955566
490,1956348082,-0.67096596956253,-0.46906900405884,11.10745143890381,0.07406774163246,-0.13572549819946,9.75957489013672,0.16321389377117,-1.06851053237915,-0.81485277414322
491,1956356415,-0.67060154676437,-0.46859747171402,11.10791301727295,0.08598432689905,-0.12066131085157,9.78692722320557,0.25196722149849,-1.02225124835968,-0.78204095363617
492,1956364748,-0.67036110162735,-0.46865555644035,11.10847187042236,0.09280813485384,-0.11944532394409,9.80906581878662,0.23790499567986,-1.08618438243866,-0.78147745132446
493,1956373081,-0.67035454511642,-0.46905311942101,11.10935974121094,0.08222193270922,-0.10293656587601,9.79350090026855,0.20970374345779,-1.12627065181732,-0.74351710081100
494,1956381414,-0.66984957456589,-0.46901795268059,11.10996150970459,0.07820203155279,-0.12652663886547,9.76851558685303,0.27048629522324,-1.07465803623199,-0.77684128284454
495,1956389747,-0.66984432935715,-0.46873348951340,11.10965156555176,0.09056214243174,-0.12518905103207,9.77160644531250,0.20778267085552,-1.04369032382965,-0.87320202589035
496,1956398080,-0.66979902982712,-0.46905022859573,11.10929012298584,0.08182136714458,-0.10661312192678,9.78004646301270,0.21421183645725,-1.11617863178253,-0.89297622442245
497,1956406413,-0.66929179430008,-0.46927931904793,11.10903167724609,0.08202156424522,-0.11950221657753,9.78466033935547,0.26925683021545,-1.10385823249817,-0.89023548364639
498,1956414746,-0.66904753446579,-0.47015553712845,11.10951519012451,0.05536300316453,-0.11820072680712,9.77149200439453,0.23844292759895,-1.18513226509094,-0.79238921403885
499,1956423079,-0.66963237524033,-0.46998479962349,11.10976123809814,0.08413889259100,-0.12890852987766,9.78213500976562,0.13829125463963,-1.05731713771820,-0.80496573448181
500,1956431412,-0.66963875293732,-0.46982827782631,11.10997104644775,0.09026178717613,-0.11982472240925,9.78278636932373,0.20878162980080,-1.06067264080048,-0.82205045223236
501,1956439745,-0.66940706968307,-0.47009485960007,11.11044120788574,0.09607698768377,-0.11231394112110,9.76766490936279,0.23677797615528,-1.11062049865723,-0.80022710561752
502,1956448078,-0.66915953159332,-0.47051572799683,11.11027145385742,0.09006151556969,-0.11448158323765,9.77339458465576,0.23794344067574,-1.12861442565918,-0.86955201625824
503,1956456411,-0.66909444332123,-0.47051498293877,11.11074161529541,0.10867314040661,-0.11280748993158,9.78950214385986,0.21615852415562,-1.07848727703094,-0.80871820449829
504,1956464744,-0.66918653249741,-0.47069704532623,11.11076831817627,0.07080598920584,-0.11249276250601,9.77984619140625,0.19761380553246,-1.10042583942413,-0.84433484077454
505,1956473077,-0.66956472396851,-0.47088211774826,11.11168289184570,0.09167078137398,-0.10780022293329,9.79450321197510,0.16439215838909,-1.10127127170563,-0.75345557928085
506,1956481410,-0.67018640041351,-0.47089213132858,11.11120223999023,0.05809539183974,-0.12240660190582,9.79744243621826,0.13234876096249,-1.07911491394043,-0.90591138601303
507,1956489743,-0.67011892795563,-0.47100281715393,11.11127662658691,0.08549077808857,-0.12302174419165,9.81146144866943,0.21702940762043,-1.09079504013062,-0.83139967918396
508,1956498076,-0.67000645399094,-0.47081562876701,11.11127090454102,0.07142120599747,-0.13084010779858,9.78073978424072,0.22297190129757,-1.05595958232880,-0.84774148464203
509,1956506409,-0.67027974128723,-0.47086316347122,11.11167335510254,0.05933278053999,-0.10206362605095,9.78690624237061,0.17520134150982,-1.08390462398529,-0.80086743831635
510,1956514742,-0.67066425085068,-0.47119459509850,11.11134529113770,0.07388886809349,-0.14395096898079,9.77626228332520,0.16195879876614,-1.11856079101562,-0.88787895441055
511,1956523075,-0.67085415124893,-0.47114777565002,11.11141777038574,0.10077640414238,-0.11543973535299,9.80925178527832,0.18580566346645,-1.07217347621918,-0.83283400535583
512,1956531408,-0.67114984989166,-0.47193223237991,11.11185550689697,0.04632901400328,-0.11246447265148,9.80695533752441,0.17479154467583,-1.17332410812378,-0.79705095291138
513,1956539741,-0.67084783315659,-0.47259137034416,11.11265087127686,0.08972518891096,-0.11260690540075,9.77036952972412,0.24428294599056,-1.15844202041626,-0.78096514940262
514,1956548074,-0.67034673690796,-0.47282230854034,11.11245918273926,0.07392463088036,-0.10865883529186,9.78268623352051,0.26879578828812,-1.10460102558136,-0.87102484703064
515,1956556407,-0.67026448249817,-0.47337684035301,11.11257553100586,0.09374522417784,-0.11058328300714,9.78357982635498,0.21813079714775,-1.14502012729645,-0.83767509460449
516,1956564740,-0.67046779394150,-0.47341686487198,11.11268424987793,0.06514094024897,-0.11079038679600,9.78769969940186,0.18465301394463,-1.08354616165161,-0.83498567342758
517,1956573073,-0.67054486274719,-0.47375094890594,11.11273288726807,0.07327378541231,-0.12943816184998,9.82531642913818,0.19991908967495,-1.11789488792419,-0.83449894189835
518,1956581406,-0.67049449682236,-0.47404235601425,11.11326980590820,0.05933283269405,-0.10772181302309,9.78569698333740,0.21467290818691,-1.11443710327148,-0.78409022092819
519,1956589739,-0.67020958662033,-0.47381523251534,11.11344432830811,0.08629904687405,-0.12123353779316,9.78044700622559,0.24333523213863,-1.05134904384613,-0.81667143106461
520,1956598072,-0.67062175273895,-0.47392341494560,11.11386680603027,0.06792334467173,-0.11446665227413,9.79721355438232,0.15983282029629,-1.09148657321930,-0.79820358753204
521,1956606405,-0.67056554555893,-0.47405579686165,11.11455821990967,0.08196449279785,-0.12729229032993,9.80556106567383,0.21500588953495,-1.09576416015625,-0.78652346134186
522,1956614738,-0.67078250646591,-0.47504851222038,11.11466217041016,0.07451116293669,-0.12071853131056,9.78827953338623,0.18237334489822,-1.19640243053436,-0.83695787191391
523,1956623071,-0.67131352424622,-0.47535496950150,11.11398887634277,0.08075559884310,-0.11054003238678,9.77008247375488,0.14420813322067,-1.11476993560791,-0.91000968217850
524,1956631404,-0.67154669761658,-0.47525653243065,11.11436557769775,0.07158565521240,-0.13232044875622,9.77588367462158,0.18193788826466,-1.06600034236908,-0.80184072256088
525,1956639737,-0.67147356271744,-0.47530433535576,11.11372852325439,0.07669278234243,-0.12636928260326,9.80751323699951,0.21661956608295,-1.08382785320282,-0.88821190595627
526,1956648070,-0.67177557945251,-0.47481036186218,11.11354255676270,0.07788730412722,-0.12774977087975,9.79174804687500,0.17261432111263,-1.01915180683136,-0.86961609125137
527,1956656403,-0.67225140333176,-0.47399964928627,11.11319065093994,0.08440359681845,-0.10617709904909,9.82633209228516,0.15079098939896,-0.98001337051392,-0.88593232631683
528,1956664736,-0.67254000902176,-0.47411903738976,11.11357212066650,0.08566959947348,-0.09842311590910,9.79571819305420,0.17403592169285,-1.09288251399994,-0.80287814140320
529,1956673069,-0.67313051223755,-0.47462761402130,11.11401367187500,0.08180702477694,-0.11452387273312,9.78953170776367,0.13845774531364,-1.13886010646820,-0.78505063056946
530,1956681402,-0.67366451025009,-0.47441613674164,11.11442756652832,0.07600606977940,-0.11217060685158,9.75456905364990,0.14461797475815,-1.05478131771088,-0.79861336946487
531,1956689735,-0.67442977428436,-0.47445568442345,11.11447525024414,0.08669964969158,-0.11855868250132,9.77589797973633,0.11718511581421,-1.08257281780243,-0.84233689308167
532,1956698068,-0.67367196083069,-0.47478207945824,11.11422443389893,0.07965396344662,-0.12866501510143,9.78679180145264,0.29843142628670,-1.11763882637024,-0.87855541706085
533,1956706401,-0.67377245426178,-0.47411170601845,11.11500740051270,0.07259420305490,-0.12304320186377,9.78174877166748,0.19786994159222,-0.99866056442261,-0.77653390169144
534,1956714734,-0.67421329021454,-0.47429633140564,11.11457252502441,0.07431088387966,-0.11729232221842,9.78221416473389,0.15424892306328,-1.09996497631073,-0.90091669559479
535,1956723067,-0.67376643419266,-0.47513005137444,11.11494922637939,0.08727183938026,-0.12854373455048,9.78741359710693,0.26351925730705,-1.17783224582672,-0.81469929218292
536,1956731400,-0.67364114522934,-0.47515028715134,11.11526393890381,0.06975445896387,-0.10403065383434,9.78272247314453,0.22415016591549,-1.08180427551270,-0.81075453758240
537,1956739733,-0.67420250177383,-0.47548094391823,11.11462020874023,0.07953251153231,-0.11464611440897,9.79794311523438,0.13995617628098,-1.11656284332275,-0.91869288682938
538,1956748066,-0.67381656169891,-0.47586578130722,11.11454391479492,0.07673577964306,-0.12305068224669,9.78664112091064,0.25463110208511,-1.12365794181824,-0.85870438814163
539,1956756399,-0.67283630371094,-0.47648584842682,11.11517047882080,0.08635617792606,-0.12332902103662,9.77480411529541,0.32709375023842,-1.15316557884216,-0.77748167514801
540,1956764732,-0.67356657981873,-0.47614604234695,11.11585426330566,0.08518320322037,-0.10727118700743,9.76636314392090,0.12166761606932,-1.04051423072815,-0.76610893011093
541,1956773065,-0.67415779829025,-0.47572615742683,11.11551284790039,0.09648469835520,-0.11104788631201,9.77801513671875,0.13649825751781,-1.02558112144470,-0.87051254510880
542,1956781398,-0.67392849922180,-0.47565412521362,11.11559009552002,0.06927521526814,-0.11682708561420,9.79406642913818,0.23654747009277,-1.07009863853455,-0.84054392576218
543,1956789731,-0.67447650432587,-0.47588163614273,11.11483192443848,0.07898169010878,-0.12237799167633,9.76449584960938,0.14144180715084,-1.10388386249542,-0.92560881376266
544,1956798064,-0.67420548200607,-0.47619923949242,11.11496543884277,0.07201482355595,-0.11734954267740,9.76353740692139,0.24143977463245,-1.11697280406952,-0.83183503150940
545,1956806397,-0.67384827136993,-0.47597694396973,11.11484622955322,0.10021124780178,-0.10623372346163,9.83018112182617,0.25235146284103,-1.05163073539734,-0.84963697195053
546,1956814730,-0.67404258251190,-0.47548800706863,11.11487865447998,0.07824494689703,-0.10672757029533,9.78237152099609,0.18488354980946,-1.01989483833313,-0.84384822845459
547,1956823063,-0.67302995920181,-0.47564327716827,11.11557579040527,0.08126354217529,-0.12354419380426,9.79481697082520,0.33083349466324,-1.09776210784912,-0.76989990472794
548,1956831396,-0.67297494411469,-0.47580924630165,11.11583232879639,0.07843092083931,-0.12274993956089,9.77935981750488,0.21609449386597,-1.09808230400085,-0.81778568029404
549,1956839729,-0.67263936996460,-0.47611477971077,11.11675357818604,0.08200018852949,-0.11929511278868,9.78448867797852,0.24863740801811,-1.11692154407501,-0.72151458263397
550,1956848062,-0.67292124032974,-0.47609189152718,11.11704826354980,0.08674973994493,-0.11947423219681,9.77445316314697,0.17535504698753,-1.07483732700348,-0.81159973144531
551,1956856395,-0.67316192388535,-0.47582978010178,11.11736106872559,0.08285138010979,-0.10853008925915,9.81832122802734,0.18006807565689,-1.04684090614319,-0.81413567066193
552,1956864728,-0.67345172166824,-0.47539660334587,11.11726760864258,0.08536912500858,-0.11927336454391,9.77374553680420,0.17292167246342,-1.02624714374542,-0.85903739929199
553,1956873061,-0.67333197593689,-0.47512465715408,11.11719608306885,0.08242221176624,-0.11997463554144,9.78778553009033,0.22376598417759,-1.04517614841461,-0.84556442499161
554,1956881394,-0.67308551073074,-0.47598186135292,11.11706638336182,0.07893162220716,-0.11303637921810,9.77782154083252,0.23787941038609,-1.18177688121796,-0.86487740278244
555,1956889727,-0.67256182432175,-0.47649827599525,11.11728858947754,0.09143479168415,-0.10762167721987,9.75483989715576,0.27145966887474,-1.14122939109802,-0.80860298871994
556,1956898060,-0.67277795076370,-0.47654977440834,11.11800765991211,0.08953928947449,-0.10198523849249,9.80392932891846,0.18265509605408,-1.08423769474030,-0.76160085201263
557,1956906393,-0.67259132862091,-0.47685247659683,11.11850547790527,0.08211463689804,-0.12140520662069,9.77375888824463,0.23239792883396,-1.11418068408966,-0.79991972446442
558,1956914726,-0.67227262258530,-0.47625398635864,11.11834144592285,0.07632083445787,-0.12460967898369,9.79839324951172,0.24625524878502,-1.00775361061096,-0.86807924509048
559,1956923059,-0.67197751998901,-0.47652080655098,11.11864948272705,0.07373157888651,-0.11757875233889,9.75798702239990,0.24382187426090,-1.10980069637299,-0.84986758232117
560,1956931392,-0.67133420705795,-0.47654896974564,11.11887073516846,0.07370298355818,-0.13465256989002,9.80588245391846,0.28605979681015,-1.08211183547974,-0.82248586416245
561,1956939725,-0.67092287540436,-0.47643744945526,11.11882781982422,0.10218551754951,-0.11818642169237,9.81036758422852,0.25785848498344,-1.06430983543396,-0.84835624694824
562,1956948058,-0.67159879207611,-0.47613313794136,11.11873435974121,0.08167831599712,-0.10901647806168,9.76258659362793,0.12743081152439,-1.04238414764404,-0.85993379354477
563,1956956391,-0.67159920930862,-0.47558575868607,11.11851882934570,0.09752901643515,-0.13367947936058,9.79445934295654,0.20857672393322,-1.01105797290802,-0.87217754125595
564,1956964724,-0.67138242721558,-0.47558414936066,11.11868667602539,0.07561263442039,-0.13099686801434,9.80209255218506,0.23518991470337,-1.07931983470917,-0.82899188995361
565,1956973057,-0.67139750719070,-0.47552007436752,11.11914920806885,0.09145624935627,-0.10375198721886,9.78001022338867,0.20619456470013,-1.07076466083527,-0.78834211826324
566,1956981390,-0.67213732004166,-0.47561985254288,11.11838817596436,0.08051954954863,-0.13177682459354,9.78134059906006,0.11933673173189,-1.08977043628693,-0.94092625379562
567,1956989723,-0.67242997884750,-0.47613853216171,11.11822032928467,0.07003343105316,-0.11323632299900,9.76689338684082,0.17345958948135,-1.13902664184570,-0.88055330514908
568,1956998056,-0.67294096946716,-0.47545325756073,11.11791896820068,0.09469653666019,-0.11061901599169,9.79829311370850,0.14656464755535,-0.99533069133759,-0.88424181938171
569,1957006389,-0.67352306842804,-0.47539696097374,11.11779880523682,0.08308022469282,-0.12194851785898,9.76078414916992,0.13854739069939,-1.07053411006927,-0.86421144008636
570,1957014722,-0.67350524663925,-0.47573184967041,11.11754035949707,0.08436784893274,-0.09117047488689,9.80615425109863,0.21044655144215,-1.11881685256958,-0.87845295667648
571,1957023055,-0.67394047975540,-0.47564807534218,11.11771106719971,0.06986896693707,-0.11080469191074,9.78285789489746,0.15657980740070,-1.06853616237640,-0.80015033483505
572,1957031388,-0.67422872781754,-0.47667858004570,11.11758995056152,0.07348109781742,-0.12529599666595,9.79631996154785,0.17415118217468,-1.20116662979126,-0.86428833007812
573,1957039721,-0.67471373081207,-0.47700709104538,11.11781978607178,0.06974026560783,-0.11802221089602,9.78888702392578,0.15004816651344,-1.11794602870941,-0.81006288528442
574,1957048054,-0.67460411787033,-0.47650948166847,11.11757755279541,0.09804394841194,-0.10501774400473,9.81114768981934,0.22243404388428,-1.01794803142548,-0.87594276666641
575,1957056387,-0.67372047901154,-0.47706368565559,11.11698722839355,0.08463969081640,-0.12591899931431,9.78029632568359,0.31341579556465,-1.14504587650299,-0.90821677446365
576,1957064720,-0.67414683103561,-0.47744777798653,11.11702251434326,0.06893189996481,-0.11920180916786,9.79629802703857,0.15775808691978,-1.12442648410797,-0.84471899271011
577,1957073053,-0.67411887645721,-0.47732952237129,11.11724090576172,0.07938934117556,-0.12661217153072,9.78707122802734,0.21165043115616,-1.06356704235077,-0.85125076770782
578,1957081386,-0.67428439855576,-0.47704145312309,11.11769580841064,0.09076242148876,-0.11572584509850,9.80155467987061,0.18880252540112,-1.04358804225922,-0.79356741905212
579,1957089719,-0.67346692085266,-0.47763055562973,11.11779403686523,0.08207181096077,-0.10718567669392,9.75988292694092,0.30680730938911,-1.14963090419769,-0.82976025342941
580,1957098052,-0.67342120409012,-0.47773978114128,11.11758518218994,0.08199303597212,-0.11978866159916,9.77775001525879,0.21403254568577,-1.09082055091858,-0.87358629703522
581,1957106385,-0.67298340797424,-0.47728520631790,11.11702156066895,0.09468933194876,-0.11758558452129,9.74866008758545,0.26116272807121,-1.02301967144012,-0.89909803867340
582,1957114718,-0.67332643270493,-0.47673621773720,11.11706733703613,0.08757230639458,-0.09945341944695,9.79081153869629,0.16659496724606,-1.01215934753418,-0.84172219038010
583,1957123051,-0.67317777872086,-0.47649928927422,11.11649799346924,0.08064830303192,-0.12034658342600,9.77701377868652,0.22637858986855,-1.04889011383057,-0.88821202516556
584,1957131384,-0.67306309938431,-0.47714081406593,11.11568260192871,0.07729361951351,-0.12914457917213,9.79368686676025,0.22181926667690,-1.15406203269958,-0.94656121730804
585,1957139717,-0.67288315296173,-0.47713246941566,11.11547088623047,0.09090540558100,-0.11756382137537,9.79908752441406,0.22940111160278,-1.07752692699432,-0.85230082273483
586,1957148050,-0.67297232151031,-0.47700697183609,11.11501979827881,0.07551971822977,-0.11608348786831,9.78012466430664,0.19851031899452,-1.06246554851532,-0.90253019332886
587,1957156383,-0.67221581935883,-0.47715413570404,11.11519908905029,0.07426796853542,-0.09036186337471,9.81528854370117,0.29902055859566,-1.09558486938477,-0.83178383111954
588,1957164716,-0.67219656705856,-0.47760525345802,11.11500263214111,0.09556913375854,-0.10452449321747,9.78773593902588,0.21093320846558,-1.13234114646912,-0.87166517972946
589,1957173049,-0.67260915040970,-0.47806292772293,11.11514568328857,0.07741522043943,-0.11458139121532,9.78355121612549,0.15850088000298,-1.13318657875061,-0.83657371997833
590,1957181382,-0.67273038625717,-0.47754907608032,11.11532497406006,0.07703611999750,-0.12115485221148,9.80031013488770,0.19487310945988,-1.01702594757080,-0.82530343532562
591,1957189715,-0.67292511463165,-0.47685590386391,11.11519336700439,0.09564787149429,-0.09285850822926,9.80772113800049,0.18537022173405,-0.99474161863327,-0.86538970470428
592,1957198048,-0.67246139049530,-0.47645464539528,11.11509895324707,0.06770881265402,-0.09699970483780,9.80362892150879,0.26417237520218,-1.02961540222168,-0.85974174737930
593,1957206381,-0.67265033721924,-0.47659549117088,11.11466884613037,0.09349481016397,-0.12870825827122,9.78508186340332,0.18516530096531,-1.09484195709229,-0.87427771091461
594,1957214714,-0.67295205593109,-0.47677266597748,11.11446380615234,0.07875989377499,-0.11230646818876,9.81425952911377,0.17235818505287,-1.09940147399902,-0.87414973974228
595,1957223047,-0.67312830686569,-0.47702741622925,11.11472606658936,0.07830217480659,-0.11711350083351,9.78018951416016,0.18721443414688,-1.10767471790314,-0.86275148391724
596,1957231380,-0.67308378219604,-0.47709470987320,11.11415004730225,0.10309399664402,-0.11965309828520,9.79375839233398,0.21352027356625,-1.08731150627136,-0.91820627450943
597,1957239713,-0.67299479246140,-0.47747611999512,11.11450576782227,0.08101309835911,-0.10249308496714,9.81098937988281,0.21930904686451,-1.12296640872955,-0.80988359451294
598,1957248046,-0.67310422658920,-0.47737541794777,11.11451625823975,0.07509054243565,-0.11862990260124,9.79921627044678,0.19561588764191,-1.06669199466705,-0.84784394502640
599,1957256379,-0.67286658287048,-0.47760930657387,11.11492252349854,0.08176407217979,-0.11545374244452,9.78360176086426,0.23762324452400,-1.10629165172577,-0.80952501296997
600,1957264712,-0.67305850982666,-0.47780039906502,11.11498546600342,0.07862410694361,-0.11841563135386,9.79666996002197,0.18519091606140,-1.10203969478607,-0.84080004692078
601,1957273045,-0.67321139574051,-0.47879925370216,11.11547660827637,0.08805859088898,-0.11623338609934,9.79895877838135,0.18985269963741,-1.19763195514679,-0.77909535169601
602,1957281378,-0.67338109016418,-0.48018854856491,11.11570739746094,0.07934643328190,-0.11194165050983,9.80055427551270,0.18954534828663,-1.24542820453644,-0.82228100299835
603,1957289711,-0.67388397455215,-0.47991034388542,11.11517429351807,0.09081964939833,-0.11179893463850,9.79681968688965,0.14828081429005,-1.04597032070160,-0.86339187622070
604,1957298044,-0.67358338832855,-0.47979497909546,11.11569976806641,0.08770108222961,-0.11712808907032,9.78503227233887,0.24565330147743,-1.06427145004272,-0.78530681133270
605,1957306377,-0.67401516437531,-0.47909754514694,11.11545562744141,0.07957533001900,-0.11109051108360,9.79579734802246,0.15556804835796,-0.99378103017807,-0.88896757364273
606,1957314710,-0.67366820573807,-0.47954481840134,11.11567115783691,0.07269434630871,-0.10037584602833,9.78470993041992,0.25019985437393,-1.13267433643341,-0.82258838415146
607,1957323043,-0.67391633987427,-0.48026406764984,11.11598205566406,0.07391026616096,-0.11737068742514,9.80216407775879,0.17912033200264,-1.16484570503235,-0.79966348409653
608,1957331376,-0.67333269119263,-0.47991806268692,11.11618041992188,0.08019767701626,-0.09931007027626,9.79193401336670,0.27883654832840,-1.03756856918335,-0.82353597879410
609,1957339709,-0.67320531606674,-0.48083561658859,11.11590003967285,0.08870240300894,-0.12753519415855,9.78590488433838,0.22353541851044,-1.18764233589172,-0.86935991048813
610,1957348042,-0.67276376485825,-0.48048779368401,11.11589717864990,0.08758655935526,-0.10896641016006,9.77439594268799,0.26295572519302,-1.03569877147675,-0.84927833080292
611,1957356375,-0.67238855361938,-0.48092392086983,11.11604976654053,0.08785113692284,-0.09924538433552,9.80320072174072,0.25318387150764,-1.13171374797821,-0.82675057649612
612,1957364708,-0.67249166965485,-0.48143032193184,11.11575603485107,0.08594141155481,-0.11456708610058,9.79463100433350,0.19569276273251,-1.13823258876801,-0.88465172052383
613,1957373041,-0.67269575595856,-0.48104894161224,11.11569309234619,0.07096335291862,-0.12609747052193,9.80589008331299,0.18401266634464,-1.03244578838348,-0.84407866001129
614,1957381374,-0.67277282476425,-0.48128244280815,11.11598968505859,0.07061292231083,-0.10627008974552,9.80761337280273,0.19971418380737,-1.10657334327698,-0.81203526258469
615,1957389707,-0.67301839590073,-0.48090359568596,11.11608409881592,0.06863152980804,-0.10944564640522,9.77704238891602,0.17896665632725,-1.03208732604980,-0.82945299148560
616,1957398040,-0.67293429374695,-0.48116910457611,11.11633872985840,0.08797281235456,-0.13695548474789,9.78457450866699,0.21889922022820,-1.11172175407410,-0.81918156147003
617,1957406373,-0.67347133159637,-0.48096778988838,11.11640834808350,0.10346587002277,-0.10994634777308,9.77300071716309,0.14495095610619,-1.05393600463867,-0.81866931915283
618,1957414706,-0.67331755161285,-0.48129573464394,11.11634159088135,0.07772278785706,-0.11496049165726,9.80671215057373,0.22717262804508,-1.11807417869568,-0.85767984390259
619,1957423039,-0.67377620935440,-0.48111623525620,11.11620140075684,0.08214324712753,-0.11785739660263,9.79972362518311,0.15284013748169,-1.05636942386627,-0.87143462896347
620,1957431372,-0.67395520210266,-0.48059424757957,11.11577510833740,0.08201449364424,-0.12147673219442,9.80274963378906,0.18726566433907,-1.01469516754150,-0.89725381135941
621,1957439705,-0.67380064725876,-0.48054710030556,11.11513710021973,0.08144226670265,-0.12186298519373,9.81184101104736,0.22543087601662,-1.07084155082703,-0.90826791524887
622,1957448038,-0.67369931936264,-0.48106959462166,11.11541938781738,0.09371647983789,-0.11146958917379,9.81052494049072,0.22156311571598,-1.14256119728088,-0.81577485799789
623,1957456371,-0.67440682649612,-0.48058775067329,11.11521816253662,0.08072698861361,-0.11263582110405,9.77651309967041,0.12323008477688,-1.01958751678467,-0.87609654664993
624,1957464704,-0.67469412088394,-0.48091009259224,11.11555385589600,0.07117073982954,-0.13405112922192,9.79167747497559,0.17507329583168,-1.11679351329803,-0.80780893564224
625,1957473037,-0.67454594373703,-0.48089477419853,11.11546134948730,0.08438201248646,-0.10791463404894,9.80645561218262,0.22632735967636,-1.07542634010315,-0.85596364736557
626,1957481370,-0.67413973808289,-0.48099437355995,11.11575508117676,0.08433917164803,-0.10814383625984,9.79166221618652,0.25752553343773,-1.09215247631073,-0.81272691488266
627,1957489703,-0.67378526926041,-0.48050001263618,11.11554336547852,0.09586955606937,-0.12269271165133,9.78910160064697,0.25104507803917,-1.01812732219696,-0.87235677242279
628,1957498036,-0.67421925067902,-0.48041394352913,11.11512184143066,0.06044867634773,-0.10895925760269,9.77963829040527,0.15563209354877,-1.06807506084442,-0.89881628751755
629,1957506369,-0.67519283294678,-0.47959464788437,11.11500644683838,0.08139216154814,-0.12088991701603,9.78343772888184,0.09200634062290,-0.97806674242020,-0.86364793777466
630,1957514702,-0.67638748884201,-0.47933077812195,11.11457443237305,0.07077022641897,-0.11481743305922,9.78450298309326,0.06479120254517,-1.04687929153442,-0.89941823482513
631,1957523035,-0.67665666341782,-0.48011720180511,11.11481094360352,0.09526161849499,-0.10257925093174,9.79673385620117,0.17543189227581,-1.17229938507080,-0.81559562683105
632,1957531368,-0.67655652761459,-0.48057973384857,11.11477565765381,0.07898169010878,-0.11508924514055,9.79734897613525,0.22133259475231,-1.13472330570221,-0.85253137350082
633,1957539701,-0.67607027292252,-0.48118591308594,11.11458301544189,0.09524019062519,-0.12359430640936,9.78519630432129,0.26659297943115,-1.15073239803314,-0.86034381389618
634,1957548034,-0.67610645294189,-0.48043173551559,11.11457633972168,0.06545566767454,-0.13727021217346,9.80119037628174,0.20411984622478,-0.98710852861404,-0.84799760580063
635,1957556367,-0.67653876543045,-0.48079013824463,11.11419773101807,0.08813728392124,-0.10789314657450,9.79433155059814,0.15742510557175,-1.12109684944153,-0.89494866132736
636,1957564700,-0.67622190713882,-0.48067861795425,11.11388111114502,0.06398933380842,-0.11379458010197,9.79260635375977,0.24553807079792,-1.06413054466248,-0.88493335247040
637,1957573033,-0.67620491981506,-0.48044186830521,11.11356163024902,0.08350944519043,-0.13255648314953,9.79999542236328,0.21016478538513,-1.04960727691650,-0.88593232631683
638,1957581366,-0.67614114284515,-0.47959214448929,11.11338520050049,0.06618518382311,-0.12060379981995,9.78707790374756,0.21633784472942,-0.97573596239090,-0.86782312393188
639,1957589699,-0.67602515220642,-0.47892776131630,11.11417579650879,0.07863133400679,-0.12225691974163,9.79047679901123,0.22217786312103,-0.99814826250076,-0.77894175052643
640,1957598032,-0.67669624090195,-0.47927927970886,11.11471080780029,0.08216466754675,-0.10435253381729,9.79182052612305,0.12978734076023,-1.12199318408966,-0.78516596555710
641,1957606365,-0.67714208364487,-0.47920751571655,11.11404800415039,0.06825958192348,-0.12379425019026,9.83785533905029,0.15360856056213,-1.06863856315613,-0.87374007701874
642,1957614698,-0.67693388462067,-0.47953936457634,11.11385154724121,0.08424618095160,-0.11083330214024,9.77153491973877,0.23439587652683,-1.11909878253937,-0.87268984317780
643,1957623031,-0.67727237939835,-0.47977414727211,11.11433410644531,0.08264394849539,-0.11870142817497,9.79897975921631,0.16828550398350,-1.10618913173676,-0.77438235282898
644,1957631364,-0.67758029699326,-0.47964525222778,11.11491298675537,0.06250158697367,-0.12380883842707,9.80044651031494,0.17210203409195,-1.06369531154633,-0.77912104129791
645,1957639697,-0.67748969793320,-0.47985041141510,11.11575603485107,0.07597034424543,-0.10337288677692,9.79491710662842,0.22005188465118,-1.10373020172119,-0.74925476312637
646,1957648030,-0.67709779739380,-0.47989401221275,11.11551094055176,0.05861762911081,-0.11163474619389,9.78940200805664,0.25557884573936,-1.08436584472656,-0.87794077396393
647,1957656363,-0.67756426334381,-0.47987598180771,11.11495208740234,0.08491855114698,-0.10088369995356,9.78488922119141,0.15212294459343,-1.07427382469177,-0.94440972805023
648,1957664696,-0.67799139022827,-0.47967934608459,11.11501598358154,0.08985396474600,-0.10463865101337,9.77943897247314,0.15752753615379,-1.05411541461945,-0.83928877115250
649,1957673029,-0.67787152528763,-0.47969010472298,11.11501693725586,0.09015443176031,-0.11172025650740,9.78710651397705,0.22274141013622,-1.07952475547791,-0.85166043043137
650,1957681362,-0.67815548181534,-0.47861698269844,11.11528491973877,0.08805149793625,-0.12726338207722,9.79584693908691,0.17540629208088,-0.95083886384964,-0.81487858295441
651,1957689695,-0.67761284112930,-0.47871458530426,11.11545658111572,0.07449685782194,-0.11687745153904,9.76124191284180,0.27356001734734,-1.08992397785187,-0.82773679494858
652,1957698028,-0.67843765020370,-0.47861039638519,11.11516761779785,0.08252950012684,-0.11896608769894,9.78126239776611,0.10927031934261,-1.06541132926941,-0.88301241397858
653,1957706361,-0.67831748723984,-0.47818869352341,11.11510372161865,0.08059830963612,-0.12592609226704,9.77262210845947,0.22294628620148,-1.02768146991730,-0.84448850154877
654,1957714694,-0.67833328247070,-0.47794386744499,11.11575603485107,0.06347427517176,-0.11205616593361,9.78868770599365,0.20729599893093,-1.04901814460754,-0.76854234933853
655,1957723027,-0.67824900150299,-0.47788119316101,11.11577320098877,0.05393250286579,-0.11284355819225,9.79246330261230,0.21897608041763,-1.07163560390472,-0.83516490459442
656,1957731360,-0.67776972055435,-0.47776705026627,11.11595630645752,0.07947523891926,-0.11034690588713,9.81440830230713,0.26613190770149,-1.06366956233978,-0.82604634761810
657,1957739693,-0.67740046977997,-0.47820109128952,11.11580181121826,0.09141333401203,-0.11088337004185,9.80555343627930,0.25176230072975,-1.13067638874054,-0.85189092159271
658,1957748026,-0.67709249258041,-0.47820544242859,11.11567401885986,0.06702213734388,-0.11310790479183,9.78201389312744,0.24584543704987,-1.07942235469818,-0.86344313621521
659,1957756359,-0.67565476894379,-0.47509020566940,11.11392974853516,0.09310855716467,-0.11664140969515,9.78779983520508,0.21725992858410,-1.15524053573608,-0.86339181661606
660,1957764692,-0.67520564794540,-0.47517561912537,11.11422348022461,0.07372435182333,-0.10832265019417,9.79778575897217,0.26293012499809,-1.08923244476318,-0.81282931566238
661,1957773025,-0.67517441511154,-0.47568997740746,11.11370754241943,0.07759410887957,-0.12766429781914,9.78287220001221,0.21170164644718,-1.13894975185394,-0.91328829526901
662,1957781358,-0.67545258998871,-0.47503870725632,11.11366176605225,0.07909607887268,-0.11589007824659,9.79286479949951,0.17596977949142,-1.00124752521515,-0.85306924581528
663,1957789691,-0.67467910051346,-0.47504356503487,11.11457824707031,0.07589158415794,-0.12149076908827,9.79180622100830,0.30173566937447,-1.07955038547516,-0.74490034580231
664,1957798024,-0.67412710189819,-0.47506105899811,11.11513328552246,0.08403867483139,-0.11732780188322,9.78022575378418,0.27594217658043,-1.08180427551270,-0.78245085477829
665,1957806357,-0.67478561401367,-0.47398728132248,11.11539459228516,0.09891666471958,-0.11598335206509,9.79273509979248,0.12840414047241,-0.94904583692551,-0.81457102298737
666,1957814690,-0.67547345161438,-0.47418001294136,11.11577033996582,0.08244366943836,-0.11965990811586,9.76539707183838,0.12694415450096,-1.10278236865997,-0.80355691909790
667,1957823023,-0.67601710557938,-0.47377607226372,11.11568260192871,0.07516202330589,-0.10928084701300,9.79550457000732,0.14367024600506,-1.03014039993286,-0.85606616735458
668,1957831356,-0.67562437057495,-0.47361499071121,11.11552715301514,0.08411750942469,-0.11764311790466,9.76887321472168,0.25541234016418,-1.05812394618988,-0.86747723817825
669,1957839689,-0.67598426342010,-0.47331237792969,11.11530780792236,0.08453223854303,-0.11623340100050,9.78711414337158,0.16517338156700,-1.04316532611847,-0.86860430240631
670,1957848022,-0.67581325769424,-0.47438940405846,11.11479663848877,0.07974704355001,-0.12548232078552,9.77843666076660,0.22812040150166,-1.20613598823547,-0.90947180986404
671,1957856355,-0.67585355043411,-0.47507882118225,11.11492919921875,0.08144226670265,-0.11352992057800,9.77115535736084,0.20424790680408,-1.16184878349304,-0.81323909759521
672,1957864688,-0.67600917816162,-0.47485476732254,11.11469650268555,0.07404623180628,-0.09992521256208,9.80071830749512,0.18916112184525,-1.05040121078491,-0.87571221590042
673,1957873021,-0.67588406801224,-0.47536659240723,11.11464786529541,0.07322359085083,-0.10225673019886,9.78086948394775,0.22271576523781,-1.14102447032928,-0.83109217882156
674,1957881354,-0.67596524953842,-0.47507214546204,11.11524295806885,0.07817336171865,-0.10327962785959,9.79619789123535,0.20045700669289,-1.04471504688263,-0.77512514591217
675,1957889687,-0.67671597003937,-0.47543922066689,11.11526012420654,0.08266540616751,-0.11274310946465,9.82485198974609,0.11721074581146,-1.12114787101746,-0.86382734775543
676,1957898020,-0.67711508274078,-0.47521638870239,11.11536502838135,0.08068402111530,-0.11883704364300,9.76692867279053,0.16152335703373,-1.05173325538635,-0.83493441343307
677,1957906353,-0.67722380161285,-0.47597843408585,11.11592769622803,0.07350970804691,-0.09991773962975,9.79032611846924,0.19571836292744,-1.16968679428101,-0.81482726335526
678,1957914686,-0.67729955911636,-0.47674998641014,11.11532115936279,0.09703553467989,-0.12043278664351,9.81042480468750,0.19875365495682,-1.17113399505615,-0.92126715183258
679,1957923019,-0.67741966247559,-0.47678744792938,11.11457347869873,0.09219299256802,-0.11173456162214,9.76950359344482,0.19359236955643,-1.08234214782715,-0.89738184213638
680,1957931352,-0.67733365297318,-0.47619408369064,11.11446666717529,0.08917449414730,-0.12033943086863,9.77560424804688,0.21874555945396,-1.00706195831299,-0.86006194353104
681,1957939685,-0.67771792411804,-0.47540935873985,11.11345672607422,0.09189972281456,-0.11635529994965,9.81368637084961,0.16111356019974,-0.98308718204498,-0.89123457670212
682,1957948018,-0.67864251136780,-0.47542259097099,11.11349201202393,0.06479763984680,-0.10981075465679,9.76313686370850,0.09876849502325,-1.08103597164154,-0.84387385845184
683,1957956351,-0.67842346429825,-0.47526952624321,11.11337661743164,0.08199303597212,-0.11442402750254,9.78488922119141,0.23375551402569,-1.05928957462311,-0.87837618589401
684,1957964684,-0.67926490306854,-0.47567790746689,11.11364650726318,0.07180023938417,-0.11104073375463,9.75206470489502,0.10827136784792,-1.12803804874420,-0.81623595952988
685,1957973017,-0.67925143241882,-0.47533068060875,11.11338520050049,0.09142048656940,-0.11579021811485,9.79011058807373,0.20949882268906,-1.03639042377472,-0.86805361509323
686,1957981350,-0.67937475442886,-0.47542342543602,11.11428546905518,0.07881002128124,-0.12999576330185,9.78644084930420,0.19487309455872,-1.09056448936462,-0.73972624540329
687,1957989683,-0.67915445566177,-0.47616183757782,11.11401081085205,0.08163539320230,-0.10531130433083,9.77189254760742,0.23465201258659,-1.16661322116852,-0.87886279821396
