sep=,
DeviceTag:,Xsens DOT
FirmwareVersion:,3.0.0
AppVersion:,2023.6.0
StartTime: ,2025-03-06_12:39:29_000 PST
© Movella Technologies B. V. 2005-2025

PacketCounter,SampleTimeFine,Euler_X,Euler_Y,Euler_Z,Acc_X,Acc_Y,Acc_Z,Gyr_X,Gyr_Y,Gyr_Z
0,1793171276,-1.62697422504425,0.00992797315121,20.85816574096680,0.00000000000000,0.00000000000000,0.00000000000000,0.00000000000000,0.00000000000000,0.00000000000000
1,1793179609,-1.62689542770386,0.00954764429480,20.85816574096680,-0.00384131586179,-0.35471799969673,9.79756736755371,-5.39942979812622,0.04552930593491,-0.38459774851799
2,1793187942,-1.62699902057648,0.00907316058874,20.85854721069336,-0.01295431423932,-0.37768590450287,9.78220844268799,-5.39723968505859,0.03468167781830,-0.33968317508698
3,1793196275,-1.62721633911133,0.00955964997411,20.85852050781250,0.00018066173652,-0.35530892014503,9.78557968139648,-5.43550777435303,0.14902363717556,-0.38435444235802
4,1793204608,-1.62707519531250,0.00899541284889,20.85812187194824,0.01543487142771,-0.36207011342049,9.80897331237793,-5.36732244491577,0.02771460264921,-0.43555730581284
5,1793212941,-1.62697637081146,0.00903172511607,20.85881996154785,0.00520102027804,-0.35930919647217,9.81229972839355,-5.39729118347168,0.09277476370335,-0.29916146397591
6,1793221274,-1.62640738487244,0.00924282055348,20.85917282104492,0.00940349325538,-0.35490909218788,9.80315876007080,-5.31842470169067,0.11608371883631,-0.31719389557838
7,1793229607,-1.62638020515442,0.00911792926490,20.85868835449219,0.01272572204471,-0.35454443097115,9.80287551879883,-5.40569257736206,0.07753430306911,-0.44078260660172
8,1793237940,-1.62637722492218,0.00922459736466,20.85872268676758,-0.01007739920169,-0.36003774404526,9.78806591033936,-5.38476562500000,0.10627345740795,-0.38642916083336
9,1793246273,-1.62645232677460,0.01012140791863,20.85926055908203,-0.01281576417387,-0.35469439625740,9.82005596160889,-5.41760301589966,0.19681978225708,-0.31493982672691
10,1793254606,-1.62588250637054,0.01073756534606,20.85913467407227,-0.00012952879479,-0.35316297411919,9.78878879547119,-5.31700277328491,0.16814464330673,-0.40952041745186
11,1793262939,-1.62541508674622,0.01064818538725,20.85924720764160,0.00624141888693,-0.35851231217384,9.81420898437500,-5.35251712799072,0.07919921725988,-0.36962622404099
12,1793271272,-1.62552547454834,0.01068900711834,20.85849952697754,0.01736711710691,-0.34235158562660,9.77956867218018,-5.39898157119751,0.10125307738781,-0.49682652950287
13,1793279605,-1.62473654747009,0.01070237345994,20.85973548889160,-0.01125788968056,-0.36849945783615,9.81260871887207,-5.31363487243652,0.08831787854433,-0.23405006527901
14,1793287938,-1.62506759166718,0.01076125632972,20.86075019836426,0.00251670926809,-0.36887636780739,9.81877040863037,-5.42720842361450,0.09669374674559,-0.29534497857094
15,1793296271,-1.62508583068848,0.01019581966102,20.86100578308105,0.00786158349365,-0.36139979958534,9.79418945312500,-5.41061019897461,0.02259175479412,-0.35407841205597
16,1793304604,-1.62508285045624,0.01056483574212,20.86061477661133,-0.00046411406947,-0.35815930366516,9.77409076690674,-5.38450956344604,0.13985373079777,-0.43591588735580
17,1793312937,-1.62527263164520,0.01109993923455,20.86070632934570,-0.01337144430727,-0.35621345043182,9.80353260040283,-5.43224096298218,0.15479962527752,-0.36940848827362
18,1793321270,-1.62554240226746,0.01069903839380,20.86131477355957,-0.02471984736621,-0.37430775165558,9.79047775268555,-5.41669368743896,0.04355700314045,-0.33129450678825
19,1793329603,-1.62542784214020,0.01011612452567,20.86066436767578,-0.00278660818003,-0.36421120166779,9.77537536621094,-5.39426755905151,0.02312965318561,-0.46188867092133
20,1793337936,-1.62650954723358,0.00996500719339,20.86108207702637,-0.01234292611480,-0.35994371771812,9.81243801116943,-5.51598787307739,0.07287251204252,-0.32887402176857
21,1793346269,-1.62713634967804,0.01029368303716,20.86108207702637,0.00127436104231,-0.35251179337502,9.77121162414551,-5.48344516754150,0.13072225451469,-0.38085812330246
22,1793354602,-1.62697398662567,0.00994771812111,20.86085319519043,0.01433766353875,-0.36312493681908,9.80717658996582,-5.36647701263428,0.05112601444125,-0.40174648165703
23,1793362935,-1.62662839889526,0.00993077550083,20.86082649230957,-0.01940791681409,-0.35418519377708,9.78690814971924,-5.36680984497070,0.08931683003902,-0.38389328122139
24,1793371268,-1.62696397304535,0.00993968732655,20.86113166809082,-0.00308008701541,-0.35517576336861,9.77635860443115,-5.42629957199097,0.09201914817095,-0.32222712039948
25,1793379601,-1.62700772285461,0.00964433420449,20.86144447326660,0.00777494395152,-0.37319141626358,9.80718135833740,-5.41303062438965,0.05516025796533,-0.34581780433655
26,1793387934,-1.62677931785583,0.00983336474746,20.86140251159668,-0.00871831644326,-0.35760071873665,9.80358028411865,-5.35803651809692,0.11553300172091,-0.38997673988342
27,1793396267,-1.62651324272156,0.00994176696986,20.86256980895996,-0.00135056115687,-0.36953312158585,9.78736019134521,-5.37524986267090,0.10006202012300,-0.24092750251293
28,1793404600,-1.62575316429138,0.01043612975627,20.86230087280273,-0.00147082947660,-0.35007339715958,9.79200839996338,-5.29614067077637,0.15240471065044,-0.42541405558586
29,1793412933,-1.62544167041779,0.01014747377485,20.86275863647461,0.01198007632047,-0.36683410406113,9.78882789611816,-5.37124109268188,0.05486568808556,-0.32718342542648
30,1793421266,-1.62563514709473,0.01011342927814,20.86230087280273,-0.01192446146160,-0.36705577373505,9.78754234313965,-5.40804910659790,0.09062316268682,-0.43407166004181
31,1793429599,-1.62524271011353,0.00871028006077,20.86251640319824,-0.01131612062454,-0.36832186579704,9.83733844757080,-5.36269855499268,-0.07832833379507,-0.36182668805122
32,1793437932,-1.62514400482178,0.00807704590261,20.86288452148438,0.01429604087025,-0.34988802671432,9.80660915374756,-5.37290620803833,0.01506117079407,-0.32444268465042
33,1793446265,-1.62544155120850,0.00750240357593,20.86371040344238,-0.00156473321840,-0.35957679152489,9.78638553619385,-5.44516420364380,0.01849347725511,-0.28489434719086
34,1793454598,-1.62586534023285,0.00791336130351,20.86390495300293,0.01204332523048,-0.33877372741699,9.80519104003906,-5.43630075454712,0.14218461513519,-0.35648611187935
35,1793462931,-1.62551128864288,0.00824553240091,20.86375617980957,-0.00377898639999,-0.36479479074478,9.78091049194336,-5.36639976501465,0.13183645904064,-0.39992782473564
36,1793471264,-1.62640511989594,0.00873711984605,20.86432075500488,-0.01077762711793,-0.35801681876183,9.76694679260254,-5.49294710159302,0.14965116977692,-0.31487578153610
37,1793479597,-1.62678611278534,0.00858277268708,20.86425399780273,-0.00877264980227,-0.37136137485504,9.81741905212402,-5.45392370223999,0.07269319891930,-0.38988706469536
38,1793487930,-1.62707877159119,0.00872698053718,20.86512756347656,-0.00628809677437,-0.38311982154846,9.77462482452393,-5.42211055755615,0.10681135207415,-0.28013008832932
39,1793496263,-1.62638258934021,0.00890854187310,20.86552047729492,0.00317729194649,-0.35932815074921,9.77548217773438,-5.32375192642212,0.11190858483315,-0.33576416969299
40,1793504596,-1.62649738788605,0.00906440801919,20.86529159545898,0.01891799271107,-0.37832155823708,9.78858852386475,-5.40064620971680,0.11155000329018,-0.40310406684875
41,1793512929,-1.62589919567108,0.00940362270921,20.86547279357910,-0.00457488745451,-0.37708091735840,9.78358745574951,-5.33568811416626,0.13211822509766,-0.35920119285583
42,1793521262,-1.62563741207123,0.00934759434313,20.86593055725098,0.01192427240312,-0.36338540911674,9.79992294311523,-5.35510444641113,0.08386100828648,-0.34506219625473
43,1793529595,-1.62563192844391,0.00975174922496,20.86624908447266,-0.00525789009407,-0.36454385519028,9.81893634796143,-5.40651130676270,0.13872668147087,-0.34214210510254
44,1793537928,-1.62534248828888,0.00971228908747,20.86585426330566,-0.02960661984980,-0.36983901262283,9.78776073455811,-5.35251712799072,0.09041824191809,-0.44997805356979
45,1793546261,-1.62470293045044,0.01022081915289,20.86627388000488,-0.00438175676391,-0.35768306255341,9.81008911132812,-5.33139753341675,0.15003539621830,-0.33085909485817
46,1793554594,-1.62466633319855,0.00994683708996,20.86617279052734,-0.01591829210520,-0.36073592305183,9.81022453308105,-5.38046264648438,0.06052644178271,-0.39631628990173
47,1793562927,-1.62523388862610,0.00998632423580,20.86508369445801,-0.00671239243820,-0.37162858247757,9.78642559051514,-5.47597742080688,0.09966498613358,-0.51467961072922
48,1793571260,-1.62470841407776,0.00961522571743,20.86447715759277,-0.00664075231180,-0.34858390688896,9.80125141143799,-5.32162618637085,0.05110039934516,-0.46516731381416
49,1793579593,-1.62504804134369,0.00907075777650,20.86411094665527,-0.00261754426174,-0.36453428864479,9.81045436859131,-5.44977426528931,0.02594721876085,-0.42800101637840
50,1793587926,-1.62488508224487,0.00937310140580,20.86348152160645,-0.00712470943108,-0.38345995545387,9.81734657287598,-5.36535024642944,0.13119611144066,-0.43781134486198
51,1793596259,-1.62409031391144,0.00917561259121,20.86325454711914,-0.00342061300762,-0.36711204051971,9.77493572235107,-5.31240510940552,0.06818509101868,-0.41045525670052
52,1793604592,-1.62431383132935,0.00893754232675,20.86372566223145,0.00131078762934,-0.37214025855064,9.79073619842529,-5.41273689270020,0.06319032609463,-0.35564085841179
53,1793612925,-1.62392067909241,0.00884389411658,20.86356735229492,0.00698534725234,-0.35918244719505,9.79662036895752,-5.36207103729248,0.08078729361296,-0.40184891223907
54,1793621258,-1.62413501739502,0.00959105324000,20.86356163024902,0.00364039256237,-0.36051246523857,9.77884578704834,-5.41090488433838,0.18371811509132,-0.40296313166618
55,1793629591,-1.62362480163574,0.01036187820137,20.86376571655273,0.00584761705250,-0.37701311707497,9.77956104278564,-5.34599828720093,0.18256546556950,-0.35460343956947
56,1793637924,-1.62264621257782,0.01087742298841,20.86398887634277,-0.02748194150627,-0.36897775530815,9.81052589416504,-5.26989841461182,0.15277609229088,-0.33900439739227
57,1793646257,-1.62210011482239,0.01116279792041,20.86445617675781,-0.02236617170274,-0.35740715265274,9.77606296539307,-5.34168195724487,0.12328131496906,-0.32656869292259
58,1793654590,-1.62253463268280,0.01120735425502,20.86469841003418,-0.01516420394182,-0.35412058234215,9.80944919586182,-5.43773555755615,0.09702672809362,-0.34050282835960
59,1793662923,-1.62271142005920,0.01118867751211,20.86522293090820,-0.00671777082607,-0.36062386631966,9.81266498565674,-5.42938566207886,0.08724208921194,-0.32047250866890
60,1793671256,-1.62242853641510,0.01166700478643,20.86482810974121,0.00011952303612,-0.36223536729813,9.81605339050293,-5.35112094879150,0.15098312497139,-0.40237405896187
61,1793679589,-1.62228465080261,0.01207369379699,20.86454772949219,-0.00771888019517,-0.33775997161865,9.80006217956543,-5.39105367660522,0.14076304435730,-0.41533485054970
62,1793687922,-1.62236142158508,0.01180470269173,20.86489677429199,-0.00348620489240,-0.37661299109459,9.79739379882812,-5.39429378509521,0.05870782956481,-0.34063091874123
63,1793696255,-1.62221181392670,0.01126180868596,20.86486244201660,0.01191543322057,-0.36194312572479,9.76575565338135,-5.39014434814453,0.02648511715233,-0.38909298181534
64,1793704588,-1.62257432937622,0.01201473083347,20.86461639404297,0.00271137477830,-0.36420536041260,9.80006790161133,-5.42912960052490,0.18373091518879,-0.41229957342148
65,1793712921,-1.62252879142761,0.01190053857863,20.86404228210449,0.01254611648619,-0.36431768536568,9.82710552215576,-5.40318202972412,0.07919921725988,-0.45120757818222
66,1793721254,-1.62312376499176,0.01192831248045,20.86305236816406,0.00335061689839,-0.36638370156288,9.78111267089844,-5.45635795593262,0.09971622377634,-0.49895253777504
67,1793729587,-1.62263393402100,0.01170971989632,20.86335563659668,0.01351225003600,-0.37589371204376,9.80315113067627,-5.34992980957031,0.06354891508818,-0.34539511799812
68,1793737920,-1.62211644649506,0.01130140200257,20.86396026611328,0.01368286181241,-0.35421213507652,9.81966781616211,-5.32295846939087,0.04264769703150,-0.32372552156448
69,1793746253,-1.62257230281830,0.01144123449922,20.86356353759766,-0.00657851435244,-0.35741937160492,9.82313919067383,-5.46212053298950,0.10850190371275,-0.43056249618530
70,1793754586,-1.63390803337097,0.01411736290902,20.84820938110352,-0.00042489412590,-0.33441764116287,9.81587123870850,-5.41237783432007,0.05548043176532,-0.28146204352379
71,1793762919,-1.63279521465302,0.01417651120573,20.84793663024902,-0.01193462312222,-0.34234836697578,9.76332092285156,-5.27475261688232,0.09969060122967,-0.41545006632805
72,1793771252,-1.63205587863922,0.01432464271784,20.84796142578125,-0.00645571434870,-0.35355848073959,9.79744338989258,-5.29637050628662,0.10932154953480,-0.37664449214935
73,1793779585,-1.63141834735870,0.01471129525453,20.84793472290039,0.00935507845134,-0.37934896349907,9.80279254913330,-5.33074522018433,0.13806073367596,-0.38384214043617
74,1793787918,-1.63160991668701,0.01494560297579,20.84912490844727,0.00241512176581,-0.35345643758774,9.79685878753662,-5.40777921676636,0.11640388518572,-0.23009264469147
75,1793796251,-1.63152563571930,0.01439297106117,20.84862899780273,-0.01338251959532,-0.36069226264954,9.79559135437012,-5.39830303192139,0.02601125650108,-0.44233226776123
76,1793804584,-1.63142716884613,0.01465313229710,20.84852790832520,-0.00404479494318,-0.37608996033669,9.79124259948730,-5.37316226959229,0.12330693751574,-0.38735130429268
77,1793812917,-1.63081789016724,0.01473832316697,20.84871482849121,-0.00573362270370,-0.36339867115021,9.78100967407227,-5.33404922485352,0.10094570368528,-0.35884264111519
78,1793821250,-1.63070070743561,0.01509917341173,20.84833908081055,-0.01026868354529,-0.37179994583130,9.76885604858398,-5.37170171737671,0.13690806925297,-0.43361055850983
79,1793829583,-1.63012242317200,0.01558019500226,20.84841537475586,-0.00334918079898,-0.36103698611259,9.77252864837646,-5.33743047714233,0.14904923737049,-0.37141925096512
80,1793837916,-1.63043451309204,0.01548427902162,20.84889221191406,0.00291512976401,-0.34728085994720,9.76838588714600,-5.42244434356689,0.07845640182495,-0.29549863934517
81,1793846249,-1.63068890571594,0.01557573955506,20.84919738769531,0.00483992043883,-0.34674835205078,9.78034687042236,-5.43804311752319,0.10066394507885,-0.34398639202118
82,1793854582,-1.63071072101593,0.01584654673934,20.85004997253418,0.00705493707210,-0.37237673997879,9.79848957061768,-5.38876199722290,0.12256411463022,-0.30495029687881
83,1793862915,-1.63019490242004,0.01556309126318,20.85019874572754,0.01213676575571,-0.37125617265701,9.79116439819336,-5.34467935562134,0.05694044753909,-0.36314582824707
84,1793871248,-1.63038825988770,0.01621753722429,20.85021400451660,-0.00885440036654,-0.37035703659058,9.81381988525391,-5.40850973129272,0.17066764831543,-0.39434394240379
85,1793879581,-1.63013613224030,0.01543758809566,20.85101699829102,0.00332910940051,-0.34902852773666,9.80140876770020,-5.37649297714233,-0.00459775561467,-0.28658488392830
86,1793887914,-1.63015258312225,0.01629904657602,20.85128593444824,0.01122673507780,-0.36532711982727,9.78180599212646,-5.38725090026855,0.19430959224701,-0.34081020951271
87,1793896247,-1.62938845157623,0.01614675484598,20.85164451599121,0.00414953520522,-0.35552296042442,9.79422378540039,-5.31453180313110,0.07161740213633,-0.33806952834129
88,1793904580,-1.62924969196320,0.01702312566340,20.85183143615723,-0.01079196669161,-0.37965977191925,9.78691291809082,-5.36803913116455,0.19804926216602,-0.37113744020462
89,1793912913,-1.62863051891327,0.01655288413167,20.85204124450684,-0.01134491246194,-0.35177260637283,9.80597114562988,-5.33315277099609,0.03383640572429,-0.35784363746643
90,1793921246,-1.62867498397827,0.01632177643478,20.85189819335938,-0.00316693121567,-0.36012193560600,9.76996994018555,-5.39001655578613,0.06595665961504,-0.44608473777771
91,1793929579,-1.62848913669586,0.01567013561726,20.85163497924805,-0.00016384712944,-0.34629768133163,9.79206943511963,-5.38363838195801,0.01362677384168,-0.41473290324211
92,1793937912,-1.62855815887451,0.01578291319311,20.85154342651367,0.00287655228749,-0.34377947449684,9.79792881011963,-5.39419126510620,0.10714434087276,-0.42526030540466
93,1793946245,-1.62827253341675,0.01648175343871,20.85144424438477,0.02167683281004,-0.35444140434265,9.78969192504883,-5.37377691268921,0.17450979351997,-0.39132148027420
94,1793954578,-1.62862956523895,0.01698545366526,20.85120773315430,0.01608590781689,-0.37498870491982,9.79443454742432,-5.42784833908081,0.15248154103756,-0.36778202652931
95,1793962911,-1.62862038612366,0.01689505763352,20.85163688659668,-0.00721241580322,-0.37152105569839,9.80090045928955,-5.40643501281738,0.07858447730541,-0.32974487543106
96,1793971244,-1.62866532802582,0.01718614436686,20.85109901428223,-0.00355322659016,-0.37504366040230,9.79670143127441,-5.39129734039307,0.12909574806690,-0.44270366430283
97,1793979577,-1.62844455242157,0.01702651381493,20.85041046142578,0.00013193575433,-0.34925803542137,9.78181171417236,-5.38066720962524,0.07433251291513,-0.46445015072823
98,1793987910,-1.62835943698883,0.01706693507731,20.84995269775391,-0.00055796705419,-0.35727250576019,9.78402614593506,-5.37446784973145,0.09797443449497,-0.41145426034927
99,1793996243,-1.62797129154205,0.01773069240153,20.85009193420410,-0.00160448346287,-0.34544211626053,9.77282810211182,-5.36076498031616,0.17079573869705,-0.36178827285767
100,1794004576,-1.62869274616241,0.01715121977031,20.85026359558105,-0.01049863919616,-0.37576183676720,9.78606605529785,-5.47317314147949,0.02137507870793,-0.34661182761192
101,1794012909,-1.62902486324310,0.01655565761030,20.85042381286621,-0.02171251550317,-0.36140945553780,9.78757953643799,-5.44559955596924,0.01877523399889,-0.36378619074821
102,1794021242,-1.62966823577881,0.01712096109986,20.84984588623047,-0.00095617078478,-0.38314750790596,9.79161453247070,-5.46375942230225,0.16029387712479,-0.35902193188667
103,1794029575,-1.62911713123322,0.01773066632450,20.84948348999023,0.00901584792882,-0.36543190479279,9.78395748138428,-5.34073400497437,0.16467390954494,-0.42169994115829
104,1794037908,-1.62924695014954,0.01736236736178,20.84912109375000,-0.00822047330439,-0.35674402117729,9.78461933135986,-5.40183734893799,0.05026794224977,-0.44374105334282
105,1794046241,-1.63031327724457,0.01784595288336,20.84970283508301,-0.00792045146227,-0.37396267056465,9.80724906921387,-5.53503179550171,0.14647500216961,-0.31052139401436
106,1794054574,-1.63046956062317,0.01797452569008,20.84957504272461,-0.01363357249647,-0.34706398844719,9.78918647766113,-5.40479516983032,0.10809206962585,-0.38343226909637
107,1794062907,-1.63063240051270,0.01696843095124,20.84975242614746,0.00620244676247,-0.36148446798325,9.78190708160400,-5.42556905746460,-0.03018637746572,-0.36245426535606
108,1794071240,-1.63095057010651,0.01672099716961,20.85119056701660,0.00173985050060,-0.34298709034920,9.77635669708252,-5.42385292053223,0.06247311830521,-0.35085099935532
109,1794079573,-1.63188481330872,0.01667353324592,20.85108184814453,-0.01644097827375,-0.35649657249451,9.77627468109131,-5.51897144317627,0.08561557531357,-0.39384445548058
110,1794087906,-1.63208842277527,0.01664722524583,20.85098266601562,0.00623618811369,-0.37795189023018,9.80092048645020,-5.40754938125610,0.08976508677006,-0.38900339603424
111,1794096239,-1.63196158409119,0.01684991642833,20.85067176818848,0.00681946659461,-0.35046470165253,9.78857803344727,-5.39352512359619,0.11521282047033,-0.41821637749672
112,1794104572,-1.63105261325836,0.01636604033411,20.84985923767090,0.01449774298817,-0.35463058948517,9.79204177856445,-5.27490568161011,0.03516834601760,-0.38092204928398
113,1794112905,-1.63103294372559,0.01707846112549,20.85032463073730,0.00532533740625,-0.36222374439240,9.80977439880371,-5.40533351898193,0.17366452515125,-0.32226550579071
114,1794121238,-1.63021457195282,0.01712846010923,20.85076713562012,-0.00568366376683,-0.34945675730705,9.79790973663330,-5.28855848312378,0.09741093218327,-0.32116407155991
115,1794129571,-1.63056302070618,0.01817777752876,20.85089874267578,-0.00240322435275,-0.37096929550171,9.80035209655762,-5.44905662536621,0.21559500694275,-0.36227494478226
116,1794137904,-1.63030326366425,0.01798575744033,20.85118865966797,-0.00251414533705,-0.37404409050941,9.77388954162598,-5.35259389877319,0.06895351409912,-0.32979607582092
117,1794146237,-1.62979578971863,0.01800243370235,20.85136604309082,-0.00596334645525,-0.35258498787880,9.78941154479980,-5.34718847274780,0.09180140495300,-0.35950854420662
118,1794154570,-1.62977242469788,0.01736495643854,20.85174560546875,-0.01078109629452,-0.36742177605629,9.82726001739502,-5.38379144668579,0.01406221371144,-0.30943274497986
119,1794162903,-1.62936902046204,0.01735406927764,20.85230827331543,-0.00787148345262,-0.33955499529839,9.78611278533936,-5.35830545425415,0.08749822527170,-0.31207102537155
120,1794171236,-1.63003635406494,0.01785142160952,20.85146903991699,0.00571598485112,-0.36375635862350,9.81075477600098,-5.46570634841919,0.15327556431293,-0.41916412115097
121,1794179569,-1.62941277027130,0.01744056865573,20.85091209411621,-0.00256557273678,-0.35582420229912,9.80157756805420,-5.33251237869263,0.04349296912551,-0.44949138164520
122,1794187902,-1.62859451770782,0.01770646683872,20.85063171386719,-0.00057899247622,-0.36655342578888,9.79726696014404,-5.28673982620239,0.12643186748028,-0.44723737239838
123,1794196235,-1.62792074680328,0.01857232674956,20.85087013244629,0.00658204685897,-0.35581374168396,9.78682899475098,-5.32685089111328,0.19379729032516,-0.34921163320541
124,1794204568,-1.62776446342468,0.01884940266609,20.85093688964844,0.01780454814434,-0.34726732969284,9.78514480590820,-5.36753988265991,0.12480535358191,-0.36228772997856
125,1794212901,-1.62722277641296,0.01882968656719,20.85137557983398,-0.00151902332436,-0.35146576166153,9.79969787597656,-5.34111833572388,0.08693470805883,-0.32841289043427
126,1794221234,-1.62716996669769,0.01861392147839,20.85095405578613,-0.00528626237065,-0.36048665642738,9.78617668151855,-5.37882328033447,0.06859492510557,-0.44144856929779
127,1794229567,-1.62697160243988,0.01860162243247,20.85047149658203,0.00954088848084,-0.36827531456947,9.79618167877197,-5.38456058502197,0.09064877778292,-0.43932256102562
128,1794237900,-1.62722361087799,0.01869188249111,20.85070228576660,0.00901584513485,-0.35906350612640,9.77293777465820,-5.41414499282837,0.10284116119146,-0.35313066840172
129,1794246233,-1.62727499008179,0.01881327852607,20.85042953491211,-0.00225786725059,-0.35978198051453,9.77652263641357,-5.41399145126343,0.10622222721577,-0.41224831342697
130,1794254566,-1.62741804122925,0.01860490441322,20.85005378723145,-0.00344867492095,-0.34666684269905,9.79965114593506,-5.40256738662720,0.06818509846926,-0.40973815321922
131,1794262899,-1.62707531452179,0.01929928921163,20.84985160827637,-0.01742793433368,-0.36097827553749,9.79227066040039,-5.36583709716797,0.17497085034847,-0.40259176492691
132,1794271232,-1.62776482105255,0.01975435018539,20.84993171691895,0.00135566422250,-0.34351649880409,9.81016921997070,-5.46813917160034,0.14653904736042,-0.37664452195168
133,1794279565,-1.62759923934937,0.02006573788822,20.84963226318359,0.01073686964810,-0.37864008545876,9.79815864562988,-5.38737821578979,0.12986417114735,-0.41511714458466
134,1794287898,-1.62825608253479,0.02012155205011,20.84967994689941,-0.00601444998756,-0.37973320484161,9.78688049316406,-5.46501493453979,0.09869164973497,-0.37974384427071
135,1794296231,-1.62777507305145,0.02066866122186,20.84959411621094,-0.00341755710542,-0.36206370592117,9.77132606506348,-5.34895706176758,0.15622122585773,-0.38886255025864
136,1794304564,-1.62765192985535,0.02097986266017,20.85013389587402,0.00007637953968,-0.34289109706879,9.81966590881348,-5.36960172653198,0.13050453364849,-0.39782750606537
137,1794312897,-1.62725281715393,0.02111254259944,20.85016441345215,0.00390553358011,-0.36547183990479,9.77324295043945,-5.35933113098145,0.10670891404152,-0.37782278656960
138,1794321230,-1.62860810756683,0.02110109850764,20.85166549682617,0.00179400434718,-0.35284811258316,9.81374359130859,-5.54849195480347,0.08680663257837,-0.22167840600014
139,1794329563,-1.62810814380646,0.02164585702121,20.85161590576172,0.00369141460396,-0.34594726562500,9.76387882232666,-5.34654903411865,0.15683597326279,-0.38609617948532
140,1794337896,-1.62798714637756,0.02186244912446,20.85147476196289,-0.01467806193978,-0.36243212223053,9.78064632415771,-5.37200927734375,0.11859390884638,-0.38998952507973
141,1794346229,-1.62875127792358,0.02223472297192,20.85207939147949,0.00376750505529,-0.36908325552940,9.77688503265381,-5.49826240539551,0.13380877673626,-0.30730679631233
142,1794354562,-1.62938773632050,0.02180610038340,20.85160636901855,-0.00362267415039,-0.35329648852348,9.80465030670166,-5.46358060836792,0.04292945936322,-0.46099215745926
143,1794362895,-1.62953412532806,0.02316416241229,20.85139274597168,0.01409423258156,-0.36385643482208,9.76629257202148,-5.42462110519409,0.25409319996834,-0.40182331204414
144,1794371228,-1.62955701351166,0.02290416136384,20.85191917419434,-0.01109872665256,-0.35059499740601,9.78939247131348,-5.38768577575684,0.05937379971147,-0.31150752305984
145,1794379561,-1.63013756275177,0.02300952188671,20.85350608825684,-0.00166304514278,-0.34879028797150,9.79442977905273,-5.47777080535889,0.09779515862465,-0.18943008780479
146,1794387894,-1.63008296489716,0.02297995984554,20.85417556762695,0.01534012425691,-0.37055107951164,9.78361988067627,-5.37651729583740,0.08688347786665,-0.27941286563873
147,1794396227,-1.62971603870392,0.02284010127187,20.85525894165039,-0.02246654778719,-0.36141785979271,9.79348659515381,-5.36408185958862,0.07011897116899,-0.25165987014771
148,1794404560,-1.62929451465607,0.02323000878096,20.85483360290527,-0.00011592140800,-0.37438538670540,9.82335186004639,-5.33343458175659,0.14080145955086,-0.43688923120499
149,1794412893,-1.62889814376831,0.02349299564958,20.85445404052734,-0.01523945014924,-0.35425531864166,9.78526973724365,-5.35999679565430,0.12422904372215,-0.42602878808975
150,1794421226,-1.62960982322693,0.02281531505287,20.85443115234375,0.01827694475651,-0.34891551733017,9.79269981384277,-5.46963834762573,0.01230764109641,-0.40962287783623
151,1794429559,-1.63023173809052,0.02250339277089,20.85515594482422,0.01301345974207,-0.37139633297920,9.82499313354492,-5.48189449310303,0.05025513097644,-0.29426914453506
152,1794437892,-1.62978053092957,0.02191599644721,20.85445594787598,0.01551646273583,-0.34825962781906,9.77148151397705,-5.33120584487915,0.02343702316284,-0.45084893703461
153,1794446225,-1.63013851642609,0.02196012623608,20.85449790954590,0.00294169271365,-0.36742314696312,9.77822208404541,-5.44951772689819,0.09654005616903,-0.37669578194618
154,1794454558,-1.62981426715851,0.02206319198012,20.85533142089844,0.00259738159366,-0.36098027229309,9.78458786010742,-5.34749698638916,0.10401941835880,-0.35543593764305
155,1794462891,-1.62968230247498,0.02175420522690,20.85635185241699,-0.01513528451324,-0.35200253129005,9.78044319152832,-5.39070796966553,0.05071618780494,-0.26022782921791
156,1794471224,-1.62953937053680,0.02200964652002,20.85678482055664,-0.00270099681802,-0.35953083634377,9.79131221771240,-5.36832046508789,0.12233358621597,-0.34987762570381
157,1794479557,-1.62933921813965,0.02125213295221,20.85694503784180,0.01500187721103,-0.35494413971901,9.83280086517334,-5.38357353210449,-0.00071719847620,-0.36454173922539
158,1794487890,-1.63055920600891,0.02149017900229,20.85684394836426,-0.00943992845714,-0.35222223401070,9.79068946838379,-5.53004884719849,0.12136024236679,-0.40674126148224
159,1794496223,-1.62982857227325,0.02181888185441,20.85717582702637,-0.00549693731591,-0.37605953216553,9.77214241027832,-5.31962823867798,0.12978734076023,-0.34001615643501
160,1794504556,-1.62976348400116,0.02243301086128,20.85688018798828,0.00302902702242,-0.36491242051125,9.77749919891357,-5.37687635421753,0.16631323099136,-0.41104441881180
161,1794512889,-1.62959623336792,0.02263988927007,20.85664939880371,-0.01515468209982,-0.37306952476501,9.77818965911865,-5.38724994659424,0.11654476076365,-0.40955880284309
162,1794521222,-1.62963962554932,0.02335161902010,20.85722160339355,0.01022353395820,-0.37828385829926,9.76961994171143,-5.38955545425415,0.17635400593281,-0.32823359966278
163,1794529555,-1.62937104701996,0.02392441779375,20.85768699645996,-0.01203191466630,-0.36533501744270,9.78966617584229,-5.37505769729614,0.15793737769127,-0.32234233617783
164,1794537888,-1.62936615943909,0.02437740005553,20.85843467712402,-0.02735169976950,-0.36760750412941,9.79490089416504,-5.38371515274048,0.14523272216320,-0.30999630689621
165,1794546221,-1.63022387027740,0.02428468689322,20.85857200622559,-0.00229654763825,-0.34778004884720,9.78297328948975,-5.51104307174683,0.07896868139505,-0.36501562595367
166,1794554554,-1.63014042377472,0.02483529038727,20.85854148864746,0.01602959074080,-0.34879833459854,9.78713321685791,-5.37459659576416,0.15842404961586,-0.37912911176682
167,1794562887,-1.62954914569855,0.02497560158372,20.85763549804688,0.00037913944107,-0.36779156327248,9.77005863189697,-5.33620119094849,0.11062788963318,-0.48862996697426
168,1794571220,-1.62888503074646,0.02443140186369,20.85756492614746,0.00199322286062,-0.38022634387016,9.81533622741699,-5.30466985702515,0.02807320095599,-0.37874490022659
169,1794579553,-1.62928330898285,0.02467782236636,20.85763359069824,0.01072981860489,-0.37007191777229,9.79488086700439,-5.45508956909180,0.11973373591900,-0.37138077616692
170,1794587886,-1.62975800037384,0.02381510846317,20.85739707946777,0.00164765480440,-0.34998083114624,9.77758502960205,-5.44226980209351,-0.01071955729276,-0.40031209588051
171,1794596219,-1.62994182109833,0.02333363518119,20.85832786560059,0.02964986860752,-0.37677222490311,9.79519939422607,-5.42938566207886,0.02945637144148,-0.27052474021912
172,1794604552,-1.63064885139465,0.02401673421264,20.85824012756348,-0.00544970808551,-0.35759660601616,9.77283382415771,-5.47080326080322,0.17453537881374,-0.39349865913391
173,1794612885,-1.63092064857483,0.02373456209898,20.85820960998535,-0.00755453621969,-0.34048175811768,9.78793811798096,-5.43952798843384,0.05750395730138,-0.38514843583107
174,1794621218,-1.63072574138641,0.02295279875398,20.85871124267578,0.01007444690913,-0.36982721090317,9.80929088592529,-5.36117410659790,-0.00070439145202,-0.37928277254105
175,1794629551,-1.63097894191742,0.02325234003365,20.85911369323730,-0.01160690188408,-0.36172011494637,9.77981853485107,-5.43758201599121,0.12550975382328,-0.33117926120758
176,1794637884,-1.63076162338257,0.02398271672428,20.85898208618164,-0.00382039300166,-0.37895396351814,9.82161998748779,-5.35901021957397,0.18110544979572,-0.40508913993835
177,1794646217,-1.63103067874908,0.02344630472362,20.86014556884766,-0.00091029470786,-0.37119856476784,9.78309822082520,-5.43917036056519,0.02254052646458,-0.24298945069313
178,1794654550,-1.63165426254272,0.02302520908415,20.85968780517578,0.00042535192915,-0.36714103817940,9.78011131286621,-5.45853424072266,0.04346735775471,-0.43747830390930
179,1794662883,-1.63168859481812,0.02409463934600,20.85981178283691,-0.01650540530682,-0.35539224743843,9.77706718444824,-5.41196823120117,0.21861751377583,-0.36304339766502
180,1794671216,-1.63177752494812,0.02477701753378,20.85985755920410,0.00546205462888,-0.34493252635002,9.77775764465332,-5.39621496200562,0.17371577024460,-0.36811503767967
181,1794679549,-1.63176262378693,0.02425885759294,20.86027145385742,0.01702008396387,-0.34085002541542,9.78004074096680,-5.40479612350464,0.02735600434244,-0.33164033293724
182,1794687882,-1.63189446926117,0.02423175051808,20.85986518859863,0.00329506373964,-0.34053796529770,9.81074810028076,-5.39941644668579,0.08977788686752,-0.38461050391197
183,1794696215,-1.63197815418243,0.02331685461104,20.86008834838867,-0.00981985777617,-0.35984310507774,9.79265117645264,-5.41660404205322,-0.01994068361819,-0.35799738764763
184,1794704548,-1.63189744949341,0.02316144108772,20.85951042175293,-0.01939676143229,-0.36822804808617,9.80487155914307,-5.37687635421753,0.07592059671879,-0.43732467293739
185,1794712881,-1.63214516639709,0.02326191961765,20.85910034179688,0.01706405170262,-0.32950311899185,9.78377246856689,-5.43729972839355,0.10325098037720,-0.42987087368965
186,1794721214,-1.63241267204285,0.02298009395599,20.85923385620117,-0.01045991759747,-0.37274089455605,9.79655933380127,-5.41627025604248,0.05916888266802,-0.35948300361633
187,1794729547,-1.63255715370178,0.02334339916706,20.85880851745605,0.00809517037123,-0.37656146287918,9.80295944213867,-5.42587661743164,0.13529440760612,-0.43038320541382
188,1794737880,-1.63300776481628,0.02320300787687,20.85892486572266,-0.00188761681784,-0.35205572843552,9.80444240570068,-5.43877267837524,0.07562603056431,-0.36820465326309
189,1794746213,-1.63250160217285,0.02291061729193,20.85826301574707,0.00213937344961,-0.36668553948402,9.80369091033936,-5.34690809249878,0.05727343261242,-0.46222168207169
190,1794754546,-1.63295638561249,0.02227525040507,20.85778617858887,0.00571308843791,-0.35550710558891,9.82599353790283,-5.43942594528198,0.01782750710845,-0.41363146901131
191,1794762879,-1.63338756561279,0.02199334278703,20.85823249816895,-0.01607260480523,-0.36997461318970,9.81219005584717,-5.45852184295654,0.05508341640234,-0.32717064023018
192,1794771212,-1.63344931602478,0.02191789075732,20.85823249816895,-0.01011903025210,-0.36191111803055,9.77051162719727,-5.39178276062012,0.08286204934120,-0.35366851091385
193,1794779545,-1.63427209854126,0.02105891332030,20.85826683044434,0.00081806385424,-0.35515308380127,9.79234027862549,-5.50694561004639,-0.01207711361349,-0.37833508849144
194,1794787878,-1.63455569744110,0.02156149409711,20.85841178894043,0.00415544304997,-0.36793854832649,9.76594734191895,-5.41864013671875,0.15462031960487,-0.44166624546051
195,1794796211,-1.63453269004822,0.02267140150070,20.85826683044434,-0.00622307136655,-0.35527047514915,9.77310466766357,-5.40464115142822,0.22450874745846,-0.39518919587135
196,1794804544,-1.63507723808289,0.02250480838120,20.85864639282227,0.01353630889207,-0.36157274246216,9.82972526550293,-5.45003080368042,0.07151494920254,-0.34419131278992
197,1794812877,-1.63463008403778,0.02248343639076,20.85801887512207,-0.01186024583876,-0.35761895775795,9.82319355010986,-5.35379791259766,0.08949613571167,-0.45643287897110
198,1794821210,-1.63518667221069,0.02258631773293,20.85878753662109,0.00104681577068,-0.35701662302017,9.78563594818115,-5.45172119140625,0.10268747806549,-0.29406425356865
199,1794829543,-1.63449347019196,0.02324342913926,20.85857009887695,0.00396814383566,-0.36890253424644,9.79200935363770,-5.32457160949707,0.17025782167912,-0.40594720840454
200,1794837876,-1.63532400131226,0.02308732271194,20.85762214660645,0.00320117012598,-0.36629283428192,9.75838947296143,-5.48403310775757,0.07795691490173,-0.50275617837906
201,1794846209,-1.63476538658142,0.02269976213574,20.85730552673340,0.00376357487403,-0.35990327596664,9.77507591247559,-5.34036254882812,0.04442789033055,-0.41943308711052
202,1794854542,-1.63407611846924,0.02222647890449,20.85715103149414,-0.00196128943935,-0.34745898842812,9.81339645385742,-5.30121231079102,0.03609045967460,-0.39726394414902
203,1794862875,-1.63404226303101,0.02225964143872,20.85770034790039,-0.00291016255505,-0.35401877760887,9.77629470825195,-5.40318202972412,0.09356880187988,-0.31614372134209
204,1794871208,-1.63395476341248,0.02262196131051,20.85763740539551,0.00179715594277,-0.35848087072372,9.80247879028320,-5.37400674819946,0.13637018203735,-0.40576785802841
205,1794879541,-1.63404798507690,0.02308977581561,20.85778045654297,-0.01017639599741,-0.35190218687057,9.78210449218750,-5.41878128051758,0.14674395322800,-0.36237740516663
206,1794887874,-1.63345026969910,0.02386281453073,20.85866737365723,-0.00628015771508,-0.37191164493561,9.79912471771240,-5.31276416778564,0.18360285460949,-0.31552895903587
207,1794896207,-1.63326203823090,0.02410429902375,20.85823631286621,-0.00317751104012,-0.33616515994072,9.79318141937256,-5.38499546051025,0.12115532159805,-0.43186879158020
208,1794904540,-1.63396596908569,0.02396702952683,20.85804557800293,-0.01564840041101,-0.36140829324722,9.79132175445557,-5.47021436691284,0.07738060504198,-0.43522429466248
209,1794912873,-1.63370990753174,0.02343350090086,20.85787582397461,0.00545600056648,-0.36198550462723,9.78009700775146,-5.37610769271851,0.02756091579795,-0.40274545550346
210,1794921206,-1.63295722007751,0.02434415742755,20.85801124572754,0.00252782506868,-0.36189278960228,9.74952411651611,-5.29619121551514,0.20099489390850,-0.35469314455986
211,1794929539,-1.63348197937012,0.02405680902302,20.85799407958984,0.01115811895579,-0.34697586297989,9.80301475524902,-5.47011184692383,0.05673552677035,-0.38322737812996
212,1794937872,-1.63369464874268,0.02430128119886,20.85804557800293,-0.00156922289170,-0.35848546028137,9.80838108062744,-5.41007232666016,0.12156516313553,-0.35558962821960
213,1794946205,-1.63250553607941,0.02467864938080,20.85833930969238,0.00344596034847,-0.36771506071091,9.79262256622314,-5.26491641998291,0.13437229394913,-0.34357655048370
214,1794954538,-1.63269126415253,0.02465180866420,20.85855484008789,0.01028466038406,-0.35717526078224,9.79825973510742,-5.40822839736938,0.08752384781837,-0.34764924645424
215,1794962871,-1.63163077831268,0.02387698180974,20.85914230346680,-0.00315815908834,-0.37032160162926,9.79482555389404,-5.27938795089722,-0.00293282954954,-0.31391525268555
216,1794971204,-1.63169717788696,0.02367092855275,20.85933113098145,-0.01741150021553,-0.35753783583641,9.80270195007324,-5.39292383193970,0.06722455471754,-0.35941895842552
217,1794979537,-1.63176393508911,0.02311031892896,20.85926818847656,-0.00569264730439,-0.35650163888931,9.83333873748779,-5.41501522064209,0.02307842485607,-0.39078357815742
218,1794987870,-1.63164460659027,0.02238186448812,20.85960578918457,0.00064247997943,-0.35204818844795,9.79510688781738,-5.37124109268188,0.00481547648087,-0.37185466289520
219,1794996203,-1.63191330432892,0.02212194353342,20.85958290100098,0.00954695232213,-0.35795474052429,9.80288124084473,-5.43865776062012,0.05942502245307,-0.38466176390648
220,1795004536,-1.63287615776062,0.02158121019602,20.85997772216797,-0.00389310857281,-0.36820682883263,9.79051876068115,-5.50031089782715,0.02653634548187,-0.34032350778580
221,1795012869,-1.63246917724609,0.02140557207167,20.86080169677734,-0.00300099770539,-0.34886679053307,9.79427814483643,-5.35787057876587,0.06700684130192,-0.28276836872101
222,1795021202,-1.63255500793457,0.02185801975429,20.86103439331055,-0.00548452557996,-0.36287146806717,9.79461765289307,-5.39624071121216,0.14707694947720,-0.37841191887856
223,1795029535,-1.63138830661774,0.02211329713464,20.86212921142578,0.01068025920540,-0.37453451752663,9.78368663787842,-5.26751565933228,0.11714668571949,-0.24845802783966
224,1795037868,-1.63171708583832,0.02118981070817,20.86286926269531,-0.00691723916680,-0.35739016532898,9.79194355010986,-5.42357063293457,-0.02035051025450,-0.28906944394112
225,1795046201,-1.63264739513397,0.02063493803144,20.86254692077637,0.00793364364654,-0.36556577682495,9.78281593322754,-5.51962471008301,0.02494826540351,-0.42164871096611
226,1795054534,-1.63246917724609,0.02103063277900,20.86234092712402,-0.00206866860390,-0.36890548467636,9.81001472473145,-5.36342859268188,0.14095513522625,-0.40553739666939
227,1795062867,-1.63271343708038,0.02022843435407,20.86263275146484,-0.00170376815367,-0.35900315642357,9.77987670898438,-5.43630075454712,-0.00639075133950,-0.34846884012222
228,1795071200,-1.63313853740692,0.02005666494370,20.86259841918945,0.00047607449233,-0.37098789215088,9.77634620666504,-5.43650627136230,0.07136126607656,-0.36327388882637
229,1795079533,-1.63341915607452,0.01992131583393,20.86217117309570,-0.00302329822443,-0.35379746556282,9.77726936340332,-5.44073295593262,0.07592059671879,-0.43312388658524
230,1795087866,-1.63317799568176,0.01998601667583,20.86260986328125,-0.00081201433204,-0.35407859086990,9.79451179504395,-5.35669231414795,0.09897340089083,-0.31883320212364
231,1795096199,-1.63321721553802,0.02007296681404,20.86242103576660,-0.00924306362867,-0.36377900838852,9.76561927795410,-5.41181421279907,0.10153483599424,-0.40318086743355
232,1795104532,-1.63346302509308,0.01958122104406,20.86175346374512,0.00117401487660,-0.34595292806625,9.76604843139648,-5.41516971588135,0.03624414652586,-0.46872764825821
233,1795112865,-1.63280594348907,0.01921900734305,20.86195373535156,-0.00874287821352,-0.37115108966827,9.80013275146484,-5.32767152786255,0.04697650298476,-0.35702401399612
234,1795121198,-1.63360381126404,0.01853099837899,20.86164474487305,0.00603992585093,-0.35427865386009,9.77529525756836,-5.48253536224365,0.01070674974471,-0.42139261960983
235,1795129531,-1.63365328311920,0.01811376959085,20.86154937744141,-0.01563978753984,-0.34989556670189,9.78242683410645,-5.41350460052490,0.04044487699866,-0.39385727047920
236,1795137864,-1.63414955139160,0.01671864837408,20.86083221435547,0.01724125258625,-0.35289916396141,9.81879901885986,-5.44321727752686,-0.07490883022547,-0.39457446336746
237,1795146197,-1.63456809520721,0.01648332737386,20.86098289489746,0.00961550790817,-0.35861435532570,9.81579971313477,-5.45715093612671,0.06331838667393,-0.36381176114082
238,1795154530,-1.63467955589294,0.01606217585504,20.86123275756836,-0.00536917941645,-0.34649389982224,9.80735397338867,-5.39839220046997,0.03934346511960,-0.33673751354218
239,1795162863,-1.63483023643494,0.01540661044419,20.86179161071777,-0.00809598714113,-0.36817753314972,9.80282688140869,-5.42546653747559,0.01024569477886,-0.31601566076279
240,1795171196,-1.63574123382568,0.01566912047565,20.86185646057129,-0.01045926660299,-0.35306376218796,9.77074718475342,-5.49362611770630,0.12466449290514,-0.37656769156456
241,1795179529,-1.63532483577728,0.01467492803931,20.86140632629395,-0.00908317510039,-0.34763866662979,9.76050281524658,-5.35764026641846,-0.02721512690187,-0.43855413794518
242,1795187862,-1.63479888439178,0.01422360353172,20.86144447326660,0.00394548010081,-0.35957005620003,9.78566074371338,-5.32180547714233,0.03703818470240,-0.34575375914574
243,1795196195,-1.63485395908356,0.01446804963052,20.86125946044922,-0.01025807578117,-0.34953293204308,9.77686882019043,-5.41376066207886,0.12095041573048,-0.40338578820229
244,1795204528,-1.63524961471558,0.01518353912979,20.86060333251953,-0.00381573336199,-0.37188729643822,9.79363441467285,-5.43268918991089,0.18040105700493,-0.44006535410881
245,1795212861,-1.63486635684967,0.01605177111924,20.86081695556641,-0.00632741907611,-0.35055160522461,9.78115940093994,-5.36166191101074,0.19420714676380,-0.35330998897552
246,1795221194,-1.63509452342987,0.01683214679360,20.86091232299805,0.00961827393621,-0.37153083086014,9.78545188903809,-5.41219854354858,0.18621549010277,-0.38632670044899
247,1795229527,-1.63489365577698,0.01695933379233,20.86166000366211,-0.00045008046436,-0.35486847162247,9.76989173889160,-5.38315153121948,0.10317413508892,-0.29127231240273
248,1795237860,-1.63542652130127,0.01694724708796,20.86167907714844,-0.00038107958972,-0.37066760659218,9.80740451812744,-5.45000457763672,0.09118667244911,-0.37072762846947
249,1795246193,-1.63540673255920,0.01720788888633,20.86058425903320,-0.00651037413627,-0.37291678786278,9.79609489440918,-5.40395069122314,0.12625256180763,-0.51193892955780
250,1795254526,-1.63586962223053,0.01679223217070,20.86143875122070,-0.00366776366718,-0.34542667865753,9.80587577819824,-5.44009256362915,0.03826766833663,-0.25728219747543
251,1795262859,-1.63594710826874,0.01652385480702,20.86155891418457,0.03453981876373,-0.37802106142044,9.80695724487305,-5.41737270355225,0.05788817629218,-0.36642447113991
252,1795271192,-1.63518476486206,0.01613888330758,20.86110687255859,-0.00220464006998,-0.35898736119270,9.80485916137695,-5.29342508316040,0.04807791858912,-0.43396919965744
253,1795279525,-1.63573741912842,0.01621889695525,20.86063385009766,0.01347584649920,-0.35551026463509,9.78933620452881,-5.47292947769165,0.10197026282549,-0.43681240081787
254,1795287858,-1.63603281974792,0.01600977592170,20.86146163940430,-0.00465107103810,-0.36325427889824,9.80807209014893,-5.41972923278809,0.06672508269548,-0.31844899058342
255,1795296191,-1.63562619686127,0.01561247836798,20.86146545410156,0.02307007089257,-0.36364766955376,9.75179767608643,-5.35871601104736,0.04208419099450,-0.38069158792496
256,1795304524,-1.63534700870514,0.01589633151889,20.86217880249023,-0.01409209147096,-0.34748855233192,9.80954170227051,-5.35133838653564,0.12369114160538,-0.27974584698677
257,1795312857,-1.63512587547302,0.01664759963751,20.86254119873047,-0.00569472089410,-0.36483439803123,9.76597499847412,-5.37951469421387,0.18032421171665,-0.33502140641212
258,1795321190,-1.63540720939636,0.01492180209607,20.86283683776855,-0.01021253131330,-0.34821146726608,9.78361511230469,-5.41798734664917,-0.11532810330391,-0.38345792889595
259,1795329523,-1.63532900810242,0.01573112607002,20.86313819885254,-0.00613540457562,-0.34682077169418,9.79372215270996,-5.39762401580811,0.18700952827930,-0.34301301836967
260,1795337856,-1.63527321815491,0.01528556365520,20.86294746398926,-0.00032476123306,-0.36305770277977,9.77601146697998,-5.37836217880249,0.03903609514236,-0.37941086292267
261,1795346189,-1.63505280017853,0.01574748009443,20.86319351196289,0.00647500064224,-0.36509591341019,9.78035259246826,-5.38153839111328,0.14551447331905,-0.34913486242294
262,1795354522,-1.63522624969482,0.01564505323768,20.86429214477539,-0.00061840133276,-0.36247873306274,9.78670597076416,-5.40506505966187,0.07793131470680,-0.28516328334808
263,1795362855,-1.63439261913300,0.01596297882497,20.86513137817383,0.01001751702279,-0.35839489102364,9.77991676330566,-5.30633449554443,0.12615011632442,-0.27790164947510
264,1795371188,-1.63446617126465,0.01598080061376,20.86502838134766,-0.00451862858608,-0.35660386085510,9.78557777404785,-5.39408922195435,0.09484951943159,-0.39216673374176
265,1795379521,-1.63451826572418,0.01547296624631,20.86476898193359,0.01151968631893,-0.35505017638206,9.80149364471436,-5.41359424591064,0.03057058900595,-0.41249167919159
266,1795387854,-1.63454020023346,0.01533769536763,20.86500930786133,0.00717460736632,-0.37498992681503,9.80641460418701,-5.38712215423584,0.07469111680984,-0.34019550681114
267,1795396187,-1.63410639762878,0.01612018048763,20.86515235900879,0.02591100893915,-0.36445960402489,9.78132534027100,-5.35605192184448,0.18352597951889,-0.36127594113350
268,1795404520,-1.63371860980988,0.01554764527828,20.86420822143555,-0.01011457201093,-0.34767410159111,9.77908515930176,-5.33632850646973,0.02658757567406,-0.44377940893173
269,1795412853,-1.63352215290070,0.01559369545430,20.86350250244141,-0.00465481681749,-0.35430693626404,9.74863433837891,-5.38415050506592,0.09805129468441,-0.46514171361923
270,1795421186,-1.63328623771667,0.01548198331147,20.86292266845703,-0.00361497257836,-0.35997954010963,9.81695556640625,-5.35725593566895,0.08058238774538,-0.41212025284767
271,1795429519,-1.63365459442139,0.01520680263638,20.86282920837402,-0.00716041633859,-0.36697858572006,9.75927448272705,-5.45054244995117,0.05804185569286,-0.39234602451324
272,1795437852,-1.63313770294189,0.01575380563736,20.86332130432129,-0.01245439704508,-0.36884948611259,9.77600765228271,-5.32439327239990,0.15573455393314,-0.30828016996384
273,1795446185,-1.63315677642822,0.01594710536301,20.86347770690918,-0.00798700191081,-0.35406374931335,9.80399036407471,-5.40912485122681,0.11367598921061,-0.36268478631973
274,1795454518,-1.63392782211304,0.01570591330528,20.86371040344238,0.01387971360236,-0.37149664759636,9.79938602447510,-5.47756576538086,0.06331838667393,-0.38204911351204
275,1795462851,-1.63363957405090,0.01675952225924,20.86311721801758,0.00968865212053,-0.37732273340225,9.80976104736328,-5.37390518188477,0.21912980079651,-0.44905596971512
276,1795471184,-1.63377273082733,0.01717280410230,20.86344337463379,-0.00536669837311,-0.35792887210846,9.79561328887939,-5.40015983581543,0.14128811657429,-0.35589697957039
277,1795479517,-1.63346445560455,0.01667177118361,20.86341094970703,-0.01596966944635,-0.36901852488518,9.78761863708496,-5.37031841278076,0.03135182335973,-0.38727438449860
278,1795487850,-1.63383960723877,0.01595980301499,20.86346626281738,0.01159197278321,-0.35967355966568,9.80456161499023,-5.42918062210083,0.00686461525038,-0.36427286267281
279,1795496183,-1.63420307636261,0.01592429354787,20.86437797546387,0.03106549568474,-0.35465455055237,9.79478454589844,-5.45086288452148,0.08307977020741,-0.27051192522049
280,1795504516,-1.63408374786377,0.01681440509856,20.86564636230469,0.02017069980502,-0.35702624917030,9.80452537536621,-5.37170219421387,0.19561590254307,-0.26350647211075
281,1795512849,-1.63415408134460,0.01652014441788,20.86584472656250,-0.00926296692342,-0.35783243179321,9.79071331024170,-5.41632223129272,0.05509622395039,-0.35630682110786
282,1795521182,-1.63397276401520,0.01688684336841,20.86627769470215,0.00567922182381,-0.33894124627113,9.80749320983887,-5.36305713653564,0.13505107164383,-0.33321559429169
283,1795529515,-1.63430845737457,0.01722440309823,20.86704063415527,-0.00926355924457,-0.36166188120842,9.74921226501465,-5.44780254364014,0.12886522710323,-0.28968423604965
284,1795537848,-1.63409018516541,0.01699892617762,20.86735916137695,0.00627311179414,-0.36306402087212,9.75050449371338,-5.35820341110229,0.06452226638794,-0.35074853897095
285,1795546181,-1.63357222080231,0.01689658127725,20.86766052246094,-0.01711837574840,-0.38465464115143,9.77224731445312,-5.34580659866333,0.07738060504198,-0.34539514780045
286,1795554514,-1.63353073596954,0.01712886057794,20.86767959594727,-0.02828385680914,-0.36451062560081,9.80104541778564,-5.38015460968018,0.11961849033833,-0.37239253520966
287,1795562847,-1.63331055641174,0.01673060096800,20.86684036254883,0.00358552834950,-0.37106519937515,9.78120136260986,-5.38033437728882,0.04661791026592,-0.48238009214401
288,1795571180,-1.63278663158417,0.01693881675601,20.86686325073242,0.00071415147977,-0.36133769154549,9.79931449890137,-5.32171630859375,0.11676249653101,-0.37547910213470
289,1795579513,-1.63252687454224,0.01672702655196,20.86727333068848,0.00536443712190,-0.35429999232292,9.79068470001221,-5.37518548965454,0.06388190388680,-0.33166593313217
290,1795587846,-1.63223540782928,0.01629824563861,20.86718750000000,-0.00446781003848,-0.36058801412582,9.80090332031250,-5.35023736953735,0.04149506241083,-0.40123420953751
291,1795596179,-1.63194632530212,0.01517347898334,20.86694717407227,-0.00268544629216,-0.35944688320160,9.77589225769043,-5.37159967422485,-0.04263489320874,-0.41204339265823
292,1795604512,-1.63254046440125,0.01489426847547,20.86613655090332,0.00390497595072,-0.36011180281639,9.78628730773926,-5.45605039596558,0.05996292456985,-0.45220655202866
293,1795612845,-1.63192307949066,0.01494296174496,20.86673736572266,0.01145060826093,-0.38414531946182,9.77602386474609,-5.33247375488281,0.09511846303940,-0.30767816305161
294,1795621178,-1.63232350349426,0.01550863683224,20.86703109741211,-0.00021993670089,-0.37207153439522,9.77048778533936,-5.43210124969482,0.16029389202595,-0.38286882638931
295,1795629511,-1.63191950321198,0.01458384282887,20.86698913574219,-0.01891716569662,-0.35717847943306,9.77805233001709,-5.35781955718994,-0.01983822695911,-0.38770985603333
296,1795637844,-1.63233852386475,0.01523980684578,20.86665153503418,-0.00710116233677,-0.35439717769623,9.79360580444336,-5.43704366683960,0.17223009467125,-0.43043440580368
297,1795646177,-1.63236391544342,0.01465710718185,20.86608505249023,0.00381523789838,-0.36340853571892,9.79706382751465,-5.41040611267090,0.02305281162262,-0.45015740394592
298,1795654510,-1.63240790367126,0.01485865190625,20.86648178100586,-0.00405498687178,-0.36074909567833,9.77576923370361,-5.38992691040039,0.11553300917149,-0.33572578430176
299,1795662843,-1.63192069530487,0.01374482270330,20.86676216125488,-0.00478753866628,-0.37429642677307,9.79439735412598,-5.34864950180054,-0.04483772441745,-0.35028749704361
300,1795671176,-1.63256943225861,0.01295564230531,20.86664199829102,-0.01191999111325,-0.37401077151299,9.77941417694092,-5.46171092987061,-0.00154966127593,-0.38963094353676
301,1795679509,-1.63187587261200,0.01269745640457,20.86675071716309,0.00178464327473,-0.36410906910896,9.78941440582275,-5.32485437393188,0.05927134305239,-0.36791008710861
302,1795687842,-1.63120663166046,0.01289302296937,20.86776733398438,0.01078484859318,-0.35821643471718,9.79277801513672,-5.30449008941650,0.11260017752647,-0.26640084385872
303,1795696175,-1.63127028942108,0.01289969310164,20.86792564392090,0.00041858828627,-0.34944227337837,9.81035804748535,-5.41458082199097,0.09118667989969,-0.36094301939011
304,1795704508,-1.63130247592926,0.01280428376049,20.86792182922363,0.00095525290817,-0.35650995373726,9.78954792022705,-5.38832521438599,0.08112027496099,-0.38553264737129
305,1795712841,-1.63152778148651,0.01286794431508,20.86814308166504,0.00608027959242,-0.36778748035431,9.78244209289551,-5.43420124053955,0.09735970944166,-0.35313063859940
306,1795721174,-1.63164377212524,0.01160643994808,20.86873817443848,0.00113711878657,-0.35592168569565,9.80522632598877,-5.39790582656860,-0.06092346087098,-0.32198375463486
307,1795729507,-1.63030159473419,0.01099049579352,20.86850929260254,0.00208674906753,-0.35224723815918,9.79901599884033,-5.24706315994263,0.01723837852478,-0.40912336111069
308,1795737840,-1.63052785396576,0.01114892400801,20.86819267272949,0.00399634707719,-0.36387562751770,9.82020950317383,-5.41265964508057,0.11280508339405,-0.41616728901863
309,1795746173,-1.62984633445740,0.01190544757992,20.86832809448242,-0.00058424239978,-0.35316315293312,9.83027648925781,-5.32505893707275,0.18180984258652,-0.36204439401627
310,1795754506,-1.62615442276001,0.01216040551662,20.85814094543457,-0.02070571109653,-0.36238220334053,9.78962421417236,-5.42003631591797,0.05112601071596,-0.31837213039398
311,1795762839,-1.62640810012817,0.01153170783073,20.85800552368164,0.00424124067649,-0.37929084897041,9.78142929077148,-5.43724870681763,0.01593205332756,-0.39928746223450
312,1795771172,-1.62727451324463,0.01206649001688,20.85810279846191,-0.01350679807365,-0.34592130780220,9.79544830322266,-5.48811864852905,0.15747629106045,-0.39144951105118
313,1795779505,-1.62734639644623,0.01250885240734,20.85770797729492,0.00720789795741,-0.34751281142235,9.76325130462646,-5.41583538055420,0.14507903158665,-0.42610564827919
314,1795787838,-1.62775218486786,0.01116458419710,20.85773849487305,-0.02193130366504,-0.37033778429031,9.80259037017822,-5.43448257446289,-0.06837720423937,-0.40469211339951
315,1795796171,-1.62772011756897,0.01085018273443,20.85751914978027,-0.01985362730920,-0.37026780843735,9.78994369506836,-5.40371990203857,0.05330321937799,-0.40689495205879
316,1795804504,-1.62746834754944,0.01103273127228,20.85713577270508,-0.00634242175147,-0.37782326340675,9.83224201202393,-5.35451555252075,0.11600688099861,-0.43348255753517
317,1795812837,-1.62725758552551,0.01107280515134,20.85798454284668,0.00738170975819,-0.35724553465843,9.82774257659912,-5.38205051422119,0.09267231076956,-0.27872133255005
318,1795821170,-1.62805306911469,0.01103230379522,20.85907745361328,-0.00119463331066,-0.35668572783470,9.79863357543945,-5.47979402542114,0.08332310616970,-0.22569981217384
319,1795829503,-1.62784337997437,0.01087491586804,20.85903358459473,-0.00470323255286,-0.37065812945366,9.79550743103027,-5.38189649581909,0.07192476838827,-0.38514843583107
320,1795837836,-1.62800574302673,0.01112173683941,20.85915946960449,0.01427440438420,-0.35712903738022,9.79288101196289,-5.40574407577515,0.12200062721968,-0.36896029114723
321,1795846169,-1.62772345542908,0.00998693797737,20.85976600646973,-0.00910049676895,-0.36399558186531,9.80809116363525,-5.37272739410400,-0.04745037108660,-0.30997067689896
322,1795854502,-1.62785220146179,0.01041523925960,20.85965347290039,0.00426792120561,-0.37131366133690,9.77342033386230,-5.40064668655396,0.14400324225426,-0.39237168431282
323,1795862835,-1.62792968750000,0.00995524134487,20.85882377624512,0.01268238294870,-0.36983412504196,9.78806304931641,-5.41726970672607,0.03852381184697,-0.48089441657066
324,1795871168,-1.62771654129028,0.00996177829802,20.85852432250977,0.00105393992271,-0.36663380265236,9.78990745544434,-5.35851097106934,0.09436284750700,-0.41749924421310
325,1795879501,-1.62761318683624,0.01009355299175,20.85836410522461,-0.00416913675144,-0.35858538746834,9.81034755706787,-5.39562559127808,0.10686258971691,-0.39862149953842
326,1795887834,-1.62804806232452,0.00913807284087,20.85800552368164,0.00214936770499,-0.36988717317581,9.78802013397217,-5.43678760528564,-0.02186174876988,-0.40448716282845
327,1795896167,-1.62784671783447,0.00909642502666,20.85764884948730,-0.00797475408763,-0.36168470978737,9.81715583801270,-5.38322877883911,0.08706279098988,-0.42100840806961
328,1795904500,-1.62756264209747,0.00910768471658,20.85732460021973,-0.02441112510860,-0.34683471918106,9.77685451507568,-5.35186386108398,0.09493916481733,-0.42096999287605
329,1795912833,-1.62788879871368,0.00910050794482,20.85741806030273,0.00786024518311,-0.34557905793190,9.79181289672852,-5.44644451141357,0.08849719166756,-0.36919078230858
330,1795921166,-1.62763047218323,0.00942974351346,20.85736846923828,-0.00260082166642,-0.35996714234352,9.80359363555908,-5.35325956344604,0.13199014961720,-0.35474431514740
331,1795929499,-1.62805819511414,0.00948715955019,20.85684776306152,0.00211148452945,-0.35068371891975,9.78772068023682,-5.45848321914673,0.09925515949726,-0.44175589084625
332,1795937832,-1.62714207172394,0.00951357278973,20.85637855529785,0.01363270170987,-0.36268010735512,9.79737567901611,-5.27595615386963,0.09641198068857,-0.42513230443001
333,1795946165,-1.62693524360657,0.01040619332343,20.85671043395996,-0.01474745851010,-0.35963594913483,9.77816581726074,-5.38263940811157,0.19705033302307,-0.33796700835228
334,1795954498,-1.62720465660095,0.01100474316627,20.85656738281250,-0.00048065322335,-0.38168141245842,9.79910278320312,-5.41791009902954,0.16510936617851,-0.40456402301788
335,1795962831,-1.62673950195312,0.01111597381532,20.85645103454590,0.01779099740088,-0.36185938119888,9.78184127807617,-5.35162067413330,0.10422433167696,-0.39134708046913
336,1795971164,-1.62676322460175,0.01048756949604,20.85604667663574,-0.00568113988265,-0.36199486255646,9.79794311523438,-5.38796710968018,0.01621381007135,-0.37044584751129
337,1795979497,-1.62745213508606,0.01061574276537,20.85638618469238,0.00633977260441,-0.36052581667900,9.77847576141357,-5.48974561691284,0.10603013634682,-0.33844089508057
338,1795987830,-1.62763881683350,0.01034683082253,20.85618782043457,0.01466044317931,-0.35261332988739,9.79411315917969,-5.40765190124512,0.06033433601260,-0.39784032106400
339,1795996163,-1.62745583057404,0.01089308504015,20.85594177246094,0.00887172389776,-0.34527361392975,9.79899406433105,-5.38543176651001,0.15663106739521,-0.40786826610565
340,1796004496,-1.62716794013977,0.01044741459191,20.85669326782227,-0.01788519136608,-0.36997652053833,9.79044246673584,-5.35154390335083,0.03647467121482,-0.30871558189392
341,1796012829,-1.62690877914429,0.01043114066124,20.85673522949219,0.01557618658990,-0.34643581509590,9.79660415649414,-5.37627458572388,0.08956016600132,-0.37455692887306
342,1796021162,-1.62713479995728,0.00996770150959,20.85630416870117,0.00198773713782,-0.35804626345634,9.80988311767578,-5.41221141815186,0.03630818054080,-0.39402380585670
343,1796029495,-1.62758278846741,0.00949420314282,20.85634422302246,-0.03198634088039,-0.37645077705383,9.79458427429199,-5.46071147918701,0.03401570394635,-0.37503081560135
344,1796037828,-1.62892806529999,0.00970431137830,20.85619163513184,0.00985293369740,-0.34355744719505,9.78648853302002,-5.54622459411621,0.11804321408272,-0.37947490811348
345,1796046161,-1.62927079200745,0.00874218903482,20.85589408874512,0.01343147456646,-0.37465807795525,9.79312610626221,-5.44777679443359,-0.02429510280490,-0.41860064864159
346,1796054494,-1.62949037551880,0.00772635824978,20.85531616210938,-0.01091347541660,-0.37267562747002,9.79859733581543,-5.41163539886475,-0.02893128059804,-0.41278624534607
347,1796062827,-1.62909817695618,0.00703424122185,20.85517692565918,-0.01398682128638,-0.35332104563713,9.79857540130615,-5.35999631881714,0.00835024006665,-0.39857026934624
348,1796071160,-1.62907242774963,0.00618404289708,20.85581970214844,-0.00933269690722,-0.36059057712555,9.81367206573486,-5.38240909576416,-0.01059148553759,-0.34754675626755
349,1796079493,-1.63028931617737,0.00684851873666,20.85613250732422,0.01998414658010,-0.37901154160500,9.77038860321045,-5.55417776107788,0.16948939859867,-0.34042596817017
350,1796087826,-1.63057613372803,0.00654631014913,20.85633087158203,0.00193102972116,-0.35884603857994,9.78964805603027,-5.41876792907715,0.05531393736601,-0.35363012552261
351,1796096159,-1.63097119331360,0.00698197400197,20.85708618164062,-0.01537984609604,-0.36519092321396,9.80951690673828,-5.45576810836792,0.14010986685753,-0.28968420624733
352,1796104492,-1.63158857822418,0.00598188489676,20.85682868957520,0.01818189583719,-0.36662489175797,9.78177833557129,-5.45804738998413,-0.02749687992036,-0.38317611813545
353,1796112825,-1.63175129890442,0.00602065213025,20.85650444030762,0.00359423994087,-0.38633239269257,9.78066062927246,-5.42756700515747,0.09589970111847,-0.41854938864708
354,1796121158,-1.63195800781250,0.00627128779888,20.85623168945312,0.02367291226983,-0.35770419239998,9.78708744049072,-5.40853548049927,0.12264095991850,-0.36780756711960
355,1796129491,-1.63203930854797,0.00769049953669,20.85601425170898,0.02762152627110,-0.36689355969429,9.78731346130371,-5.41803836822510,0.26177746057510,-0.40092685818672
356,1796137824,-1.63235521316528,0.00747977755964,20.85559082031250,-0.00386907439679,-0.36127868294716,9.78114891052246,-5.42236709594727,0.06790333986282,-0.43517303466797
357,1796146157,-1.63317525386810,0.00664790906012,20.85559082031250,-0.01479117572308,-0.38626158237457,9.77330970764160,-5.50602340698242,-0.00815813429654,-0.38238215446472
358,1796154490,-1.63371193408966,0.00600475026295,20.85598564147949,0.00420492980629,-0.37357118725777,9.78940010070801,-5.44787883758545,0.01372923050076,-0.32459640502930
359,1796162823,-1.63436806201935,0.00601550238207,20.85625267028809,-0.01037321239710,-0.36955729126930,9.80527305603027,-5.48709440231323,0.09080246090889,-0.34654778242111
360,1796171156,-1.63458621501923,0.00633214553818,20.85549163818359,-0.00768203753978,-0.35506874322891,9.76850509643555,-5.41091728210449,0.13242559134960,-0.45927602052689
361,1796179489,-1.63358783721924,0.00627825129777,20.85556983947754,-0.00289050140418,-0.35930940508842,9.79762649536133,-5.28786659240723,0.08468066900969,-0.37059953808784
362,1796187822,-1.63396263122559,0.00683640595526,20.85593223571777,-0.00569937424734,-0.36835896968842,9.79468631744385,-5.43042278289795,0.15856491029263,-0.34174510836601
363,1796196155,-1.63413405418396,0.00686714192852,20.85671424865723,0.00076730008004,-0.35112076997757,9.77401447296143,-5.42796373367310,0.09173738211393,-0.28593170642853
364,1796204488,-1.63427901268005,0.00671031465754,20.85657882690430,0.00100446224678,-0.36311492323875,9.80484580993652,-5.40110731124878,0.07297495752573,-0.40095242857933
365,1796212821,-1.63388299942017,0.00671967910603,20.85612297058105,0.00666234269738,-0.36136204004288,9.79814338684082,-5.36007356643677,0.09413231909275,-0.43573659658432
366,1796221154,-1.63406443595886,0.00676351506263,20.85588645935059,0.01482136547565,-0.37036928534508,9.79799747467041,-5.40546131134033,0.09759023785591,-0.39411342144012
367,1796229487,-1.63397347927094,0.00622214237228,20.85493278503418,0.03037064522505,-0.35845351219177,9.81311607360840,-5.39621496200562,0.02907215617597,-0.49680086970329
368,1796237820,-1.63440430164337,0.00610165391117,20.85501670837402,-0.01344792917371,-0.36829760670662,9.79110336303711,-5.43681335449219,0.07763674855232,-0.35420650243759
369,1796246153,-1.63419854640961,0.00589608075097,20.85558509826660,-0.00233986461535,-0.36118167638779,9.78212833404541,-5.38251161575317,0.06457348912954,-0.31207105517387
370,1796254486,-1.63496422767639,0.00573180941865,20.85548400878906,-0.01386528182775,-0.34542107582092,9.78053474426270,-5.47743797302246,0.07338478416204,-0.42574697732925
371,1796262819,-1.63514828681946,0.00583957182243,20.85518455505371,-0.00907255522907,-0.37345290184021,9.79242515563965,-5.43056344985962,0.10450607538223,-0.41652587056160
372,1796271152,-1.63528108596802,0.00553207984194,20.85460662841797,-0.02292427979410,-0.37329378724098,9.79728889465332,-5.39971208572388,0.05825958028436,-0.45501130819321
373,1796279485,-1.63595795631409,0.00578973256052,20.85426902770996,-0.01957039535046,-0.34668385982513,9.79079055786133,-5.48767089843750,0.12308921664953,-0.41976612806320
374,1796287818,-1.63614583015442,0.00605026679114,20.85370063781738,-0.02185473591089,-0.34334588050842,9.78848743438721,-5.40877914428711,0.12588115036488,-0.47496473789215
375,1796296151,-1.63627421855927,0.00542746577412,20.85348892211914,0.00671474076807,-0.35185614228249,9.78660297393799,-5.42271280288696,0.01727680116892,-0.40754809975624
376,1796304484,-1.63670241832733,0.00566540239379,20.85458183288574,-0.00937149673700,-0.34400463104248,9.78673553466797,-5.43573760986328,0.11662162840366,-0.25920325517654
377,1796312817,-1.63723933696747,0.00579698989168,20.85431480407715,0.01204863283783,-0.36736702919006,9.79309368133545,-5.47195625305176,0.10714434832335,-0.41196653246880
378,1796321150,-1.63729405403137,0.00683579221368,20.85382652282715,0.01235669199377,-0.37142974138260,9.80003547668457,-5.39142513275146,0.21951401233673,-0.42841085791588
379,1796329483,-1.63750517368317,0.00757273240015,20.85294151306152,-0.01374399755150,-0.35000953078270,9.79572486877441,-5.43325328826904,0.18147686123848,-0.48455733060837
380,1796337816,-1.63777399063110,0.00630757352337,20.85270118713379,0.01012912672013,-0.37888753414154,9.79914665222168,-5.41627025604248,-0.05869501829147,-0.41358023881912
381,1796346149,-1.63812232017517,0.00640717102215,20.85265159606934,-0.00172652583569,-0.35959914326668,9.78479099273682,-5.45002985000610,0.10335343331099,-0.38604494929314
382,1796354482,-1.63812816143036,0.00546175008640,20.85261154174805,0.01608311012387,-0.37904432415962,9.78740787506104,-5.38581562042236,-0.02209228090942,-0.36834552884102
383,1796362815,-1.63811802864075,0.00524107692763,20.85278892517090,-0.00670133437961,-0.36363178491592,9.80729198455811,-5.40620470046997,0.06413804739714,-0.35858649015427
384,1796371148,-1.63759863376617,0.00479876808822,20.85255813598633,0.01126979198307,-0.36549761891365,9.77962875366211,-5.32102489471436,0.04027838632464,-0.41787064075470
385,1796379481,-1.63740563392639,0.00494487024844,20.85353469848633,-0.00529460469261,-0.35486823320389,9.78501987457275,-5.38435554504395,0.10504398494959,-0.26396751403809
386,1796387814,-1.63759398460388,0.00483110547066,20.85281944274902,0.00206683669239,-0.36555725336075,9.76548957824707,-5.40776729583740,0.08058238774538,-0.45589500665665
387,1796396147,-1.63739919662476,0.00521348929033,20.85245132446289,-0.01453287061304,-0.37717366218567,9.79232215881348,-5.38363790512085,0.13859862089157,-0.42372351884842
388,1796404480,-1.63755190372467,0.00664382660761,20.85248184204102,0.00641151424497,-0.36448577046394,9.76817321777344,-5.40471839904785,0.26339116692543,-0.39585518836975
389,1796412813,-1.63710844516754,0.00693309586495,20.85329246520996,-0.01648797094822,-0.34972950816154,9.79945564270020,-5.35290145874023,0.12361429631710,-0.28194868564606
390,1796421146,-1.63761687278748,0.00774780986831,20.85285186767578,-0.02121889032423,-0.35482418537140,9.80469894409180,-5.44613695144653,0.19087727367878,-0.42899999022484
391,1796429479,-1.63809585571289,0.00736747961491,20.85293388366699,-0.01331061776727,-0.36068227887154,9.77434730529785,-5.46506595611572,0.04464560747147,-0.37211075425148
392,1796437812,-1.63810837268829,0.00728927925229,20.85270118713379,-0.00983288511634,-0.36701375246048,9.79696178436279,-5.38540506362915,0.08442451804876,-0.40146470069885
393,1796446145,-1.63764274120331,0.00797525979578,20.85236358642578,-0.00370036321692,-0.38459965586662,9.78009414672852,-5.35224723815918,0.17413836717606,-0.41807553172112
394,1796454478,-1.63720035552979,0.00741547765210,20.85204315185547,0.01257342100143,-0.32877293229103,9.80176734924316,-5.33055257797241,0.02708705328405,-0.45165577530861
395,1796462811,-1.63744449615479,0.00732865976170,20.85158920288086,-0.00394177203998,-0.37368500232697,9.77830600738525,-5.43691587448120,0.08112028241158,-0.43532669544220
396,1796471144,-1.63718235492706,0.00714667327702,20.85248947143555,0.01407237350941,-0.35391983389854,9.79778003692627,-5.35433626174927,0.06790333986282,-0.28640556335449
397,1796479477,-1.63714230060577,0.00672576203942,20.85220527648926,0.00815877970308,-0.38356721401215,9.77869415283203,-5.40246486663818,0.04105962067842,-0.41473290324211
398,1796487810,-1.63677966594696,0.00638177152723,20.85243415832520,0.00736328773201,-0.37255534529686,9.79565620422363,-5.34122133255005,0.05025513097644,-0.36181384325027
399,1796496143,-1.63716590404510,0.00450357655063,20.85299682617188,-0.00959988217801,-0.36163327097893,9.78549957275391,-5.45394945144653,-0.13635738193989,-0.31819280982018
400,1796504476,-1.63750278949738,0.00460464134812,20.85292816162109,-0.00963196624070,-0.36670124530792,9.79486656188965,-5.42497968673706,0.10489029437304,-0.38496914505959
401,1796512809,-1.63734018802643,0.00471157673746,20.85277175903320,-0.02405937016010,-0.35716950893402,9.77781009674072,-5.38837671279907,0.10427553951740,-0.39915940165520
402,1796521142,-1.63776016235352,0.00399024458602,20.85164642333984,0.00670186150819,-0.37600284814835,9.81667995452881,-5.43299722671509,0.00965656712651,-0.51970005035400
403,1796529475,-1.63780176639557,0.00378894084133,20.85139274597168,-0.02288164570928,-0.35867232084274,9.82613468170166,-5.41368389129639,0.06677631288767,-0.41071146726608
404,1796537808,-1.63803076744080,0.00409261742607,20.85220909118652,-0.01283894944936,-0.36734020709991,9.78073120117188,-5.41196727752686,0.12632940709591,-0.30766537785530
405,1796546141,-1.63797616958618,0.00418898742646,20.85235214233398,-0.00092656991910,-0.37439528107643,9.79667282104492,-5.40067195892334,0.10289237648249,-0.36227494478226
406,1796554474,-1.63744628429413,0.00430819531903,20.85241317749023,0.00395452929661,-0.34362390637398,9.81178951263428,-5.32152366638184,0.10614539682865,-0.38863196969032
407,1796562807,-1.63730502128601,0.00353739759885,20.85321998596191,0.00909389555454,-0.35056596994400,9.82458400726318,-5.38991403579712,-0.00405985629186,-0.28440770506859
408,1796571140,-1.63733351230621,0.00369246443734,20.85390472412109,0.00816605053842,-0.36201718449593,9.81249904632568,-5.38914537429810,0.10839943587780,-0.31168681383133
409,1796579473,-1.63690388202667,0.00336341490038,20.85484886169434,-0.00067758525256,-0.36643111705780,9.77829837799072,-5.35556554794312,0.04815476015210,-0.26576051115990
410,1796587806,-1.63761913776398,0.00350983673707,20.85403633117676,0.00519477715716,-0.37261220812798,9.77146148681641,-5.47131586074829,0.11144752800465,-0.45597186684608
411,1796596139,-1.63755631446838,0.00334567204118,20.85434722900391,0.00609027221799,-0.36917641758919,9.77746105194092,-5.39951992034912,0.07105389237404,-0.34475481510162
412,1796604472,-1.63746392726898,0.00330477114767,20.85371208190918,0.00700320582837,-0.37478083372116,9.78977680206299,-5.37398147583008,0.08895824104548,-0.45072093605995
413,1796612805,-1.63763964176178,0.00268058269285,20.85360717773438,0.00633692415431,-0.37416988611221,9.78551483154297,-5.42884731292725,0.01565029844642,-0.39370360970497
414,1796621138,-1.63768398761749,0.00220697815530,20.85293579101562,-0.01756742969155,-0.37764269113541,9.77659320831299,-5.38909435272217,0.03834451362491,-0.45028540492058
415,1796629471,-1.63729703426361,0.00232111709192,20.85210037231445,-0.01343786902726,-0.35789790749550,9.80738639831543,-5.36119985580444,0.10693942755461,-0.48020291328430
416,1796637804,-1.63745784759521,0.00228152330965,20.85174179077148,-0.00845385901630,-0.39166301488876,9.76015853881836,-5.40479564666748,0.08872771263123,-0.41045534610748
417,1796646137,-1.63762938976288,0.00286000827327,20.85140228271484,-0.02018374390900,-0.34896695613861,9.76914405822754,-5.42832231521606,0.16092140972614,-0.41789621114731
418,1796654470,-1.63833117485046,0.00270849023946,20.85173797607422,-0.01063386909664,-0.36418434977531,9.80278682708740,-5.46884441375732,0.07262916117907,-0.32691448926926
419,1796662803,-1.63838827610016,0.00221252767369,20.85116958618164,-0.00782926194370,-0.36043563485146,9.79219341278076,-5.41470861434937,0.03291429206729,-0.45051598548889
420,1796671136,-1.63806796073914,0.00167080841493,20.85146141052246,-0.01307084131986,-0.35947227478027,9.77259349822998,-5.34654855728149,0.02551177702844,-0.31529843807220
421,1796679469,-1.63769781589508,0.00206666579470,20.85098648071289,0.02012805268168,-0.35303050279617,9.79243850708008,-5.36259651184082,0.13953354954720,-0.43562132120132
422,1796687802,-1.63705766201019,0.00313553703018,20.85102081298828,0.00928118731827,-0.36250603199005,9.77282810211182,-5.30839681625366,0.22065381705761,-0.36592495441437
423,1796696135,-1.63723015785217,0.00427711242810,20.85083580017090,0.01000555790961,-0.35787081718445,9.78943443298340,-5.42816877365112,0.22795388102531,-0.39722555875778
424,1796704468,-1.63772547245026,0.00467790570110,20.85083007812500,0.00283374963328,-0.37733954191208,9.79975509643555,-5.44332027435303,0.14049407839775,-0.38947728276253
425,1796712801,-1.63735973834991,0.00448116427287,20.85084533691406,0.03011261858046,-0.37016344070435,9.77957057952881,-5.36394119262695,0.06710929423571,-0.37871930003166
426,1796721134,-1.63695240020752,0.00515236426145,20.85108375549316,0.02000931277871,-0.35241347551346,9.77881908416748,-5.33561182022095,0.17253750562668,-0.36340200901031
427,1796729467,-1.63679587841034,0.00506413215771,20.85091400146484,-0.00024496333208,-0.37743270397186,9.79634284973145,-5.38896656036377,0.08037746697664,-0.40049138665199
428,1796737800,-1.63774895668030,0.00444269180298,20.85056114196777,0.01910247094929,-0.35171884298325,9.78626251220703,-5.49877452850342,0.01895453408360,-0.41450232267380
429,1796746133,-1.63771224021912,0.00491360109299,20.85043144226074,-0.00238067540340,-0.34795019030571,9.81005191802979,-5.40305423736572,0.14792220294476,-0.39421588182449
430,1796754466,-1.63854038715363,0.00459930580109,20.84920501708984,0.00049660931109,-0.36405703425407,9.77365398406982,-5.48491716384888,0.05811869353056,-0.52300429344177
431,1796762799,-1.63811671733856,0.00494804559276,20.85037612915039,-0.00961198378354,-0.34244284033775,9.80369186401367,-5.35597515106201,0.12912136316299,-0.23761045932770
432,1796771132,-1.63901758193970,0.00549125857651,20.85124206542969,-0.02334186621010,-0.35566091537476,9.76713943481445,-5.49377965927124,0.15255838632584,-0.24063293635845
433,1796779465,-1.63849437236786,0.00611824868247,20.85121917724609,-0.02291047759354,-0.36616495251656,9.82236003875732,-5.34356546401978,0.16714569926262,-0.38062751293182
434,1796787798,-1.63858604431152,0.00632246071473,20.85038185119629,0.00961519777775,-0.35568147897720,9.80780982971191,-5.39547204971313,0.11800479143858,-0.44938895106316
435,1796796131,-1.63795697689056,0.00618353625759,20.85069656372070,0.00145252060611,-0.38051289319992,9.80244064331055,-5.33174419403076,0.07353847473860,-0.34250074625015
436,1796804464,-1.63807964324951,0.00699632894248,20.85136604309082,-0.00370388873853,-0.37310445308685,9.77835464477539,-5.40033864974976,0.18652285635471,-0.28343433141708
437,1796812797,-1.63771390914917,0.00655439356342,20.85146522521973,0.01670680381358,-0.36081534624100,9.79634094238281,-5.36429977416992,0.03734555840492,-0.36870414018631
438,1796821130,-1.63746070861816,0.00609714444727,20.85161590576172,0.00198654760607,-0.36512848734856,9.77924346923828,-5.35393857955933,0.03740958869457,-0.37962859869003
439,1796829463,-1.63744997978210,0.00559429870918,20.85174369812012,-0.01493882015347,-0.37430250644684,9.78263187408447,-5.40482091903687,0.02981496602297,-0.36621955037117
440,1796837796,-1.63825416564941,0.00528248492628,20.85190773010254,0.01136710029095,-0.35527801513672,9.77461528778076,-5.48161268234253,0.05450709536672,-0.36627078056335
441,1796846129,-1.63918685913086,0.00500388722867,20.85201835632324,0.01012810319662,-0.35541421175003,9.82237529754639,-5.51903533935547,0.05727342516184,-0.36724409461021
442,1796854462,-1.63933336734772,0.00468313507736,20.85136222839355,-0.01421749684960,-0.37910199165344,9.80023384094238,-5.40211915969849,0.05567254126072,-0.44789052009583
443,1796862795,-1.63897049427032,0.00492331245914,20.85154724121094,0.00999823678285,-0.36991983652115,9.79326152801514,-5.36368465423584,0.11854267120361,-0.35697278380394
444,1796871128,-1.64000403881073,0.00471232365817,20.85207939147949,-0.01876870729029,-0.35621720552444,9.76445102691650,-5.50845623016357,0.06652016937733,-0.34875065088272
445,1796879461,-1.63965880870819,0.00409894064069,20.85185432434082,0.00142895116005,-0.36296063661575,9.79022407531738,-5.36718130111694,0.01735364273190,-0.40872630476952
446,1796887794,-1.63998401165009,0.00409245723858,20.85112190246582,-0.01729748584330,-0.37957125902176,9.80880260467529,-5.42171430587769,0.09360722452402,-0.44274204969406
447,1796896127,-1.64005517959595,0.00420211395249,20.85171699523926,-0.00547610223293,-0.37487295269966,9.78944110870361,-5.41639900207520,0.10186781734228,-0.30817767977715
448,1796904460,-1.64037859439850,0.00521508976817,20.85124206542969,-0.01605607755482,-0.36791059374809,9.76968097686768,-5.42421150207520,0.21574869751930,-0.45973709225655
449,1796912793,-1.64042150974274,0.00511092972010,20.85104370117188,-0.00170301296748,-0.37242388725281,9.73817729949951,-5.41173744201660,0.07960904389620,-0.40412861108780
450,1796921126,-1.63998508453369,0.00508190086111,20.85073852539062,-0.00895632244647,-0.37877580523491,9.80072498321533,-5.33292245864868,0.08762630820274,-0.39016884565353
451,1796929459,-1.63986980915070,0.00495588919148,20.85043525695801,0.00719697447494,-0.38274338841438,9.81932258605957,-5.39406299591064,0.07689393311739,-0.41783216595650
452,1796937792,-1.63984918594360,0.00510207144544,20.84996604919434,0.00630751391873,-0.37105241417885,9.80856895446777,-5.38076972961426,0.11103771626949,-0.42018875479698
453,1796946125,-1.64000618457794,0.00520689925179,20.84991836547852,0.02397341094911,-0.37794288992882,9.77528572082520,-5.42713069915771,0.10376325249672,-0.38581436872482
454,1796954458,-1.64040946960449,0.00562247307971,20.85031127929688,0.01874644309282,-0.37262114882469,9.81893444061279,-5.43313837051392,0.14165954291821,-0.35475718975067
455,1796962791,-1.64012825489044,0.00616966234520,20.85115814208984,0.00769801298156,-0.37339025735855,9.80003452301025,-5.37358427047729,0.15269926190376,-0.27563476562500
456,1796971124,-1.64026498794556,0.00624906271696,20.85135650634766,0.01148428674787,-0.36918610334396,9.80319023132324,-5.40118408203125,0.10012604296207,-0.32326444983482
457,1796979457,-1.64060401916504,0.00604026205838,20.85111045837402,-0.00184380076826,-0.36893793940544,9.79576778411865,-5.44716167449951,0.06608472019434,-0.41101881861687
458,1796987790,-1.64068126678467,0.00636010663584,20.85181427001953,-0.00385063141584,-0.35224393010139,9.77396392822266,-5.39362812042236,0.12881399691105,-0.29601094126701
459,1796996123,-1.64154148101807,0.00644420413300,20.85151672363281,0.00635974435136,-0.36522927880287,9.78705787658691,-5.51091575622559,0.10132992267609,-0.41468167304993
460,1797004456,-1.64152717590332,0.00670199003071,20.85161590576172,0.01044001709670,-0.37409183382988,9.79765987396240,-5.38248586654663,0.12230798602104,-0.36852481961250
461,1797012789,-1.64159953594208,0.00625858828425,20.85106658935547,-0.00771880010143,-0.36947590112686,9.77342796325684,-5.41660356521606,0.03931784629822,-0.44744226336479
462,1797021122,-1.64187669754028,0.00632640952244,20.85119819641113,-0.00892873015255,-0.35711234807968,9.76885414123535,-5.41732120513916,0.10107377171516,-0.37976947426796
463,1797029455,-1.64218544960022,0.00667285500094,20.85178947448730,-0.00484356796369,-0.35576671361923,9.78404903411865,-5.44547128677368,0.12960803508759,-0.30871558189392
464,1797037788,-1.64217007160187,0.00635055499151,20.85182380676270,0.00067303859396,-0.37131404876709,9.77872657775879,-5.38201236724854,0.05628728121519,-0.41410538554192
465,1797046121,-1.64164602756500,0.00718365143985,20.85132026672363,0.00065715122037,-0.36515229940414,9.79656124114990,-5.34461498260498,0.19194027781487,-0.43726056814194
466,1797054454,-1.64177703857422,0.00783737655729,20.85141563415527,-0.00786060001701,-0.37136775255203,9.79622173309326,-5.39936590194702,0.17005291581154,-0.36680865287781
467,1797062787,-1.64147770404816,0.00799948535860,20.85104370117188,0.00903940387070,-0.36252576112747,9.83145427703857,-5.37252187728882,0.11098648607731,-0.42385157942772
468,1797071120,-1.64136958122253,0.00786045379937,20.85096168518066,0.00631580408663,-0.34992364048958,9.80911254882812,-5.37106084823608,0.07438373565674,-0.34626603126526
469,1797079453,-1.64197623729706,0.00762590719387,20.85089111328125,0.01442325022072,-0.37162753939629,9.81172561645508,-5.48022937774658,0.06367699056864,-0.38888812065125
470,1797087786,-1.64173972606659,0.00633766874671,20.85044097900391,0.00094796123449,-0.36869630217552,9.79243946075439,-5.35667943954468,-0.06170469149947,-0.42132851481438
471,1797096119,-1.64143455028534,0.00604239618406,20.85021209716797,0.00070804619463,-0.36797341704369,9.79303359985352,-5.37031888961792,0.05673552677035,-0.40768897533417
472,1797104452,-1.64124488830566,0.00664097210392,20.85011482238770,0.00752127869055,-0.37293857336044,9.78845405578613,-5.36063671112061,0.16518621146679,-0.41296550631523
473,1797112785,-1.64106309413910,0.00667933793738,20.84967803955078,-0.00547033594921,-0.36671411991119,9.80893516540527,-5.38558483123779,0.09682180732489,-0.43184316158295
474,1797121118,-1.64096379280090,0.00645295483992,20.84974098205566,-0.00211665267125,-0.36085352301598,9.80708503723145,-5.37376403808594,0.06525226682425,-0.39389571547508
475,1797129451,-1.64025270938873,0.00601259479299,20.85024833679199,-0.01526692789048,-0.35085302591324,9.76616477966309,-5.32188224792480,0.03570624440908,-0.32054933905602
476,1797137784,-1.64038205146790,0.00604172935709,20.85050201416016,-0.00062800612068,-0.36666917800903,9.79079532623291,-5.40062141418457,0.09459337592125,-0.35077419877052
477,1797146117,-1.64024090766907,0.00715649081394,20.85011291503906,-0.00456530507654,-0.36466541886330,9.79998111724854,-5.38919639587402,0.22678843140602,-0.42226344347000
478,1797154450,-1.64098167419434,0.00730710197240,20.85052299499512,0.00027253080043,-0.36574307084084,9.81441593170166,-5.47464609146118,0.10740049928427,-0.32790061831474
479,1797162783,-1.64079940319061,0.00732447160408,20.85065269470215,-0.00209336075932,-0.36314576864243,9.79200553894043,-5.38481664657593,0.09297967702150,-0.36465704441071
480,1797171116,-1.63995480537415,0.00744824204594,20.84944725036621,-0.00083766720491,-0.36795344948769,9.76990699768066,-5.28284597396851,0.11103770881891,-0.51665186882019
481,1797179449,-1.63995313644409,0.00823315326124,20.84876251220703,-0.00602399092168,-0.36577883362770,9.79350757598877,-5.40766429901123,0.18711197376251,-0.45840516686440
482,1797187782,-1.63970875740051,0.00847375672311,20.84784126281738,0.01208568271250,-0.34777960181236,9.80877780914307,-5.35623121261597,0.12356307357550,-0.47689858078957
483,1797196115,-1.63977086544037,0.00839166156948,20.84732246398926,0.01843762956560,-0.36038905382156,9.80485439300537,-5.41545152664185,0.08283644169569,-0.44362577795982
484,1797204448,-1.63929831981659,0.00806698668748,20.84767341613770,-0.00068628392182,-0.35651046037674,9.77866554260254,-5.32644176483154,0.05245795100927,-0.33830001950264
485,1797212781,-1.63897025585175,0.00872980896384,20.84750366210938,-0.00510738277808,-0.37035775184631,9.78308296203613,-5.36866664886475,0.17060358822346,-0.39735361933708
486,1797221114,-1.63913846015930,0.00882222969085,20.84683036804199,-0.01533823739737,-0.36326995491982,9.75773715972900,-5.40416812896729,0.10408344864845,-0.43679958581924
487,1797229447,-1.63909900188446,0.00889565516263,20.84615516662598,0.01416906993836,-0.36019754409790,9.77329540252686,-5.40255451202393,0.10200869292021,-0.46141487360001
488,1797237780,-1.63880205154419,0.00933943130076,20.84568023681641,0.01730410195887,-0.35910835862160,9.81799983978271,-5.34880304336548,0.14687201380730,-0.43168950080872
489,1797246113,-1.63950276374817,0.00983624625951,20.84588050842285,-0.01775083877146,-0.36795994639397,9.77252960205078,-5.49067974090576,0.15002256631851,-0.35290011763573
490,1797254446,-1.64016413688660,0.00961181148887,20.84581184387207,-0.01546300202608,-0.34835171699524,9.77581882476807,-5.46365737915039,0.06472717225552,-0.37602978944778
491,1797262779,-1.64004993438721,0.00995828304440,20.84605598449707,0.01134880725294,-0.36456844210625,9.78882217407227,-5.39442157745361,0.13175961375237,-0.35036426782608
492,1797271112,-1.64002478122711,0.01068783272058,20.84543228149414,-0.00504851061851,-0.36969214677811,9.79295444488525,-5.38071870803833,0.18280880153179,-0.48419871926308
493,1797279445,-1.63956582546234,0.01122576277703,20.84540557861328,0.00176079070661,-0.36149933934212,9.79632568359375,-5.35238838195801,0.15596507489681,-0.38064032793045
494,1797287778,-1.63997304439545,0.01137122511864,20.84578704833984,0.01023594848812,-0.36562457680702,9.80293464660645,-5.43184518814087,0.10647837817669,-0.32185569405556
495,1797296111,-1.63999509811401,0.01164755411446,20.84562683105469,-0.01609724014997,-0.37538820505142,9.78298091888428,-5.41063594818115,0.12527921795845,-0.39849346876144
496,1797304444,-1.64008271694183,0.01154923718423,20.84619140625000,-0.00596115924418,-0.35955482721329,9.79988288879395,-5.39412736892700,0.07875096052885,-0.33357420563698
497,1797312777,-1.64078879356384,0.01190189830959,20.84539222717285,0.00418475084007,-0.36391040682793,9.78609943389893,-5.49221706390381,0.13647265732288,-0.47518250346184
498,1797321110,-1.64036655426025,0.01220026612282,20.84531021118164,0.00334674376063,-0.34830296039581,9.80020046234131,-5.33356285095215,0.12691852450371,-0.38704389333725
499,1797329443,-1.64060556888580,0.01210907287896,20.84577941894531,-0.01815577223897,-0.38036945462227,9.79705810546875,-5.43673610687256,0.07866131514311,-0.32318758964539
500,1797337776,-1.64035272598267,0.01185638271272,20.84589767456055,0.00038127327571,-0.35785651206970,9.81959629058838,-5.35363101959229,0.06130767241120,-0.36472105979919
501,1797346109,-1.64081513881683,0.01217262540013,20.84615898132324,0.00306286057457,-0.35344669222832,9.79925727844238,-5.46357965469360,0.12784063816071,-0.34803339838982
502,1797354442,-1.64006733894348,0.01204637251794,20.84570312500000,-0.00794740300626,-0.37116724252701,9.79123497009277,-5.29505157470703,0.07823868095875,-0.44988843798637
503,1797362775,-1.64009296894073,0.01164683420211,20.84514617919922,-0.01443913672119,-0.37091225385666,9.77676010131836,-5.40996932983398,0.04495298117399,-0.44800570607185
504,1797371108,-1.64028418064117,0.01127202715725,20.84498977661133,0.00673673860729,-0.37509682774544,9.77637290954590,-5.40640926361084,0.04828283935785,-0.39408785104752
505,1797379441,-1.64057981967926,0.00991327315569,20.84483146667480,-0.00549938809127,-0.37344223260880,9.78196144104004,-5.44339609146118,-0.07139967381954,-0.40461522340775
506,1797387774,-1.64093530178070,0.00868597347289,20.84547805786133,0.00100518052932,-0.36177927255630,9.77967548370361,-5.42714405059814,-0.05714536458254,-0.32025477290154
507,1797396107,-1.64066195487976,0.00905242934823,20.84597969055176,-0.01953901164234,-0.36362066864967,9.79335784912109,-5.37583923339844,0.13218227028847,-0.31823128461838
508,1797404440,-1.64094889163971,0.00874859187752,20.84604835510254,0.01180948782712,-0.37679529190063,9.80298137664795,-5.41812849044800,0.05628728121519,-0.38003844022751
509,1797412773,-1.64046025276184,0.00901134125888,20.84563827514648,0.00342256366275,-0.35565185546875,9.80763053894043,-5.34788084030151,0.12317884713411,-0.42812913656235
510,1797421106,-1.64090466499329,0.00884202681482,20.84568023681641,-0.01573303528130,-0.34580484032631,9.80518817901611,-5.43837594985962,0.07179670035839,-0.37090694904327
511,1797429439,-1.64094054698944,0.00971346255392,20.84525489807129,0.00948298070580,-0.35186237096786,9.78412914276123,-5.41230058670044,0.19679416716099,-0.42751437425613
512,1797437772,-1.64112532138824,0.01002397015691,20.84420776367188,-0.00223849783652,-0.35562500357628,9.79623699188232,-5.40479564666748,0.13206700980663,-0.47387611865997
513,1797446105,-1.64089334011078,0.01050002966076,20.84480094909668,-0.00903363898396,-0.35675314068794,9.79906749725342,-5.38041067123413,0.14513024687767,-0.30682009458542
514,1797454438,-1.64041006565094,0.01114249415696,20.84584045410156,-0.00252081919461,-0.35039034485817,9.77786064147949,-5.32646656036377,0.16943813860416,-0.34654778242111
515,1797462771,-1.64009606838226,0.01122501678765,20.84594917297363,-0.00993798859417,-0.37021949887276,9.78285408020020,-5.36966609954834,0.10042060911655,-0.36666780710220
516,1797471104,-1.64045953750610,0.01122936513275,20.84635162353516,-0.00632596993819,-0.37730756402016,9.78829669952393,-5.42868089675903,0.09145562350750,-0.34786695241928
517,1797479437,-1.63998413085938,0.01115695480257,20.84643363952637,0.00159069383517,-0.35536175966263,9.80233001708984,-5.35078811645508,0.08108186721802,-0.37056115269661
518,1797487770,-1.63981318473816,0.01147463917732,20.84643363952637,0.00985371880233,-0.36112973093987,9.80520248413086,-5.36253166198730,0.12914696335793,-0.32434025406837
519,1797496103,-1.63961780071259,0.01111447997391,20.84622955322266,0.00707247527316,-0.36525315046310,9.79405117034912,-5.38468885421753,0.04864143207669,-0.40615212917328
520,1797504436,-1.63976335525513,0.01105999853462,20.84635925292969,-0.02443279512227,-0.36703401803970,9.81542968750000,-5.40218257904053,0.08493679761887,-0.37195709347725
521,1797512769,-1.63951206207275,0.01030619628727,20.84653282165527,0.00628211954609,-0.36224183440208,9.80576038360596,-5.37720918655396,0.00015368541062,-0.36091735959053
522,1797521102,-1.64023709297180,0.01036916207522,20.84574699401855,-0.00524292932823,-0.35312947630882,9.81558036804199,-5.47157192230225,0.10225202888250,-0.46352797746658
523,1797529435,-1.64029526710510,0.01018194481730,20.84617805480957,-0.01393557526171,-0.35142523050308,9.80600166320801,-5.41499042510986,0.06682754307985,-0.32936063408852
524,1797537768,-1.64004564285278,0.01074949186295,20.84608650207520,-0.01482259854674,-0.35874271392822,9.78628444671631,-5.35387468338013,0.15988406538963,-0.36232617497444
525,1797546101,-1.63947117328644,0.01063991524279,20.84518814086914,-0.00238182302564,-0.36609843373299,9.77897071838379,-5.33940267562866,0.07968588918447,-0.48850184679031
526,1797554434,-1.64044928550720,0.01037940662354,20.84470939636230,0.01354493387043,-0.35961890220642,9.79168033599854,-5.50125885009766,0.06393313407898,-0.45212972164154
527,1797562767,-1.64070475101471,0.00985772442073,20.84435272216797,-0.01749070547521,-0.35400772094727,9.81274604797363,-5.43781232833862,0.02879039756954,-0.42454317212105
528,1797571100,-1.64127540588379,0.00914767850190,20.84480094909668,0.00506135029718,-0.36241137981415,9.81658458709717,-5.45418024063110,0.00563513161615,-0.32664555311203
529,1797579433,-1.64083433151245,0.00950386188924,20.84521484375000,0.00420793471858,-0.34227198362350,9.80223464965820,-5.35432291030884,0.13149067759514,-0.32814395427704
530,1797587766,-1.64103162288666,0.00945220794529,20.84502983093262,-0.01631483808160,-0.35567584633827,9.79051399230957,-5.40729284286499,0.08853560686111,-0.44832599163055
531,1797596099,-1.64037597179413,0.00941877719015,20.84489440917969,-0.00321225030348,-0.36196562647820,9.79148864746094,-5.32827281951904,0.08676822483540,-0.39556062221527
532,1797604432,-1.64073979854584,0.00931645836681,20.84490394592285,-0.00822045188397,-0.34968692064285,9.80334949493408,-5.42784786224365,0.07945535331964,-0.37989753484726
533,1797612765,-1.64037740230560,0.00933633465320,20.84522819519043,0.02468661218882,-0.36589604616165,9.77878570556641,-5.36394119262695,0.09213439375162,-0.34137371182442
534,1797621098,-1.63963079452515,0.00996143184602,20.84490966796875,0.01239447388798,-0.37099364399910,9.78266620635986,-5.29392480850220,0.16865694522858,-0.41343942284584
535,1797629431,-1.63898551464081,0.01019331160933,20.84495162963867,-0.02239020355046,-0.34952607750893,9.78857612609863,-5.33037376403809,0.11774863302708,-0.37432640790939
536,1797637764,-1.63891232013702,0.00964924320579,20.84527969360352,-0.01792748831213,-0.35403656959534,9.79563617706299,-5.37521123886108,0.02648512087762,-0.34982642531395
537,1797646097,-1.63891112804413,0.01009635441005,20.84537506103516,-0.00493936985731,-0.34557649493217,9.79382991790771,-5.40710115432739,0.14428499341011,-0.36773076653481
538,1797654430,-1.63919901847839,0.01062897592783,20.84526634216309,0.00910318363458,-0.36546748876572,9.78933143615723,-5.41847372055054,0.15616998076439,-0.42044490575790
539,1797662763,-1.63854622840881,0.01024325657636,20.84477424621582,0.02001412585378,-0.36178278923035,9.73777961730957,-5.32846498489380,0.04633614793420,-0.43980920314789
540,1797671096,-1.63824725151062,0.01107854116708,20.84424018859863,0.00033344153780,-0.37635546922684,9.82958889007568,-5.34946966171265,0.19479627907276,-0.43857976794243
541,1797679429,-1.63816761970520,0.01197609771043,20.84467124938965,0.00321294181049,-0.35384243726730,9.80403232574463,-5.39749574661255,0.19743451476097,-0.32469883561134
542,1797687762,-1.63897335529327,0.01214946713299,20.84528732299805,0.00956209376454,-0.35348281264305,9.80829238891602,-5.48231744766235,0.11020524054766,-0.32542884349823
543,1797696095,-1.63842296600342,0.01328066363931,20.84540557861328,-0.00693726539612,-0.34927845001221,9.80718135833740,-5.34114456176758,0.22594316303730,-0.36191633343697
544,1797704428,-1.63850057125092,0.01290646940470,20.84531402587891,-0.00525137502700,-0.36790463328362,9.80295562744141,-5.39349937438965,0.04815476015210,-0.40604966878891
545,1797712761,-1.63890910148621,0.01237086113542,20.84462165832520,0.00630099745467,-0.36648535728455,9.80913734436035,-5.45599842071533,0.02889285422862,-0.46365603804588
546,1797721094,-1.63890385627747,0.01250351499766,20.84436798095703,0.01472674869001,-0.35635715723038,9.80265808105469,-5.38228082656860,0.11003874987364,-0.41842132806778
547,1797729427,-1.63888156414032,0.01216259226203,20.84414672851562,0.00691406195983,-0.37440481781960,9.80226707458496,-5.40535926818848,0.05092109739780,-0.40817564725876
548,1797737760,-1.63970410823822,0.01225365418941,20.84460639953613,-0.00194761960302,-0.36095267534256,9.79748153686523,-5.48313617706299,0.10139394551516,-0.33482927083969
549,1797746093,-1.64076411724091,0.01212449371815,20.84476089477539,-0.01180663798004,-0.34848347306252,9.79047679901123,-5.53458261489868,0.07440935075283,-0.36158332228661
550,1797754426,-1.62479209899902,0.01069156825542,20.85431289672852,-0.01810182444751,-0.36923387646675,9.76641941070557,-5.46063470840454,0.12950557470322,-0.38899061083794
551,1797762759,-1.62468624114990,0.01068844646215,20.85403633117676,0.00433179037645,-0.34257635474205,9.79247188568115,-5.39562559127808,0.09162211418152,-0.41352900862694
552,1797771092,-1.62464690208435,0.01100082043558,20.85415077209473,0.00907700881362,-0.37831526994705,9.80542564392090,-5.38112831115723,0.12827609479427,-0.37351959943771
553,1797779425,-1.62452769279480,0.01039552222937,20.85388183593750,-0.00661259703338,-0.35164174437523,9.79555130004883,-5.39498567581177,0.01974857598543,-0.41514271497726
554,1797787758,-1.62453210353851,0.01098838821054,20.85348892211914,0.00848135910928,-0.35726344585419,9.77011394500732,-5.38466310501099,0.16436655819416,-0.42600315809250
555,1797796091,-1.62490153312683,0.01169736590236,20.85406112670898,0.02428172715008,-0.36933538317680,9.80352115631104,-5.45328330993652,0.17430487275124,-0.30994504690170
556,1797804424,-1.62544870376587,0.01174904685467,20.85463142395020,-0.00160891574342,-0.35759234428406,9.78132343292236,-5.45097875595093,0.09641198068857,-0.33002662658691
557,1797812757,-1.62579524517059,0.01133683416992,20.85454177856445,0.00907238200307,-0.37271311879158,9.82997131347656,-5.45000505447388,0.04272454604506,-0.39226922392845
558,1797821090,-1.62569701671600,0.01073017437011,20.85415267944336,0.01149137970060,-0.37212336063385,9.80307483673096,-5.37276506423950,0.02042735368013,-0.41658994555473
559,1797829423,-1.62567400932312,0.01153832487762,20.85470581054688,0.00360851618461,-0.37195485830307,9.78223896026611,-5.40694713592529,0.18480668962002,-0.31094399094582
560,1797837756,-1.62624847888947,0.01093249116093,20.85465812683105,0.02828462049365,-0.32985666394234,9.76298618316650,-5.45469188690186,0.01928751915693,-0.35728013515472
561,1797846089,-1.62608861923218,0.01073382887989,20.85462188720703,-0.00045106289326,-0.38121777772903,9.77796459197998,-5.38979816436768,0.06778806447983,-0.38710790872574
562,1797854422,-1.62581348419189,0.01115377992392,20.85357475280762,0.00009840064740,-0.36684808135033,9.77947902679443,-5.35208129882812,0.14392638206482,-0.47336387634277
563,1797862755,-1.62601685523987,0.01113336905837,20.85482788085938,-0.01223975885659,-0.36292234063148,9.80978870391846,-5.43353462219238,0.08401469141245,-0.23074585199356
564,1797871088,-1.62624001502991,0.01259004045278,20.85399436950684,-0.00967140123248,-0.34504520893097,9.79868793487549,-5.41291522979736,0.26953858137131,-0.44531625509262
565,1797879421,-1.62570798397064,0.01252296566963,20.85344696044922,-0.02361599728465,-0.36481496691704,9.78342819213867,-5.34439754486084,0.08452697843313,-0.44541874527931
566,1797887754,-1.62539696693420,0.01317431498319,20.85277938842773,-0.00146015640348,-0.37026813626289,9.80709552764893,-5.34803485870361,0.17212766408920,-0.44693002104759
567,1797896087,-1.62438809871674,0.01403393130749,20.85244178771973,0.01126644667238,-0.37840873003006,9.82528018951416,-5.28763628005981,0.19518046081066,-0.41798588633537
568,1797904420,-1.62490403652191,0.01444625202566,20.85183143615723,-0.01122254319489,-0.36207658052444,9.79732227325439,-5.44698190689087,0.14269688725471,-0.41888234019279
569,1797912753,-1.62398374080658,0.01425687409937,20.85200691223145,-0.00442303391173,-0.35300761461258,9.75959777832031,-5.29959774017334,0.06705806404352,-0.36132720112801
570,1797921086,-1.62444114685059,0.01455404143780,20.85213661193848,0.00765486387536,-0.35565662384033,9.78210353851318,-5.43999004364014,0.12827609479427,-0.37387818098068
571,1797929419,-1.62482440471649,0.01463218778372,20.85198211669922,-0.00480076996610,-0.35445332527161,9.78816986083984,-5.45451307296753,0.10158606618643,-0.39990225434303
572,1797937752,-1.62598729133606,0.01382745243609,20.85184288024902,0.01838119141757,-0.37158396840096,9.79489612579346,-5.52487516403198,-0.00423915637657,-0.40353947877884
573,1797946085,-1.62655925750732,0.01412824820727,20.85054206848145,0.00575543893501,-0.36707946658134,9.79981136322021,-5.47746324539185,0.13183647394180,-0.53545272350311
574,1797954418,-1.62683892250061,0.01388708315790,20.85049438476562,0.01123183500022,-0.34195598959923,9.79840278625488,-5.41934490203857,0.06385629624128,-0.40307837724686
575,1797962751,-1.62647974491119,0.01469328626990,20.85016822814941,0.01704692654312,-0.36080759763718,9.80410861968994,-5.36616945266724,0.18841831386089,-0.41793462634087
576,1797971084,-1.62648296356201,0.01473352033645,20.85007095336914,0.00535047240555,-0.35548016428947,9.76984214782715,-5.38589239120483,0.09735970199108,-0.39188492298126
577,1797979417,-1.62571573257446,0.01455780304968,20.85046386718750,-0.02410138584673,-0.36723592877388,9.77007198333740,-5.31786108016968,0.06808263063431,-0.33415049314499
578,1797987750,-1.62564039230347,0.01437877770513,20.85050773620605,-0.03180544450879,-0.36634618043900,9.82624530792236,-5.37636423110962,0.07179669290781,-0.39168009161949
579,1797996083,-1.62581300735474,0.01399722043425,20.85064888000488,-0.01516276132315,-0.37754097580910,9.80539798736572,-5.43084573745728,0.04380034282804,-0.36424720287323
580,1798004416,-1.62695062160492,0.01464512757957,20.85100364685059,-0.00335660669953,-0.36651614308357,9.75925445556641,-5.51990652084351,0.17066766321659,-0.38181862235069
581,1798012749,-1.62635827064514,0.01509370561689,20.85148620605469,-0.01686480082572,-0.36165317893028,9.76583194732666,-5.33947992324829,0.14262005686760,-0.32177883386612
582,1798021082,-1.62578725814819,0.01510736625642,20.85132217407227,-0.00688051152974,-0.34773099422455,9.80534934997559,-5.31465959548950,0.09451653808355,-0.40392369031906
583,1798029415,-1.62566161155701,0.01527107600123,20.85135459899902,-0.00221872702241,-0.38100001215935,9.79602622985840,-5.39414072036743,0.11034613102674,-0.37646526098251
584,1798037748,-1.62559497356415,0.01478968281299,20.85134696960449,-0.00502140587196,-0.35396888852119,9.78442764282227,-5.37682533264160,0.03521957248449,-0.39944121241570
585,1798046081,-1.62534117698669,0.01459419354796,20.85087013244629,-0.00475007621571,-0.37073698639870,9.80353260040283,-5.37800312042236,0.06913281232119,-0.43852847814560
586,1798054414,-1.62513256072998,0.01305086538196,20.85147857666016,-0.00044126657303,-0.35875514149666,9.79739952087402,-5.35976600646973,-0.09414511919022,-0.32477572560310
587,1798062747,-1.62480878829956,0.01283848751336,20.85188484191895,-0.00331827369519,-0.37656083703041,9.78421020507812,-5.37003755569458,0.06339523196220,-0.33240875601768
588,1798071080,-1.62487697601318,0.01349757518619,20.85212135314941,0.00493443803862,-0.35795783996582,9.81541252136230,-5.39501047134399,0.17138482630253,-0.37774589657784
589,1798079413,-1.62439024448395,0.01326177269220,20.85207939147949,0.00524408882484,-0.34922358393669,9.80025768280029,-5.34913635253906,0.06344646215439,-0.38699269294739
590,1798087746,-1.62437415122986,0.01362206600606,20.85225296020508,-0.01526886597276,-0.35743194818497,9.79102706909180,-5.38399696350098,0.13347578048706,-0.34250074625015
591,1798096079,-1.62498188018799,0.01316484343261,20.85225677490234,-0.00088025990408,-0.37571859359741,9.78991413116455,-5.48150968551636,0.03685888648033,-0.38133192062378
592,1798104412,-1.62493205070496,0.01394764706492,20.85215377807617,-0.00585401616991,-0.36563977599144,9.79270458221436,-5.38094854354858,0.18493476510048,-0.38599371910095
593,1798112745,-1.62477827072144,0.01248660031706,20.85248184204102,-0.00753658916801,-0.35448870062828,9.82782363891602,-5.38963222503662,-0.08443733304739,-0.34700885415077
594,1798121078,-1.62439680099487,0.01359429210424,20.85238647460938,-0.00435983343050,-0.37645652890205,9.80607700347900,-5.33904409408569,0.22507229447365,-0.39954367280006
595,1798129411,-1.62471759319305,0.01304152701050,20.85258102416992,0.00416259793565,-0.34998509287834,9.77111911773682,-5.44859600067139,0.02400053851306,-0.35958543419838
596,1798137744,-1.62508463859558,0.01353044528514,20.85242080688477,0.01253202930093,-0.35306122899055,9.77746200561523,-5.42933416366577,0.15204609930515,-0.40776577591896
597,1798146077,-1.62494540214539,0.01372142415494,20.85244750976562,0.01835749484599,-0.37308567762375,9.80398368835449,-5.39201450347900,0.11352229118347,-0.37628594040871
598,1798154410,-1.62393414974213,0.01400100905448,20.85235786437988,0.00033459218685,-0.35675615072250,9.78071117401123,-5.26443004608154,0.12561221420765,-0.38427758216858
599,1798162743,-1.62438702583313,0.01446369942278,20.85227012634277,-0.00691233109683,-0.36438021063805,9.76285934448242,-5.46322202682495,0.14730748534203,-0.38968217372894
600,1798171076,-1.62471008300781,0.01464707590640,20.85196876525879,-0.00163346226327,-0.36453664302826,9.78565502166748,-5.42398071289062,0.11616054922342,-0.46368163824081
601,1798179409,-1.62426090240479,0.01467743795365,20.85178947448730,-0.00474762916565,-0.37407353520393,9.79899597167969,-5.35466909408569,0.09472143650055,-0.40151593089104
602,1798187742,-1.62462615966797,0.01387822534889,20.85126686096191,0.00847407802939,-0.36423426866531,9.80190563201904,-5.42800235748291,-0.00111421919428,-0.45973709225655
603,1798196075,-1.62383222579956,0.01385869458318,20.85131835937500,0.00945370551199,-0.35471880435944,9.79526233673096,-5.31371164321899,0.08765190839767,-0.37503084540367
604,1798204408,-1.62406194210052,0.01308429427445,20.85141372680664,-0.00557597307488,-0.37405234575272,9.77291202545166,-5.41206979751587,-0.00203633191995,-0.34729060530663
605,1798212741,-1.62419319152832,0.01352785713971,20.85098266601562,-0.00472385808825,-0.35618710517883,9.79293918609619,-5.42462062835693,0.14676956832409,-0.43125402927399
606,1798221074,-1.62499225139618,0.01298749912530,20.85042572021484,-0.00537284323946,-0.35752770304680,9.80102252960205,-5.48129272460938,0.02821408025920,-0.43879750370979
607,1798229407,-1.62486982345581,0.01299480814487,20.84964179992676,0.01601255685091,-0.35096281766891,9.77955722808838,-5.39387035369873,0.09419634193182,-0.47447809576988
608,1798237740,-1.62418735027313,0.01380418706685,20.84939384460449,-0.00294971163385,-0.36310794949532,9.78860569000244,-5.30322265625000,0.19030094146729,-0.39935156702995
609,1798246073,-1.62358963489532,0.01447424013168,20.84904861450195,-0.00071110040881,-0.35543373227119,9.79978942871094,-5.33708524703979,0.17270399630070,-0.42012473940849
610,1798254406,-1.62344396114349,0.01539588719606,20.84904861450195,0.00193663430400,-0.36410707235336,9.78252124786377,-5.36792373657227,0.20259578526020,-0.37360921502113
611,1798262739,-1.62404680252075,0.01562966033816,20.84899520874023,-0.00569114834070,-0.37388944625854,9.80221176147461,-5.48254776000977,0.11852986365557,-0.38692861795425
612,1798271072,-1.62451326847076,0.01517249364406,20.84852409362793,0.01698690280318,-0.36768198013306,9.79802799224854,-5.43970823287964,0.03916416689754,-0.43673554062843
613,1798279405,-1.62489330768585,0.01590054668486,20.84809494018555,0.02547689341009,-0.38557520508766,9.80633449554443,-5.45512819290161,0.17914596199989,-0.42948672175407
614,1798287738,-1.62465405464172,0.01555063296109,20.84784889221191,0.00159148522653,-0.35953849554062,9.77821540832520,-5.35633420944214,0.05043443292379,-0.39403662085533
615,1798296071,-1.62388944625854,0.01571586541831,20.84832191467285,-0.01131283119321,-0.36920052766800,9.78098583221436,-5.31668281555176,0.10919349640608,-0.32329007983208
616,1798304404,-1.62340605258942,0.01593016274273,20.84976005554199,-0.00998886488378,-0.35842081904411,9.80334186553955,-5.32713413238525,0.11523844301701,-0.24557648599148
617,1798312737,-1.62317180633545,0.01592013053596,20.84977340698242,-0.00295556103811,-0.37386286258698,9.79391193389893,-5.38103914260864,0.08907350152731,-0.37816861271858
618,1798321070,-1.62337577342987,0.01562664657831,20.84943008422852,0.00361851742491,-0.35560899972916,9.81454753875732,-5.40916347503662,0.05779852345586,-0.41031447052956
619,1798329403,-1.62377357482910,0.01582440175116,20.84893035888672,0.01838025450706,-0.35932359099388,9.78483486175537,-5.45674180984497,0.11610933393240,-0.44057768583298
620,1798337736,-1.62322676181793,0.01625387370586,20.84837150573730,0.01185440924019,-0.35679793357849,9.79550552368164,-5.32001256942749,0.14610360562801,-0.46893262863159
621,1798346069,-1.62337541580200,0.01641561277211,20.84739112854004,0.01582954265177,-0.36874556541443,9.79202651977539,-5.42682361602783,0.11362474411726,-0.49785104393959
622,1798354402,-1.62330782413483,0.01653636805713,20.84635162353516,-0.02232367172837,-0.34666752815247,9.81241893768311,-5.37592887878418,0.10957770794630,-0.47743657231331
623,1798362735,-1.62321591377258,0.01685351692140,20.84518432617188,0.00938545167446,-0.35656309127808,9.76308345794678,-5.39690637588501,0.13311718404293,-0.51931583881378
624,1798371068,-1.62408483028412,0.01653588749468,20.84463119506836,0.02159017510712,-0.36209449172020,9.78628730773926,-5.49078226089478,0.05437901988626,-0.42251959443092
625,1798379401,-1.62460613250732,0.01688582822680,20.84352111816406,0.00511440541595,-0.36852484941483,9.82157611846924,-5.47134160995483,0.13708738982677,-0.51250243186951
626,1798387734,-1.62448489665985,0.01797658018768,20.84357833862305,0.01851027086377,-0.37110051512718,9.80952739715576,-5.37154865264893,0.22304876148701,-0.38494354486465
627,1798396067,-1.62401914596558,0.01724091917276,20.84329223632812,0.01166012790054,-0.35869601368904,9.80116844177246,-5.35290145874023,0.00356037868187,-0.41678205132484
628,1798404400,-1.62490677833557,0.01718147471547,20.84436798095703,0.00143336958718,-0.38701266050339,9.79130458831787,-5.49134683609009,0.08324626833200,-0.30418187379837
629,1798412733,-1.62526369094849,0.01814197190106,20.84337615966797,-0.00766056869179,-0.36293536424637,9.81809520721436,-5.45118284225464,0.21011354029179,-0.49672397971153
630,1798421066,-1.62468659877777,0.01835269294679,20.84375762939453,-0.00301916454919,-0.37482944130898,9.80244255065918,-5.31709241867065,0.11470054090023,-0.33212694525719
631,1798429399,-1.62542498111725,0.01865017972887,20.84406852722168,-0.02229910530150,-0.35650765895844,9.79747486114502,-5.49734020233154,0.12617573142052,-0.34362778067589
632,1798437732,-1.62605118751526,0.01866933703423,20.84379768371582,0.01218425203115,-0.35139113664627,9.81965065002441,-5.45955848693848,0.09572040289640,-0.41693571209908
633,1798446065,-1.62610638141632,0.01885986141860,20.84337425231934,-0.00149172078818,-0.33610296249390,9.77677440643311,-5.41560459136963,0.11536649614573,-0.42964035272598
634,1798454398,-1.62643182277679,0.01864281669259,20.84341049194336,0.00016477439203,-0.36370894312859,9.80687713623047,-5.42517185211182,0.06655859202147,-0.38695424795151
635,1798462731,-1.62669050693512,0.01868473179638,20.84440612792969,0.00771293928847,-0.36770761013031,9.79058170318604,-5.44047689437866,0.09123791754246,-0.26125240325928
636,1798471064,-1.62707185745239,0.01936756446958,20.84440231323242,0.00672950036824,-0.35650697350502,9.78321266174316,-5.43046140670776,0.17663575708866,-0.43222740292549
637,1798479397,-1.62745285034180,0.01903448440135,20.84450531005859,-0.00782779417932,-0.36287906765938,9.77825260162354,-5.45525598526001,0.04946108907461,-0.36952376365662
638,1798487730,-1.62792539596558,0.01960982196033,20.84469223022461,-0.00214609643444,-0.35418477654457,9.78063011169434,-5.44019460678101,0.16108793020248,-0.33722418546677
639,1798496063,-1.62783920764923,0.01950480788946,20.84473991394043,0.00313953706063,-0.36537450551987,9.77333641052246,-5.39864826202393,0.07761112600565,-0.37497958540916
640,1798504396,-1.62806808948517,0.01981926336884,20.84523010253906,0.00728757400066,-0.35385781526566,9.81341838836670,-5.41194248199463,0.12960803508759,-0.35479563474655
641,1798512729,-1.62826693058014,0.01936195977032,20.84545898437500,0.01267465204000,-0.37709975242615,9.79675102233887,-5.43374013900757,0.03498904407024,-0.35446256399155
642,1798521062,-1.62855041027069,0.01925289072096,20.84607315063477,0.00257341749966,-0.38676571846008,9.79243373870850,-5.41896009445190,0.07863569259644,-0.33463716506958
643,1798529395,-1.62810921669006,0.01934883370996,20.84574508666992,0.00925874523818,-0.35490691661835,9.81644248962402,-5.35628271102905,0.10325098037720,-0.41944593191147
644,1798537728,-1.62790000438690,0.01944971270859,20.84494590759277,-0.01439596805722,-0.36797627806664,9.78238296508789,-5.36114931106567,0.10640154033899,-0.46155568957329
645,1798546061,-1.62824809551239,0.01931847073138,20.84512710571289,-0.00213031168096,-0.35049352049828,9.81443595886230,-5.45010709762573,0.07456304132938,-0.35802298784256
646,1798554394,-1.62858033180237,0.01905348151922,20.84477806091309,-0.00862163212150,-0.36306074261665,9.81245708465576,-5.42623424530029,0.06224258616567,-0.44623842835426
647,1798562727,-1.62825763225555,0.01801059767604,20.84451484680176,-0.01093879621476,-0.36504524946213,9.78515911102295,-5.36965370178223,-0.03328569978476,-0.41501468420029
648,1798571060,-1.62836444377899,0.01751951687038,20.84502410888672,0.00769789842889,-0.37460848689079,9.77925491333008,-5.39916038513184,0.03114691004157,-0.32556971907616
649,1798579393,-1.62846279144287,0.01713875867426,20.84515571594238,0.00897644832730,-0.35137462615967,9.76614665985107,-5.42026710510254,0.04528596624732,-0.36560475826263
650,1798587726,-1.62812423706055,0.01753856614232,20.84507560729980,0.03033285960555,-0.36091962456703,9.78812217712402,-5.34480714797974,0.14110882580280,-0.40264296531677
651,1798596059,-1.62822830677032,0.01727128028870,20.84442901611328,-0.01037311181426,-0.35783043503761,9.80420494079590,-5.42182922363281,0.06106434017420,-0.45966026186943
652,1798604392,-1.62749898433685,0.01734518632293,20.84531402587891,0.00154701294377,-0.35855048894882,9.80556774139404,-5.29926490783691,0.09915269911289,-0.31937110424042
653,1798612725,-1.62722229957581,0.01755879074335,20.84542274475098,-0.01513530965894,-0.37757468223572,9.81697750091553,-5.37467288970947,0.11710827797651,-0.36614269018173
654,1798621058,-1.62722003459930,0.01700228825212,20.84595680236816,-0.00352015811950,-0.36157149076462,9.81641864776611,-5.38427782058716,0.02387246489525,-0.33099994063377
655,1798629391,-1.62726831436157,0.01683302596211,20.84612083435059,-0.00156084157061,-0.38344174623489,9.79777145385742,-5.41573286056519,0.06882545351982,-0.36194196343422
656,1798637724,-1.62774348258972,0.01801657304168,20.84624099731445,-0.00176461460069,-0.36014673113823,9.77810287475586,-5.44344758987427,0.23439584672451,-0.38202354311943
657,1798646057,-1.62792897224426,0.01908459141850,20.84559440612793,-0.01493765041232,-0.35907736420631,9.80079936981201,-5.43061494827271,0.22151191532612,-0.45433250069618
658,1798654390,-1.62802624702454,0.01845663972199,20.84514808654785,-0.00999439414591,-0.36520710587502,9.82694721221924,-5.39649677276611,0.01816049218178,-0.41724309325218
659,1798662723,-1.62770199775696,0.01852414198220,20.84506225585938,-0.01332653779536,-0.38025280833244,9.76343727111816,-5.36906385421753,0.09925515949726,-0.39175695180893
660,1798671056,-1.62741351127625,0.01913320273161,20.84437561035156,0.00013892531570,-0.36847740411758,9.77505874633789,-5.35159444808960,0.16782446205616,-0.46716520190239
661,1798679389,-1.62741291522980,0.02044096961617,20.84434127807617,-0.01253380067647,-0.34721833467484,9.78734111785889,-5.40981626510620,0.24763840436935,-0.38184422254562
662,1798687722,-1.62802040576935,0.02053445950150,20.84334373474121,-0.00103341019712,-0.34532848000526,9.79831600189209,-5.45733070373535,0.10430116206408,-0.39554789662361
663,1798696055,-1.62735760211945,0.02064945176244,20.84327888488770,-0.00553633086383,-0.34991556406021,9.79741668701172,-5.32869625091553,0.10530012845993,-0.38689023256302
664,1798704388,-1.62759339809418,0.02053683251143,20.84362030029297,0.01494175847620,-0.36361762881279,9.80355072021484,-5.41441440582275,0.07934010028839,-0.42281422019005
665,1798712721,-1.62732565402985,0.02084800787270,20.84364128112793,0.01353330630809,-0.36171424388885,9.78217124938965,-5.37688970565796,0.12782785296440,-0.37778437137604
666,1798721054,-1.62692940235138,0.02128316275775,20.84288024902344,0.01926461793482,-0.35584715008736,9.79582786560059,-5.33694362640381,0.14776852726936,-0.48437803983688
667,1798729387,-1.62635707855225,0.02118700742722,20.84343338012695,0.01201297063380,-0.34354686737061,9.79415798187256,-5.34050416946411,0.07761113345623,-0.31560581922531
668,1798737720,-1.62666118144989,0.02151205390692,20.84453010559082,-0.01916378736496,-0.38845700025558,9.79849147796631,-5.42285394668579,0.12848101556301,-0.27705639600754
669,1798746053,-1.62712419033051,0.02107577584684,20.84404373168945,0.01520496979356,-0.36157935857773,9.78145122528076,-5.46425962448120,0.04058576002717,-0.43964272737503
670,1798754386,-1.62668204307556,0.02121942304075,20.84510612487793,-0.00786411855370,-0.35587698221207,9.78232192993164,-5.33144903182983,0.10536415129900,-0.25952342152596
671,1798762719,-1.62632489204407,0.02152344770730,20.84546852111816,0.00741713726893,-0.36027377843857,9.78207874298096,-5.36575937271118,0.12632942199707,-0.33668634295464
672,1798771052,-1.62651658058167,0.02088698744774,20.84579277038574,0.00627143308520,-0.33392646908760,9.77403450012207,-5.40935516357422,0.01424151472747,-0.35118395090103
673,1798779385,-1.62644934654236,0.01965998113155,20.84535217285156,-0.01314154732972,-0.35663452744484,9.83365249633789,-5.40161991119385,-0.05449428036809,-0.43852853775024
674,1798787718,-1.62752270698547,0.02060297317803,20.84550285339355,-0.01159930787981,-0.36321756243706,9.79918289184570,-5.51310539245605,0.20500352978706,-0.35275927186012
675,1798796051,-1.62684965133667,0.02073560282588,20.84584617614746,-0.01805438287556,-0.35951933264732,9.77935218811035,-5.32918262481689,0.10496713221073,-0.34047722816467
676,1798804384,-1.62681937217712,0.02130554988980,20.84496688842773,-0.01718885824084,-0.35392120480537,9.77062988281250,-5.38130760192871,0.16385427117348,-0.47162210941315
677,1798812717,-1.62622809410095,0.02172269858420,20.84506416320801,-0.01651963405311,-0.35031652450562,9.79283142089844,-5.33730220794678,0.14087828993797,-0.36831983923912
678,1798821050,-1.62582218647003,0.02073784358799,20.84560775756836,-0.00072239880683,-0.36129704117775,9.80436515808105,-5.33689260482788,-0.02777864038944,-0.35484680533409
679,1798829383,-1.62602162361145,0.02127972058952,20.84590148925781,-0.00172764540184,-0.36095523834229,9.79794406890869,-5.43289470672607,0.15558087825775,-0.34339728951454
680,1798837716,-1.62680411338806,0.02061410062015,20.84633827209473,0.00523005984724,-0.37431254982948,9.78769016265869,-5.47869300842285,0.01160324830562,-0.35904753208160
681,1798846049,-1.62677180767059,0.02142387628555,20.84587478637695,-0.00827288441360,-0.35416874289513,9.79808330535889,-5.40512895584106,0.18957096338272,-0.43381547927856
682,1798854382,-1.62608158588409,0.02134626358747,20.84602737426758,0.00864191539586,-0.37679609656334,9.81658363342285,-5.30200624465942,0.08222170174122,-0.36160898208618
683,1798862715,-1.62593352794647,0.02103250287473,20.84623336791992,-0.00096380803734,-0.36308330297470,9.80567455291748,-5.39150190353394,0.05212496966124,-0.35812547802925
684,1798871048,-1.62604570388794,0.02101854793727,20.84646606445312,0.01098387502134,-0.35388141870499,9.79298210144043,-5.39831542968750,0.09018773585558,-0.35909879207611
685,1798879381,-1.62658274173737,0.02029260061681,20.84633636474609,-0.00216074590571,-0.35892611742020,9.78434848785400,-5.47259712219238,0.00461056223139,-0.39826297760010
686,1798887714,-1.62617671489716,0.01946761459112,20.84564590454102,-0.02587777189910,-0.36999726295471,9.79457092285156,-5.33722543716431,-0.00562232453376,-0.44011658430099
687,1798896047,-1.62620663642883,0.01988793909550,20.84655761718750,-0.01910782419145,-0.35250931978226,9.78613758087158,-5.41245460510254,0.13918775320053,-0.26967948675156
688,1798904380,-1.62676584720612,0.02016336098313,20.84709548950195,-0.00704848067835,-0.37777730822563,9.80295276641846,-5.45229768753052,0.12321728467941,-0.32770854234695
689,1798912713,-1.62657153606415,0.02098474465311,20.84644126892090,0.00292727164924,-0.37702041864395,9.80340194702148,-5.38488054275513,0.19183780252934,-0.45629197359085
