sep=,
DeviceTag:,Xsens DOT
FirmwareVersion:,3.0.0
AppVersion:,2023.6.0
StartTime: ,2025-04-11_11:49:50_000 PDT
© Movella Technologies B. V. 2005-2025

PacketCounter,SampleTimeFine,Euler_X,Euler_Y,Euler_Z,Acc_X,Acc_Y,Acc_Z,Gyr_X,Gyr_Y,Gyr_Z
0,955546477,1.25100994110107,-0.95937776565552,69.89997100830078,0.00000000000000,0.00000000000000,0.00000000000000,0.00000000000000,0.00000000000000,0.00000000000000
1,955554810,1.25245094299316,-0.96722620725632,69.89128112792969,0.15661865472794,0.24823941290379,9.75064849853516,0.15569612383842,-0.96394044160843,-1.02129077911377
2,955563143,1.25452089309692,-0.97556149959564,69.88236236572266,0.17261239886284,0.23933412134647,9.76525402069092,0.23113003373146,-1.02456939220428,-1.04757094383240
3,955571476,1.29342794418335,-0.98717856407166,69.85627746582031,0.16674707829952,0.21587994694710,9.79270648956299,0.25402918457985,-1.03604459762573,-1.13117587566376
4,955579809,1.29518985748291,-0.99544882774353,69.84780883789062,0.16812035441399,0.24373348057270,9.73956203460693,0.19509080052376,-1.01639831066132,-0.99344801902771
5,955588142,1.31644737720490,-1.00769269466400,69.83692932128906,0.18049496412277,0.25318884849548,9.74501132965088,0.32946309447289,-0.96383798122406,-1.00008213520050
6,955596475,1.31745350360870,-1.01585328578949,69.82736968994141,0.18370646238327,0.23355463147163,9.75961780548096,0.09990832954645,-1.00502586364746,-1.12451601028442
7,955604808,1.34647011756897,-1.02974021434784,69.80580139160156,0.17780536413193,0.20441395044327,9.75044822692871,0.16217651963234,-0.92300891876221,-1.09508526325226
8,955613141,1.34905660152435,-1.03749680519104,69.79631042480469,0.21203887462616,0.22121597826481,9.76868057250977,0.29004281759262,-0.95730650424957,-1.11647331714630
9,955621474,1.35718774795532,-1.05305302143097,69.78946685791016,0.21691717207432,0.27293065190315,9.75580501556396,0.11481581628323,-1.08204770088196,-1.03107547760010
10,955629807,1.35825812816620,-1.06169736385345,69.77954864501953,0.23859022557735,0.24569299817085,9.74475383758545,0.10651677846909,-1.06568014621735,-1.16547334194183
11,955638140,1.36871778964996,-1.08769953250885,69.77622985839844,0.22003576159477,0.20373442769051,9.76491069793701,0.09189107269049,-1.00008213520050,-0.94744491577148
12,955646473,1.37063825130463,-1.09600102901459,69.76718902587891,0.22503559291363,0.22953473031521,9.76667785644531,0.20981900393963,-1.02129077911377,-1.06232464313507
13,955654806,1.37536394596100,-1.12725889682770,69.74392700195312,0.21530057489872,0.27928274869919,9.74650001525879,0.20016242563725,-1.08355891704559,-0.96394044160843
14,955663139,1.37618350982666,-1.13623714447021,69.73439788818359,0.22060798108578,0.22283251583576,9.74648571014404,0.07539549469948,-1.10343563556671,-1.11788213253021
15,955671472,1.38377761840820,-1.16351950168610,69.72670745849609,0.22223167121410,0.19552296400070,9.75561237335205,0.18691988289356,-0.98850446939468,-0.97052335739136
16,955679805,1.38639616966248,-1.17129099369049,69.71764373779297,0.23637296259403,0.23615792393684,9.78114795684814,0.29329583048820,-0.95722967386246,-1.06411790847778
17,955688138,1.38783621788025,-1.19547569751740,69.70460510253906,0.24482035636902,0.27872481942177,9.75177097320557,0.22119171917439,-1.02784788608551,-1.13120126724243
18,955696471,1.38871419429779,-1.20327889919281,69.69521331787109,0.23716680705547,0.25342524051666,9.75543308258057,0.08179905265570,-0.96411973237991,-1.10476756095886
19,955704804,1.39279687404633,-1.22706544399261,69.69919586181641,0.21676690876484,0.20957115292549,9.78661251068115,0.18041385710239,-1.06065976619720,-1.04424107074738
20,955713137,1.39444601535797,-1.23518037796021,69.69013977050781,0.23092238605022,0.24652989208698,9.78285789489746,0.17370294034481,-1.00003099441528,-1.06065976619720
21,955721470,1.39650130271912,-1.25552618503571,69.70593261718750,0.22477808594704,0.27606397867203,9.75168514251709,0.10321255773306,-1.00343775749207,-1.07200694084167
22,955729803,1.39736783504486,-1.26393246650696,69.69644165039062,0.22273238003254,0.22130896151066,9.76085567474365,0.07859727740288,-1.03627502918243,-1.11457777023315
23,955738136,1.40136027336121,-1.28144776821136,69.69445037841797,0.19489344954491,0.19752612709999,9.74263095855713,0.13581947982311,-0.95259338617325,-1.11470603942871
24,955746469,1.40267241001129,-1.28996658325195,69.68544769287109,0.18157497048378,0.22150170803070,9.77010440826416,0.13284821808338,-1.04762208461761,-1.05563938617706
25,955754802,1.40392076969147,-1.30415081977844,69.68307495117188,0.17560230195522,0.24182331562042,9.76827239990234,0.13899564743042,-0.93945324420929,-1.14421343803406
26,955763135,1.40572869777679,-1.31236124038696,69.67413330078125,0.16052401065826,0.24200965464115,9.79394531250000,0.19345150887966,-1.01142930984497,-1.04923582077026
27,955771468,1.40670025348663,-1.32393097877502,69.68153381347656,0.15992325544357,0.25142243504524,9.76278686523438,0.15438978374004,-1.13614499568939,-1.05072152614594
28,955779801,1.40836298465729,-1.33245563507080,69.67309570312500,0.16347107291222,0.22605130076408,9.76825141906738,0.17562401294708,-1.04751980304718,-0.98691654205322
29,955788134,1.41042232513428,-1.33998930454254,69.69125366210938,0.17028057575226,0.24465584754944,9.75720024108887,0.22475209832191,-1.10315382480621,-1.07712984085083
30,955796467,1.41242706775665,-1.34809994697571,69.68101501464844,0.16814893484116,0.27064254879951,9.78461742401123,0.21107406914234,-1.00323259830475,-1.20502161979675
31,955804800,1.41376280784607,-1.35232985019684,69.66989898681641,0.16210487484932,0.22325453162193,9.71325302124023,0.15874420106411,-0.98204964399338,-1.12292790412903
32,955813133,1.41532158851624,-1.36073160171509,69.66136932373047,0.15645420551300,0.20886266231537,9.76088428497314,0.16248388588428,-1.03279149532318,-0.99834036827087
33,955821466,1.41722893714905,-1.36294734477997,69.65087890625000,0.15402932465076,0.25306043028831,9.76998996734619,0.19324661791325,-0.92946380376816,-1.04109060764313
34,955829799,1.41815757751465,-1.37082087993622,69.64117431640625,0.14237017929554,0.26792404055595,9.76086997985840,0.08328469097614,-0.97405821084976,-1.14075553417206
35,955838132,1.41858088970184,-1.37263309955597,69.62415313720703,0.15500925481319,0.21319048106670,9.76082706451416,0.05736307799816,-1.05446112155914,-1.10622763633728
36,955846465,1.42009460926056,-1.38085496425629,69.61486816406250,0.18030893802643,0.19694600999355,9.74970436096191,0.15400560200214,-1.01317119598389,-1.09011626243591
37,955854798,1.42259550094604,-1.38167154788971,69.61588287353516,0.18119581043720,0.29059854149818,9.75873088836670,0.30520638823509,-1.07169950008392,-1.01678252220154
38,955863131,1.42364549636841,-1.39047396183014,69.60723876953125,0.17008030414581,0.25068569183350,9.75330924987793,0.10034375637770,-1.08217573165894,-1.01122438907623
39,955871464,1.42472434043884,-1.39124166965485,69.59923553466797,0.20682445168495,0.18882790207863,9.76229286193848,0.12129621207714,-1.06250405311584,-1.10476756095886
40,955879797,1.42693960666656,-1.40026783943176,69.59033203125000,0.21716031432152,0.24771010875702,9.77678489685059,0.23968519270420,-1.10960865020752,-1.04119300842285
41,955888130,1.42859411239624,-1.40110003948212,69.60874938964844,0.22580799460411,0.27376112341881,9.76933956146240,0.25420847535133,-1.03576290607452,-1.03468704223633
42,955896463,1.42942392826080,-1.41061997413635,69.60014343261719,0.22357641160488,0.26311731338501,9.75651359558105,0.07280846685171,-1.16918730735779,-1.00289976596832
43,955904796,1.43059849739075,-1.41289055347443,69.60361480712891,0.22736741602421,0.21017198264599,9.75285816192627,0.13448753952980,-1.09851765632629,-1.11460340023041
44,955913129,1.43239712715149,-1.42124617099762,69.59512329101562,0.22542884945869,0.22690317034721,9.79861450195312,0.19042904675007,-1.02777123451233,-0.99518996477127
45,955921462,1.43361711502075,-1.42375981807709,69.59472656250000,0.24273164570332,0.25472745299339,9.74165058135986,0.15223820507526,-1.03455889225006,-1.12456727027893
46,955929795,1.43565690517426,-1.43244862556458,69.58554840087891,0.22609421610832,0.22738172113895,9.74727249145508,0.21811804175377,-1.07031643390656,-1.07392799854279
47,955938128,1.43729329109192,-1.43610465526581,69.57061004638672,0.23660880327225,0.26077875494957,9.76543331146240,0.20344105362892,-1.07858979701996,-1.06731951236725
48,955946461,1.43876326084137,-1.44377350807190,69.56214141845703,0.22896964848042,0.25187304615974,9.75814437866211,0.15072695910931,-0.94598484039307,-0.99344801902771
49,955954794,1.43992412090302,-1.44738709926605,69.57012939453125,0.24311803281307,0.24489155411720,9.75435352325439,0.14611639082432,-1.00336074829102,-0.97536438703537
50,955963127,1.44128715991974,-1.45556402206421,69.56188964843750,0.22826868295670,0.24137268960476,9.78007507324219,0.13799667358398,-1.00661373138428,-0.96219873428345
51,955971460,1.44233775138855,-1.45930826663971,69.56851196289062,0.22366224229336,0.27263775467873,9.74891757965088,0.11945199221373,-0.96250623464584,-1.04413866996765
52,955979793,1.44357085227966,-1.46753525733948,69.55934906005859,0.23453462123871,0.22347590327263,9.74521160125732,0.11955443024635,-1.01496398448944,-1.07523429393768
53,955988126,1.44555902481079,-1.47143995761871,69.51868438720703,0.19759736955166,0.21237471699715,9.74916076660156,0.21107409894466,-0.95228600502014,-1.07894837856293
54,955996459,1.44780814647675,-1.47957718372345,69.50948333740234,0.20031537115574,0.28049159049988,9.76732826232910,0.24078664183617,-1.00464153289795,-1.07899951934814
55,956004792,1.44804918766022,-1.48391842842102,69.51042938232422,0.18002992868423,0.25321742892265,9.77483940124512,0.04248120263219,-0.99403715133667,-1.05522942543030
56,956013125,1.44977152347565,-1.49216842651367,69.50128173828125,0.17221184074879,0.22020742297173,9.73648548126221,0.17695592343807,-1.01803767681122,-1.07054686546326
57,956021458,1.45194602012634,-1.49687945842743,69.52535247802734,0.16455841064453,0.23509210348129,9.76214981079102,0.24119645357132,-1.06690967082977,-1.05768847465515
58,956029791,1.45385909080505,-1.50590109825134,69.51613616943359,0.17299158871174,0.26480498909950,9.75103473663330,0.20031611621380,-1.11135029792786,-1.07715547084808
59,956038124,1.45493161678314,-1.51003193855286,69.52935791015625,0.17302727699280,0.23764605820179,9.76020431518555,0.13131137192249,-1.04775023460388,-1.04244816303253
60,956046457,1.45641016960144,-1.51795005798340,69.52031707763672,0.16772708296776,0.21037906408310,9.79323577880859,0.14893396198750,-0.97882235050201,-1.06227350234985
61,956054790,1.45859646797180,-1.52095580101013,69.53618621826172,0.17003738880157,0.26917579770088,9.76014709472656,0.25702601671219,-0.95041614770889,-1.05622851848602
62,956063123,1.45984423160553,-1.52900111675262,69.52759552001953,0.15666157007217,0.27308839559555,9.76024723052979,0.12303797155619,-0.99367856979370,-1.00638329982758
63,956071456,1.46068596839905,-1.53197944164276,69.52830505371094,0.14719834923744,0.24384756386280,9.74572753906250,0.10126587003469,-0.98566138744354,-1.09808230400085
64,956079789,1.46256291866302,-1.54020166397095,69.51966094970703,0.17297711968422,0.20217548310757,9.76383876800537,0.19688381254673,-1.01460540294647,-1.01493835449219
65,956088122,1.46535408496857,-1.54344630241394,69.54092407226562,0.15025262534618,0.24803198873997,9.77862262725830,0.32326444983482,-1.06316995620728,-1.03681290149689
66,956096455,1.46733665466309,-1.55108928680420,69.53191375732422,0.16242675483227,0.26326039433479,9.76562595367432,0.20940919220448,-0.94572871923447,-1.05930221080780
67,956104788,1.46872282028198,-1.55351996421814,69.52740478515625,0.17696133255959,0.21975679695606,9.76004695892334,0.17344680428505,-0.99841719865799,-1.09513664245605
68,956113121,1.47008883953094,-1.56155085563660,69.51792907714844,0.17648924887180,0.22001428902149,9.75821590423584,0.13400086760521,-0.99372977018356,-1.11460340023041
69,956121454,1.47106063365936,-1.56450152397156,69.52445220947266,0.20158141851425,0.24616509675980,9.77619838714600,0.12631659209728,-1.07902514934540,-1.09810781478882
70,956129787,1.47248721122742,-1.57303702831268,69.51651763916016,0.20670995116234,0.24274636805058,9.77062702178955,0.14514306187630,-1.05087518692017,-0.92772197723389
71,956138120,1.47378444671631,-1.57544171810150,69.52666473388672,0.21776829659939,0.22296841442585,9.78883743286133,0.18020895123482,-1.00981557369232,-1.06565463542938
72,956146453,1.47523677349091,-1.58362901210785,69.51792907714844,0.22980654239655,0.23067203164101,9.76486110687256,0.14434903860092,-1.01163423061371,-1.02613186836243
73,956154786,1.47638249397278,-1.58622431755066,69.51366424560547,0.21876254677773,0.21615175902843,9.78330802917480,0.16840077936649,-1.01486158370972,-1.13442885875702
74,956163119,1.47795128822327,-1.59458553791046,69.50464630126953,0.23439151048660,0.25137236714363,9.78121185302734,0.15907721221447,-1.03450787067413,-1.06063413619995
75,956171452,1.47833156585693,-1.59703791141510,69.53812408447266,0.23412680625916,0.23512859642506,9.77571201324463,0.09501600265503,-0.96762895584106,-1.00948250293732
76,956179785,1.47974145412445,-1.60537648200989,69.52893829345703,0.24467730522156,0.20790453255177,9.75182819366455,0.13927739858627,-1.03302192687988,-1.07851290702820
77,956188118,1.48103904724121,-1.60807955265045,69.51776123046875,0.24069316685200,0.23010696470737,9.78111171722412,0.20482422411442,-0.96860224008560,-1.01670575141907
78,956196451,1.48236584663391,-1.61630511283875,69.50912475585938,0.22851186990738,0.25767400860786,9.75003337860107,0.12972329556942,-1.01826834678650,-1.01780712604523
79,956204784,1.48345518112183,-1.62040913105011,69.51507568359375,0.21935623884201,0.23947718739510,9.76664924621582,0.19396378099918,-1.10645806789398,-1.06078779697418
80,956213117,1.48593187332153,-1.62882554531097,69.50584411621094,0.23962023854256,0.22356925904751,9.78289318084717,0.26716926693916,-1.04208946228027,-1.08750343322754
81,956221450,1.48672938346863,-1.63274455070496,69.50112915039062,0.22784665226936,0.23844002187252,9.76649188995361,0.15254558622837,-1.07070064544678,-1.09165310859680
82,956229783,1.48801362514496,-1.64111328125000,69.49098968505859,0.21989984810352,0.25503462553024,9.76105594635010,0.11888846009970,-1.03986096382141,-1.19480156898499
83,956238116,1.48863780498505,-1.64504551887512,69.48773956298828,0.22145207226276,0.24425490200520,9.75920295715332,0.14122407138348,-1.05266809463501,-1.05064463615417
84,956246449,1.49100327491760,-1.65278112888336,69.47861480712891,0.21354812383652,0.23515686392784,9.73365974426270,0.25192877650261,-0.96181446313858,-1.07605397701263
85,956254782,1.49178278446198,-1.65648007392883,69.48484039306641,0.21337646245956,0.23007833957672,9.75379562377930,0.15231505036354,-1.01496398448944,-1.07208395004272
86,956263115,1.49358475208282,-1.66422116756439,69.47662353515625,0.17792689800262,0.25180903077126,9.75969028472900,0.18871288001537,-0.96045696735382,-0.96583592891693
87,956271448,1.49446761608124,-1.66865777969360,69.47460174560547,0.19957862794399,0.25057125091553,9.77039051055908,0.16929729282856,-1.10171949863434,-1.07700169086456
88,956279781,1.49576306343079,-1.67622387409210,69.46558380126953,0.17023044824600,0.23944178223610,9.77810859680176,0.12401131540537,-0.94298797845840,-1.06214547157288
89,956288114,1.49697005748749,-1.67964363098145,69.47843933105469,0.14958025515079,0.23749583959579,9.77838706970215,0.20277509093285,-0.99165511131287,-1.10686790943146
90,956296447,1.49944746494293,-1.68745124340057,69.46977996826172,0.16022367775440,0.22878368198872,9.77641963958740,0.26714360713959,-0.96980607509613,-1.01716673374176
91,956304780,1.50046515464783,-1.69048595428467,69.46624755859375,0.14284227788448,0.23987059295177,9.75830936431885,0.18323142826557,-0.97047215700150,-1.06414353847504
92,956313113,1.50212907791138,-1.69935274124146,69.45685577392578,0.17725460231304,0.23329712450504,9.75782966613770,0.16747865080833,-1.10013127326965,-1.10320496559143
93,956321446,1.50408518314362,-1.70208561420441,69.43099212646484,0.15854991972446,0.22959195077419,9.74893188476562,0.29995548725128,-0.95968866348267,-0.99941611289978
94,956329779,1.50623321533203,-1.70959734916687,69.42250823974609,0.15427966415882,0.23360469937325,9.74531173706055,0.22931143641472,-0.93561118841171,-0.99892938137054
95,956338112,1.50762808322906,-1.71277678012848,69.41148376464844,0.16456545889378,0.24507786333561,9.74513339996338,0.23387077450752,-1.03248417377472,-1.15294790267944
96,956346445,1.50872206687927,-1.72061908245087,69.40283203125000,0.17015182971954,0.24375458061695,9.77800083160400,0.10165008157492,-0.97761851549149,-1.01760220527649
97,956354778,1.50977349281311,-1.72331964969635,69.39241790771484,0.16651818156242,0.21454952657223,9.78179168701172,0.19670450687408,-0.99001574516296,-1.03468692302704
98,956363111,1.51111197471619,-1.73114097118378,69.38359832763672,0.16124653816223,0.24394056200981,9.73416805267334,0.13097839057446,-0.97577428817749,-1.03914380073547
99,956371444,1.51256394386292,-1.73425102233887,69.40551757812500,0.17033064365387,0.23516401648521,9.75236511230469,0.24931615591049,-1.05520391464233,-1.07602834701538
100,956379777,1.51333677768707,-1.74197328090668,69.39701843261719,0.18706117570400,0.21201708912849,9.76864433288574,0.06230662763119,-0.96481138467789,-0.99926245212555
101,956388110,1.51471543312073,-1.74502456188202,69.38790893554688,0.17944337427616,0.21752510964870,9.78704929351807,0.24096590280533,-1.06188941001892,-1.10381996631622
102,956396443,1.51588368415833,-1.75330042839050,69.37870025634766,0.20161712169647,0.26392599940300,9.75177192687988,0.10813048481941,-1.03338062763214,-1.08478844165802
103,956404776,1.51682686805725,-1.75567638874054,69.36392974853516,0.22390544414520,0.23153036832809,9.76430988311768,0.20123822987080,-0.98671156167984,-1.07410728931427
104,956413109,1.51941299438477,-1.76364529132843,69.35527801513672,0.24718783795834,0.22668109834194,9.75479793548584,0.27879813313484,-0.99424213171005,-1.01895987987518
105,956421442,1.52048695087433,-1.76652169227600,69.35923767089844,0.23138740658760,0.27262309193611,9.75855255126953,0.21530044078827,-1.03901576995850,-1.00858604907990
106,956429775,1.52173924446106,-1.77437043190002,69.35029602050781,0.23151606321335,0.24364729225636,9.76044750213623,0.11776144057512,-0.98251086473465,-1.05374407768250
107,956438108,1.52368032932281,-1.77716183662415,69.35462188720703,0.23502811789513,0.22007152438164,9.75677776336670,0.31491419672966,-1.01524567604065,-1.03402101993561
108,956446441,1.52594864368439,-1.78553116321564,69.34551239013672,0.23579347133636,0.24798190593719,9.74567699432373,0.23950590193272,-1.04541933536530,-1.07105910778046
109,956454774,1.52682507038116,-1.78875315189362,69.33895111083984,0.22113730013371,0.28303799033165,9.80439472198486,0.18871288001537,-1.05735552310944,-1.07554173469543
110,956463107,1.52798140048981,-1.79734575748444,69.33049011230469,0.23067203164101,0.21015052497387,9.77331542968750,0.10918067395687,-1.07108473777771,-0.99452388286591
111,956471440,1.52842247486115,-1.80078840255737,69.32469177246094,0.20103059709072,0.19508706033230,9.75735092163086,0.12795591354370,-1.07597708702087,-1.10451138019562
112,956479773,1.53031671047211,-1.80852913856506,69.31549835205078,0.20344839990139,0.25577816367149,9.76627731323242,0.19445046782494,-0.97372519969940,-1.08555698394775
113,956488106,1.53074371814728,-1.81225073337555,69.31275939941406,0.23454165458679,0.24384796619415,9.78042602539062,0.14199252426624,-1.10525429248810,-1.02920567989349
114,956496439,1.53181600570679,-1.82131052017212,69.30241394042969,0.23047891259193,0.22375524044037,9.75307273864746,0.09148123860359,-1.13547909259796,-1.21721398830414
115,956504772,1.53263795375824,-1.82427608966827,69.30220794677734,0.22154501080513,0.23116557300091,9.78798580169678,0.18927639722824,-1.00963628292084,-0.95922750234604
116,956513105,1.53391611576080,-1.83275830745697,69.29247283935547,0.22595830261707,0.23324705660343,9.75309467315674,0.11765898764133,-1.06632053852081,-1.14705669879913
117,956521438,1.53420090675354,-1.83540999889374,69.29486846923828,0.21736058592796,0.22972786426544,9.80085372924805,0.12565062940121,-0.97103559970856,-1.07021391391754
118,956529771,1.53604626655579,-1.84336972236633,69.28636932373047,0.18690386414528,0.22741714119911,9.76110553741455,0.19045464694500,-0.99987727403641,-1.00190067291260
119,956538104,1.53673887252808,-1.84650921821594,69.27915954589844,0.17716869711876,0.24768190085888,9.77403163909912,0.17672540247440,-1.02800166606903,-1.10340988636017
120,956546437,1.53804266452789,-1.85445225238800,69.27051544189453,0.14591799676418,0.22535032033920,9.76733589172363,0.12639345228672,-1.00046634674072,-1.02100908756256
121,956554770,1.53893327713013,-1.85743582248688,69.27643585205078,0.13868647813797,0.22180250287056,9.79312133789062,0.19724240899086,-1.02300679683685,-1.18394112586975
122,956563103,1.54144132137299,-1.86492538452148,69.26679229736328,0.14214117825031,0.28250905871391,9.76722240447998,0.26742544770241,-0.94849514961243,-1.14042258262634
123,956571436,1.54198205471039,-1.86755788326263,69.26780700683594,0.14596799015999,0.25183051824570,9.77273654937744,0.16540393233299,-1.00018477439880,-1.05907189846039
124,956579769,1.54326379299164,-1.87561762332916,69.25851440429688,0.17389270663261,0.19397118687630,9.75959014892578,0.12091198563576,-1.01706433296204,-1.09634041786194
125,956588102,1.54482066631317,-1.87781262397766,69.26528167724609,0.15754136443138,0.24505640566349,9.74506855010986,0.27961778640747,-0.96957558393478,-1.08150982856750
126,956596435,1.54530441761017,-1.88470280170441,69.25587463378906,0.15844263136387,0.27112135291100,9.74862384796143,0.02426948584616,-0.87872195243835,-1.11693429946899
127,956604768,1.54462265968323,-1.88710272312164,69.26497650146484,0.15415091812611,0.21808302402496,9.78918075561523,0.01996629498899,-1.00484645366669,-1.01340162754059
128,956613101,1.54618585109711,-1.89518439769745,69.25650024414062,0.15350715816021,0.18314854800701,9.74170017242432,0.15633650124073,-1.01983070373535,-0.99995410442352
129,956621434,1.54689228534698,-1.89742958545685,69.25517272949219,0.16868558526039,0.25519159436226,9.77045440673828,0.18302650749683,-1.00497448444366,-1.10681653022766
130,956629767,1.54806339740753,-1.90505445003510,69.24662780761719,0.17293427884579,0.27010565996170,9.74467563629150,0.10979541391134,-0.96624583005905,-1.01107072830200
131,956638100,1.54797852039337,-1.90705442428589,69.24710083007812,0.17982962727547,0.20088759064674,9.76860141754150,0.09693706780672,-0.98765933513641,-1.00761282444000
132,956646433,1.55045115947723,-1.91534519195557,69.23743438720703,0.18421442806721,0.23039981722832,9.76657009124756,0.26184150576591,-1.05174589157104,-1.14359879493713
133,956654766,1.55161082744598,-1.91793417930603,69.23227691650391,0.19457878172398,0.25851804018021,9.78273582458496,0.24624243378639,-1.06821596622467,-1.07948625087738
134,956663099,1.55325615406036,-1.92511916160583,69.22389984130859,0.20757550001144,0.23534284532070,9.78437423706055,0.16681270301342,-0.91645175218582,-0.99367856979370
135,956671432,1.55479311943054,-1.92715501785278,69.22162628173828,0.20559416711330,0.19517247378826,9.76258659362793,0.28968420624733,-1.00879108905792,-1.09969604015350
136,956679765,1.55695116519928,-1.93548679351807,69.21200561523438,0.24380464851856,0.25862532854080,9.74690723419189,0.22423984110355,-1.05871331691742,-1.13827097415924
137,956688098,1.55673885345459,-1.93810403347015,69.20632934570312,0.24909774959087,0.27196538448334,9.76871585845947,0.08789525181055,-1.07966566085815,-1.02700281143188
138,956696431,1.55854713916779,-1.94524681568146,69.19778442382812,0.23673763871193,0.23703090846539,9.77091979980469,0.18786762654781,-0.91463321447372,-1.01522028446198
139,956704764,1.55958664417267,-1.94789397716522,69.19015502929688,0.24153013527393,0.22084365785122,9.74707221984863,0.23207779228687,-1.07646381855011,-1.03343188762665
140,956713097,1.56095743179321,-1.95560681819916,69.18094635009766,0.24463437497616,0.24695190787315,9.76337337493896,0.13213102519512,-0.98584061861038,-1.08991122245789
141,956721430,1.56156253814697,-1.95749461650848,69.17578125000000,0.24432681500912,0.24348992109299,9.76704216003418,0.18102861940861,-0.98210108280182,-1.11337399482727
142,956729763,1.56323504447937,-1.96497523784637,69.16707611083984,0.22033624351025,0.23591472208500,9.77306556701660,0.17016817629337,-0.95909947156906,-1.03135716915131
143,956738096,1.56381011009216,-1.96672308444977,69.18001556396484,0.22515010833740,0.24909740686417,9.77840137481689,0.17974789440632,-0.95902252197266,-1.05277061462402
144,956746429,1.56556594371796,-1.97473216056824,69.17131805419922,0.22174528241158,0.21632343530655,9.77858734130859,0.17913316190243,-1.02459502220154,-1.02802729606628
145,956754762,1.56588387489319,-1.97744417190552,69.17143249511719,0.22996382415295,0.21851259469986,9.75641441345215,0.14983046054840,-1.07579779624939,-1.06204295158386
146,956763095,1.56794416904449,-1.98567581176758,69.16226196289062,0.22600838541985,0.28269466757774,9.74159240722656,0.21491625905037,-1.05379533767700,-1.08576190471649
147,956771428,1.56817996501923,-1.98792290687561,69.16464233398438,0.21603016555309,0.26277399063110,9.78401660919189,0.14432340860367,-1.02013802528381,-1.05720186233521
148,956779761,1.57005107402802,-1.99534738063812,69.15568542480469,0.20529374480247,0.21135935187340,9.76063346862793,0.19270870089531,-0.95725518465042,-1.06278586387634
149,956788094,1.57029664516449,-1.99733626842499,69.15734100341797,0.20635958015919,0.23184475302696,9.76968193054199,0.14114724099636,-0.99060499668121,-1.01952350139618
150,956796427,1.57208263874054,-2.00540924072266,69.14836883544922,0.19249016046524,0.31038331985474,9.74402427673340,0.18218125402927,-1.03773522377014,-1.06411790847778
151,956804760,1.57236564159393,-2.00747919082642,69.12765502929688,0.18758337199688,0.23007081449032,9.78476715087891,0.14878027141094,-1.00868856906891,-1.08842563629150
152,956813093,1.57368493080139,-2.01594972610474,69.11878967285156,0.16827772557735,0.18773391842842,9.79636287689209,0.12716184556484,-1.08591544628143,-1.05031156539917
153,956821426,1.57525694370270,-2.01872539520264,69.12476348876953,0.14774197340012,0.25697302818298,9.78556823730469,0.29726600646973,-1.10366618633270,-1.10305142402649
154,956829759,1.57627248764038,-2.02746963500977,69.11561584472656,0.14863607287407,0.25545662641525,9.75624847412109,0.08950895071030,-1.12090456485748,-1.08425045013428
155,956838092,1.57719981670380,-2.02986860275269,69.12306976318359,0.13682664930820,0.21136689186096,9.76587677001953,0.22723668813705,-1.07321071624756,-1.03345751762390
156,956846425,1.57945001125336,-2.03704428672791,69.11349487304688,0.14757029712200,0.20459276437759,9.76199245452881,0.23737993836403,-0.93555992841721,-1.14044821262360
157,956854758,1.58059859275818,-2.03842782974243,69.13629913330078,0.17671097815037,0.25138667225838,9.74830245971680,0.25566846132278,-0.97118932008743,-1.02088093757629
158,956863091,1.58147144317627,-2.04610347747803,69.12742614746094,0.15618947148323,0.23837564885616,9.73967552185059,0.07519058883190,-0.99644500017166,-1.05476868152618
159,956871424,1.58223426342010,-2.04704070091248,69.13352966308594,0.19510103762150,0.21935591101646,9.75714969635010,0.21245729923248,-0.93074452877045,-1.02705407142639
160,956879757,1.58418774604797,-2.05454754829407,69.12461090087891,0.18404980003834,0.23600804805756,9.79398059844971,0.20444001257420,-0.97843825817108,-1.06288826465607
161,956888090,1.58419072628021,-2.05628061294556,69.11820220947266,0.19384199380875,0.23826874792576,9.76625633239746,0.12270500510931,-1.04188466072083,-1.10604822635651
162,956896423,1.58562362194061,-2.06358718872070,69.10841369628906,0.17723314464092,0.21966381371021,9.75758647918701,0.13891878724098,-0.95817726850510,-1.16872632503510
163,956904756,1.58643281459808,-2.06439757347107,69.11181640625000,0.17448645830154,0.25834637880325,9.78130531311035,0.22370192408562,-0.93881291151047,-1.05502474308014
164,956913089,1.58779573440552,-2.07144880294800,69.10383605957031,0.19556587934494,0.25546377897263,9.76247882843018,0.13791984319687,-0.92498123645782,-0.95074909925461
165,956921422,1.58833038806915,-2.07263994216919,69.10768890380859,0.19796922802925,0.21911303699017,9.76991081237793,0.18968620896339,-0.99672663211823,-1.08235514163971
166,956929755,1.59116363525391,-2.08067059516907,69.09909057617188,0.20590901374817,0.23786026239395,9.75863838195801,0.31237840652466,-1.04744291305542,-1.02477443218231
167,956938088,1.59183704853058,-2.08190965652466,69.10451507568359,0.21026496589184,0.26587831974030,9.75656318664551,0.21179129183292,-1.00943136215210,-1.03017890453339
168,956946421,1.59328258037567,-2.08959102630615,69.09468841552734,0.23610812425613,0.25040000677109,9.76514720916748,0.13953351974487,-1.01071214675903,-1.17190229892731
169,956954754,1.59297382831573,-2.09120917320251,69.10411071777344,0.21690995991230,0.19512240588665,9.76222896575928,0.09107140451670,-1.06188929080963,-1.03673601150513
170,956963087,1.59582090377808,-2.09846091270447,69.09548950195312,0.22584398090839,0.24488440155983,9.74710750579834,0.31437629461288,-0.95725518465042,-1.02997386455536
171,956971420,1.59477937221527,-2.10032439231873,69.09529113769531,0.26014176011086,0.25177249312401,9.75352382659912,0.00736409192905,-1.09593069553375,-1.08309781551361
172,956979753,1.59597814083099,-2.10903882980347,69.08645629882812,0.24813927710056,0.21668823063374,9.76132774353027,0.11479018628597,-1.13540208339691,-1.05328309535980
173,956988086,1.59584784507751,-2.11045384407043,69.08758544921875,0.24563577771187,0.22038623690605,9.74853801727295,0.11578914523125,-1.04541921615601,-1.13873195648193
174,956996419,1.59845113754272,-2.11831569671631,69.07903289794922,0.22337624430656,0.26044180989265,9.79472446441650,0.28438201546669,-1.03299641609192,-1.02126514911652
175,957004752,1.59797060489655,-2.11852240562439,69.08039855957031,0.21196019649506,0.25867542624474,9.79135513305664,0.07764955610037,-0.90003293752670,-1.14183127880096
176,957013085,1.59960830211639,-2.12570095062256,69.07180786132812,0.21094448864460,0.18171082437038,9.76428890228271,0.17011693120003,-0.95589756965637,-1.02815532684326
177,957021418,1.60036337375641,-2.12699127197266,69.07386016845703,0.19162456691265,0.23806847631931,9.73521327972412,0.22600719332695,-1.03399550914764,-1.09923493862152
178,957029751,1.60249733924866,-2.13468813896179,69.06422424316406,0.20386317372322,0.28655004501343,9.77862262725830,0.22513629496098,-1.02262282371521,-1.15333223342896
179,957038084,1.60188198089600,-2.13615489006042,69.06675720214844,0.20077314972878,0.20412068068981,9.72964763641357,0.06742946803570,-1.06573128700256,-1.09867131710052
180,957046417,1.60533475875854,-2.14454197883606,69.05806732177734,0.21055123209953,0.25035625696182,9.74564838409424,0.38689020276070,-1.10369181632996,-1.03729963302612
181,957054750,1.60459983348846,-2.14533710479736,69.05743408203125,0.18922133743763,0.25779524445534,9.78831481933594,0.05510902404785,-0.99370419979095,-1.08225262165070
182,957063083,1.60556066036224,-2.15303754806519,69.04867553710938,0.17741195857525,0.23906947672367,9.75576972961426,0.08881735056639,-1.02600371837616,-1.04985058307648
183,957071416,1.60549032688141,-2.15387201309204,69.05847930908203,0.17663940787315,0.23386256396770,9.80345821380615,0.13653667271137,-1.00556361675262,-1.01611673831940
184,957079749,1.60679483413696,-2.16156697273254,69.04854583740234,0.15557433664799,0.23704521358013,9.78938102722168,0.12465167045593,-1.03071677684784,-1.19134354591370
185,957088082,1.60699248313904,-2.16290616989136,69.04994201660156,0.16276293992996,0.25740936398506,9.75428199768066,0.16742743551731,-1.08402001857758,-1.11964941024780
186,957096415,1.60708093643188,-2.16992545127869,69.04086303710938,0.14321422576904,0.19308383762836,9.78630542755127,-0.01777627877891,-0.94893056154251,-1.09119212627411
187,957104748,1.60868144035339,-2.17131423950195,69.04625701904297,0.14925837516785,0.22254639863968,9.78965282440186,0.33712175488472,-1.10604834556580,-1.08430171012878
188,957113081,1.60951888561249,-2.17897558212280,69.03688812255859,0.17518027126789,0.32081931829453,9.78110504150391,0.07145091146231,-1.02971792221069,-1.12500286102295
189,957121414,1.60833859443665,-2.18015098571777,69.03699493408203,0.16542381048203,0.17761902511120,9.75466823577881,0.01333220861852,-1.09757006168365,-1.01580941677094
190,957129747,1.61153686046600,-2.18829011917114,69.02809906005859,0.16889293491840,0.21241797506809,9.73059177398682,0.35840719938278,-1.08760607242584,-1.06831848621368
191,957138080,1.61115014553070,-2.18818831443787,69.03385925292969,0.16839931905270,0.25703775882721,9.77067661285400,0.10792556405067,-0.96009826660156,-1.02239203453064
192,957146413,1.61268711090088,-2.19560861587524,69.02395629882812,0.16781285405159,0.24426242709160,9.75428199768066,0.15374946594238,-1.00738227367401,-1.19346976280212
193,957154746,1.61142277717590,-2.19519901275635,69.02438354492188,0.17721170186996,0.20252528786659,9.73409652709961,0.00831181928515,-0.93686622381210,-0.96855103969574
194,957163079,1.61412167549133,-2.20311069488525,69.01554107666016,0.18470786511898,0.19181779026985,9.74677848815918,0.29913583397865,-1.06550085544586,-1.06265771389008
195,957171412,1.61441791057587,-2.20304059982300,69.01453399658203,0.17035925388336,0.31649184226990,9.77400970458984,0.19624345004559,-0.99493372440338,-1.07280099391937
196,957179745,1.61437332630157,-2.20972990989685,69.00505828857422,0.20562992990017,0.20414251089096,9.74977588653564,-0.03378517925739,-0.92323958873749,-1.14500772953033
197,957188078,1.61597025394440,-2.21072626113892,69.01509094238281,0.18846310675144,0.19432844221592,9.73569202423096,0.35128641128540,-1.13678526878357,-1.05015790462494
198,957196411,1.61647534370422,-2.21803331375122,69.00666046142578,0.20347692072392,0.26687973737717,9.76966094970703,0.03804994374514,-0.99729031324387,-1.01962590217590
199,957204744,1.61717057228088,-2.21829938888550,68.99984741210938,0.20766133069992,0.20461422204971,9.73692226409912,0.25075057148933,-1.06142830848694,-1.11608910560608
200,957213077,1.61837089061737,-2.22591233253479,68.99142456054688,0.25082165002823,0.31853720545769,9.83942890167236,0.12068146467209,-1.03532731533051,-1.01583492755890
201,957221410,1.61567342281342,-2.22613430023193,68.99223327636719,0.24517799913883,0.14948011934757,9.73245143890381,-0.15401838719845,-1.06452763080597,-1.10346126556396
202,957229743,1.61854135990143,-2.23425555229187,68.98394775390625,0.24486327171326,0.27783071994781,9.80686283111572,0.32364863157272,-1.10092544555664,-0.99908316135406
203,957238076,1.61764121055603,-2.23459839820862,68.98550415039062,0.23287510871887,0.30144941806793,9.74846649169922,0.05969397351146,-1.08435297012329,-1.19516003131866
204,957246409,1.61916911602020,-2.24238920211792,68.97719573974609,0.23919829726219,0.10943097621202,9.76584815979004,0.16235582530499,-1.06414341926575,-1.00330960750580
205,957254742,1.62169599533081,-2.24353194236755,68.97265625000000,0.25068819522858,0.32139745354652,9.78627586364746,0.46419396996498,-1.18614387512207,-1.22733163833618
206,957263075,1.62048351764679,-2.24983477592468,68.96490478515625,0.24185907840729,0.22970639169216,9.81456565856934,-0.16259914636612,-0.88563776016235,-0.94134873151779
207,957271408,1.62126433849335,-2.25004673004150,68.96318054199219,0.22394835948944,0.14960171282291,9.70564937591553,0.26112431287766,-1.07946074008942,-1.20484244823456
208,957279741,1.62261784076691,-2.25733947753906,68.95565795898438,0.21137371659279,0.34792110323906,9.81301403045654,0.14644940197468,-1.00679302215576,-0.91301935911179
209,957288074,1.62051653862000,-2.25604152679443,68.95686340332031,0.22359071671963,0.18674641847610,9.69813919067383,-0.07241144031286,-0.90282487869263,-1.16895675659180
210,957296407,1.62340199947357,-2.26384377479553,68.94801330566406,0.18308404088020,0.27004167437553,9.79787921905518,0.32387918233871,-1.07477331161499,-1.06816470623016
211,957304740,1.62086212635040,-2.26252341270447,68.94766998291016,0.22093701362610,0.22751763463020,9.74380970001221,-0.12317883223295,-0.90671819448471,-1.06316995620728
212,957313073,1.62422883510590,-2.27017021179199,68.93943786621094,0.20505769550800,0.17570243775845,9.78493213653564,0.38537895679474,-1.05715060234070,-0.99872457981110
213,957321406,1.62403380870819,-2.26896572113037,68.93797302246094,0.19213251769543,0.36282080411911,9.81540298461914,0.15748912096024,-0.93161529302597,-1.07085430622101
214,957329739,1.62381350994110,-2.27580261230469,68.92861938476562,0.18122443556786,0.18442174792290,9.70687961578369,-0.04958916082978,-0.96639943122864,-1.13629865646362
215,957338072,1.62524318695068,-2.27612257003784,68.93818664550781,0.16966544091702,0.16395030915737,9.74036216735840,0.34931412339211,-1.12677013874054,-1.07341563701630
216,957346405,1.62887132167816,-2.28325057029724,68.92930603027344,0.15922944247723,0.36013132333755,9.74322319030762,0.41439989209175,-1.00435972213745,-1.07805192470551
217,957354738,1.62808144092560,-2.28171372413635,68.93138122558594,0.14392235875130,0.25416913628578,9.79565429687500,0.09394020587206,-0.92142081260681,-1.13540208339691
218,957363071,1.62973177433014,-2.28963041305542,68.92369079589844,0.17269830405712,0.19108785688877,9.78595447540283,0.18387177586555,-1.09644293785095,-0.93310105800629
219,957371404,1.62939572334290,-2.28892970085144,68.92603302001953,0.16952237486839,0.20578013360500,9.76949596405029,0.14066056907177,-1.04027080535889,-1.10965979099274
220,957379737,1.63129878044128,-2.29698252677917,68.91795349121094,0.18700392544270,0.24518515169621,9.79619789123535,0.21133023500443,-1.11903464794159,-0.98102521896362
221,957388070,1.63183474540710,-2.29616808891296,68.91535186767578,0.14568194746971,0.31886658072472,9.74032688140869,0.25092986226082,-1.04513776302338,-1.18847489356995
222,957396403,1.63241577148438,-2.30409502983093,68.90744018554688,0.16332802176476,0.12196312844753,9.74646377563477,0.05567253753543,-1.10533106327057,-0.96209627389908
223,957404736,1.63450622558594,-2.30336546897888,68.89994049072266,0.18791432678699,0.27910134196281,9.73554897308350,0.42810350656509,-1.07518315315247,-1.31111586093903
224,957413069,1.63453757762909,-2.30892467498779,68.89282989501953,0.14812821149826,0.23782537877560,9.81408786773682,-0.00681338645518,-0.82252424955368,-0.87490540742874
225,957421402,1.63539600372314,-2.30742454528809,68.89030456542969,0.19156028330326,0.29563415050507,9.71518421173096,0.28922310471535,-0.99721336364746,-1.29754018783569
226,957429735,1.63421738147736,-2.31494712829590,68.88330078125000,0.18120300769806,0.14956626296043,9.81172657012939,-0.15148259699345,-1.06117224693298,-0.85533624887466
227,957438068,1.63529646396637,-2.31355214118958,68.87951660156250,0.21240366995335,0.23570764064789,9.64342689514160,0.31470930576324,-1.02618312835693,-1.27169549465179
228,957446401,1.63570058345795,-2.32055044174194,68.87317657470703,0.17148940265179,0.26125758886337,9.82604598999023,0.04225068166852,-0.99846845865250,-0.77844214439392
229,957454734,1.63539099693298,-2.31925797462463,68.87117767333984,0.23383367061615,0.21727430820465,9.73994731903076,0.15810385346413,-1.05023491382599,-1.24600446224213
230,957463067,1.63892602920532,-2.32612490653992,68.86238098144531,0.19301946461201,0.28968298435211,9.81234836578369,0.40771457552910,-0.99439585208893,-1.07336449623108
231,957471400,1.63667476177216,-2.32517027854919,68.85591888427734,0.26539909839630,0.23044313490391,9.78825759887695,-0.06595665216446,-1.09808218479156,-1.07469642162323
232,957479733,1.63948988914490,-2.33226346969604,68.84741973876953,0.21025781333447,0.14940142631531,9.76137733459473,0.32362306118011,-1.02528655529022,-1.03742778301239
233,957488066,1.63843607902527,-2.33109951019287,68.83731079101562,0.27210846543312,0.35367232561111,9.76159191131592,0.07583094388247,-1.07923018932343,-1.10510051250458
234,957496399,1.63991522789001,-2.33884954452515,68.82769775390625,0.23451310396194,0.14518840610981,9.73677921295166,0.15725859999657,-1.11071002483368,-1.16872632503510
235,957504732,1.63932991027832,-2.33731770515442,68.82983398437500,0.25570699572563,0.29848098754883,9.77719211578369,0.14063496887684,-1.03814506530762,-0.91942298412323
236,957513065,1.64065158367157,-2.34410619735718,68.81997680664062,0.18575218319893,0.20080891251564,9.78212833404541,0.13822720944881,-0.99967235326767,-1.20153808593750
237,957521398,1.64000439643860,-2.34265589714050,68.82379913330078,0.25233799219131,0.23993496596813,9.74840259552002,0.14539919793606,-1.04739153385162,-0.75551736354828
238,957529731,1.64264249801636,-2.34938287734985,68.81250000000000,0.19216550886631,0.28605282306671,9.77956581115723,0.28924876451492,-1.00067126750946,-1.37643206119537
239,957538064,1.39238357543945,-1.14825725555420,69.93437957763672,0.24561432003975,0.21283999085426,9.75981807708740,-0.09241615235806,-0.96855103969574,-0.86135548353195
240,957546397,1.39604580402374,-1.15644431114197,69.92295074462891,0.21550740301609,0.19550077617168,9.74820613861084,0.44139730930328,-1.17497611045837,-1.39507925510406
241,957554730,1.39473628997803,-1.15558624267578,69.92645263671875,0.22926291823387,0.29887437820435,9.77084827423096,0.01609854586422,-0.90561681985855,-0.77982532978058
242,957563063,1.39492225646973,-1.15446639060974,69.92344665527344,0.20110018551350,0.20258645713329,9.73589706420898,0.18451213836670,-0.89455157518387,-1.42901802062988
243,957571396,1.39425492286682,-1.15519809722900,69.92216491699219,0.19490788877010,0.27041983604431,9.78696441650391,0.09486231952906,-1.09416317939758,-0.70687597990036
244,957579729,1.39344656467438,-1.15516531467438,69.91832733154297,0.21781608462334,0.22356127202511,9.73884582519531,0.06228100880980,-1.02838587760925,-1.52481532096863
245,957588062,1.39521527290344,-1.15549707412720,69.92199707031250,0.16965113580227,0.20713202655315,9.75171375274658,0.38929796218872,-1.04229450225830,-0.60746723413467
246,957596395,1.39430952072144,-1.15482091903687,69.91868591308594,0.20250940322876,0.31914636492729,9.79192829132080,0.05193286389112,-0.94972455501556,-1.46580016613007
247,957604728,1.39342629909515,-1.15480971336365,69.92048645019531,0.13968786597252,0.17708292603493,9.72741603851318,0.07104107737541,-1.00459015369415,-0.75592726469040
248,957613061,1.39448893070221,-1.15481173992157,69.91818237304688,0.19454857707024,0.24033857882023,9.76347923278809,0.29027330875397,-1.02836024761200,-1.33880484104156
249,957621394,1.39528357982635,-1.15496349334717,69.91843414306641,0.10656305402517,0.20582304894924,9.77614784240723,0.26832193136215,-1.02892386913300,-0.84475743770599
250,957629727,1.39590668678284,-1.15521562099457,69.91681671142578,0.19811229407787,0.33618360757828,9.77185630798340,0.23976202309132,-1.05535757541656,-1.25906777381897
251,957638060,1.39600932598114,-1.15549540519714,69.91722106933594,0.10221406072378,0.11625548452139,9.73302459716797,0.18561354279518,-1.04872357845306,-0.90548872947693
252,957646393,1.39620983600616,-1.15565931797028,69.91573333740234,0.21236075460911,0.35394412279129,9.79871559143066,0.18896901607513,-1.04485583305359,-1.24336636066437
253,957654726,1.39502191543579,-1.15528333187103,69.91628265380859,0.12817893922329,0.08839483559132,9.73048400878906,0.03041690401733,-0.97139418125153,-0.88310194015503
254,957663059,1.39643466472626,-1.15562248229980,69.91600036621094,0.19365607202053,0.41935688257217,9.78433799743652,0.33806946873665,-1.06270897388458,-1.09692955017090
255,957671392,1.39396703243256,-1.15415871143341,69.91343688964844,0.14194098114967,0.13151900470257,9.72422599792480,-0.12497185170650,-0.84724199771881,-1.07569539546967
256,957679725,1.39576029777527,-1.15529263019562,69.91380310058594,0.19844132661819,0.20553694665432,9.80953025817871,0.38417512178421,-1.15661084651947,-1.01721811294556
257,957688058,1.39583480358124,-1.15554034709930,69.91362762451172,0.15810644626617,0.30133497714996,9.77192115783691,0.17854401469231,-1.05448675155640,-1.11363005638123
258,957696391,1.39425015449524,-1.15522420406342,69.91483306884766,0.21760378777981,0.21936339139938,9.71711540222168,-0.01936436258256,-0.97915536165237,-0.92147213220596
259,957704724,1.39504003524780,-1.15578436851501,69.91264343261719,0.17582803964615,0.19071415066719,9.76479721069336,0.25881904363632,-1.09754443168640,-1.24628627300262
260,957713057,1.39446794986725,-1.15535426139832,69.91543579101562,0.22734604775906,0.23683731257915,9.76979064941406,0.10692662000656,-0.96125096082687,-0.73369419574738
261,957721390,1.39586591720581,-1.15548622608185,69.91394042968750,0.19258868694305,0.25242504477501,9.76740550994873,0.33210134506226,-1.04731476306915,-1.38726687431335
262,957729723,1.39496111869812,-1.15472614765167,69.91717529296875,0.24489188194275,0.29135674238205,9.78157043457031,0.06789053231478,-0.92085731029510,-0.67895656824112
263,957738056,1.39535903930664,-1.15434861183167,69.91698455810547,0.21233527362347,0.16915148496628,9.73979282379150,0.21084356307983,-0.98753118515015,-1.39986908435822
264,957746389,1.39635217189789,-1.15428090095520,69.91971588134766,0.23265336453915,0.26905417442322,9.75292301177979,0.29478141665459,-1.00330960750580,-0.73725450038910
265,957754722,1.39631915092468,-1.15441215038300,69.91820526123047,0.24373957514763,0.25707048177719,9.72326755523682,0.15574735403061,-1.04974806308746,-1.51170086860657
266,957763055,1.39659976959229,-1.15425765514374,69.92131042480469,0.19902785122395,0.20242545008659,9.78042507171631,0.21025443077087,-0.99342244863510,-0.69301867485046
267,957771388,1.39783823490143,-1.15421068668365,69.91893005371094,0.24191629886627,0.25944793224335,9.77648448944092,0.31388965249062,-1.02106022834778,-1.28045570850372
268,957779721,1.39745187759399,-1.15454852581024,69.92153167724609,0.21651655435562,0.24600772559643,9.77945995330811,0.12828889489174,-1.05274498462677,-0.75346833467484
269,957788054,1.39586567878723,-1.15483820438385,69.92201995849609,0.25542801618576,0.17809863388538,9.77292919158936,-0.02423106506467,-1.05732989311218,-1.16695880889893
270,957796387,1.39924979209900,-1.15415561199188,69.92317962646484,0.18349921703339,0.26875346899033,9.82096767425537,0.57827973365784,-0.93558555841446,-0.92697906494141
271,957804720,1.39257180690765,-1.15194833278656,69.91986846923828,0.26467874646187,0.30377516150475,9.58838462829590,-0.63894706964493,-0.76128065586090,-1.40967929363251
272,957813053,1.39355456829071,-1.14897990226746,69.91866302490234,0.22676658630371,0.22447766363621,10.10366916656494,0.28463819622993,-0.66719955205917,-1.21721398830414
273,957821386,1.39558148384094,-1.14492189884186,69.92067718505859,0.15000227093697,0.09870208054781,9.46265316009521,0.41242757439613,-0.52755075693130,-0.99559962749481
274,957829719,1.39877426624298,-1.15125048160553,69.92022705078125,0.16839529573917,0.09307982027531,9.76073169708252,0.55041146278381,-1.78126502037048,-1.09910678863525
275,957838052,1.39888453483582,-1.15123617649078,69.92144012451172,0.26078549027443,0.85107386112213,9.82988739013672,0.18776513636112,-1.01273548603058,-0.94011920690536
276,957846385,1.39241182804108,-1.15059494972229,69.91927337646484,0.20455925166607,-0.10413332283497,9.98443984985352,-0.61371707916260,-0.94944286346436,-1.32732951641083
277,957854718,1.39615523815155,-1.15211045742035,69.92384338378906,0.26360371708870,-0.16822771728039,9.57013893127441,0.61634248495102,-1.19313657283783,-0.78937941789627
278,957863051,1.40615892410278,-1.15478730201721,69.92033386230469,0.10327626764774,0.85172599554062,9.97934150695801,1.36156308650970,-1.35156071186066,-1.47837686538696
279,957871384,1.39381992816925,-1.15343940258026,69.92488861083984,0.22472791373730,0.19735401868820,9.54695796966553,-1.28755080699921,-0.83266758918762,-0.24574297666550
280,957879717,1.39742875099182,-1.15447354316711,69.91921234130859,0.12811516225338,-0.11519751697779,9.71112918853760,0.58755213022232,-1.16093981266022,-1.74187064170837
281,957888050,1.39987027645111,-1.15390098094940,69.92812347412109,0.15520954132080,0.36205545067787,9.87668800354004,0.47577160596848,-0.92859292030334,-0.26262277364731
282,957896383,1.40019941329956,-1.15679347515106,69.92118072509766,0.16222031414509,0.34901732206345,9.67125129699707,0.19076202809811,-1.38836836814880,-1.89015114307404
283,957904716,1.39782750606537,-1.15551578998566,69.92671203613281,0.14796370267868,0.24776732921600,9.68367576599121,-0.09692426025867,-0.84419393539429,-0.19341307878494
284,957913049,1.39924824237823,-1.15420043468475,69.91943359375000,0.15539705753326,0.06453192979097,9.92317581176758,0.32106167078018,-0.88379359245300,-1.94396686553955
285,957921382,1.40218377113342,-1.15396797657013,69.92825317382812,0.09734304249287,0.25341805815697,9.73716545104980,0.53768122196198,-0.97111248970032,-0.18188667297363
286,957929715,1.40049052238464,-1.15560221672058,69.92222595214844,0.18442720174789,0.47651696205139,9.80500602722168,-0.04835968464613,-1.23434996604919,-1.78551721572876
287,957938048,1.39765143394470,-1.15621149539948,69.92805480957031,0.16118931770325,-0.06432551890612,9.66746807098389,-0.15663105249405,-1.08089506626129,-0.40280941128731
288,957946381,1.40266406536102,-1.15647947788239,69.92332458496094,0.24141018092632,0.38576126098633,9.76853561401367,0.75801479816437,-1.06639742851257,-1.63131928443909
289,957954714,1.40010058879852,-1.15506279468536,69.92977142333984,0.10554023832083,0.22961373627186,9.76100635528564,-0.12410097569227,-0.84293895959854,-0.55190998315811
290,957963047,1.39972627162933,-1.15495336055756,69.92652130126953,0.28462141752243,0.18666881322861,9.81233692169189,0.11601967364550,-1.01629602909088,-1.45693767070770
291,957971380,1.40084719657898,-1.15272593498230,69.92831420898438,0.11823649704456,0.17884252965450,9.77196407318115,0.30651277303696,-0.75398063659668,-0.87160122394562
292,957979713,1.40194439888000,-1.15419614315033,69.92848205566406,0.26522755622864,0.46475556492805,9.79803562164307,0.30144113302231,-1.19590294361115,-1.04042470455170
293,957988046,1.39727163314819,-1.15486538410187,69.92911529541016,0.16745534539223,0.10816571861506,9.71182346343994,-0.39092445373535,-1.10702168941498,-1.10597133636475
294,957996379,1.39763617515564,-1.15471923351288,69.93135833740234,0.29371002316475,0.07334525138140,9.75795173645020,0.21855348348618,-0.99675226211548,-0.79665398597717
295,958004712,1.40184020996094,-1.15529906749725,69.92861938476562,0.17709489166737,0.28904527425766,9.77413654327393,0.66782706975937,-1.10000324249268,-1.35727274417877
296,958013045,1.39952301979065,-1.15459060668945,69.93177795410156,0.27409693598747,0.52330917119980,9.83935737609863,-0.10207272320986,-0.92672294378281,-0.68810087442398
297,958021378,1.39659321308136,-1.15534639358521,69.92702484130859,0.19138292968273,0.00008263257041,9.81269550323486,-0.18739373981953,-1.12359392642975,-1.48588168621063
298,958029711,1.39973545074463,-1.15545499324799,69.93196105957031,0.26361802220345,0.08704294264317,9.70610046386719,0.55776280164719,-1.02047109603882,-0.47119945287704
299,958038044,1.40315473079681,-1.15677082538605,69.92514038085938,0.21525421738625,0.46544030308723,9.70138931274414,0.56803417205811,-1.19359779357910,-1.65990507602692
300,958046377,1.39841353893280,-1.15544915199280,69.93103790283203,0.27445459365845,0.31667065620422,9.74767971038818,-0.38526368141174,-0.84529531002045,-0.36213406920433
301,958054710,1.39851689338684,-1.15599143505096,69.92471313476562,0.26055207848549,0.01533913146704,9.81142139434814,0.16688953340054,-1.10351240634918,-1.82355427742004
302,958063043,1.40127789974213,-1.15562903881073,69.93165588378906,0.22577233612537,0.22093701362610,9.81122589111328,0.51590907573700,-0.95643544197083,-0.23278215527534
303,958071376,1.40208244323730,-1.15519940853119,69.92490386962891,0.22345162928104,0.50372773408890,9.76307678222656,0.25308144092560,-0.98530274629593,-1.87181138992310
304,958079709,1.39735603332520,-1.15460479259491,69.93165588378906,0.17064543068409,0.19729703664780,9.80480861663818,-0.38234370946884,-0.93025791645050,-0.25842201709747
305,958088042,1.39704978466034,-1.15451323986053,69.92790222167969,0.22926434874535,0.03236190602183,9.74132442474365,0.11827373504639,-1.02062487602234,-1.70303940773010
306,958096375,1.39945566654205,-1.15519726276398,69.93365478515625,0.16900737583637,0.20905613899231,9.72238063812256,0.47167333960533,-1.08583867549896,-0.37409594655037
307,958104708,1.40032887458801,-1.15372729301453,69.92916870117188,0.22771866619587,0.47720694541931,9.78704071044922,0.26483836770058,-0.85292834043503,-1.64143693447113
308,958113041,1.39694523811340,-1.15289866924286,69.93324279785156,0.13204148411751,0.08016191422939,9.76193523406982,-0.22768491506577,-0.90986883640289,-0.58011120557785
309,958121374,1.39944827556610,-1.15324771404266,69.93511962890625,0.26561483740807,0.27053073048592,9.81283473968506,0.46421957015991,-1.06306755542755,-1.24830985069275
310,958129707,1.39875698089600,-1.15213298797607,69.93668365478516,0.13452351093292,0.22341190278530,9.74598503112793,0.08945770561695,-0.88210296630859,-0.88112962245941
311,958138040,1.39901638031006,-1.15268945693970,69.93714141845703,0.23393364250660,0.28730863332748,9.79217815399170,0.20287755131721,-1.08156108856201,-1.00763845443726
312,958146373,1.39883327484131,-1.15308666229248,69.93668365478516,0.12830775976181,0.21423439681530,9.74092006683350,0.14586026966572,-1.07029092311859,-1.11952137947083
313,958154706,1.39835846424103,-1.15330314636230,69.93868255615234,0.23171634972095,0.28372466564178,9.75569820404053,0.11899092793465,-1.03509688377380,-0.75984627008438
314,958163039,1.39698219299316,-1.15169215202332,69.93605041503906,0.11326526850462,0.18083818256855,9.75302314758301,-0.00230528088287,-0.83548504114151,-1.38762545585632
315,958171372,1.39636063575745,-1.15090215206146,69.93769073486328,0.16892154514790,0.14339303970337,9.78011798858643,0.10457010567188,-0.90997129678726,-0.54840075969696
316,958179705,1.40021824836731,-1.15193724632263,69.93357086181641,0.12275636196136,0.40040022134781,9.79653167724609,0.62159335613251,-1.15709745883942,-1.55690991878510
317,958188038,1.39628732204437,-1.15256392955780,69.93568420410156,0.16096042096615,0.30880969762802,9.76074123382568,-0.28483027219772,-1.07784700393677,-0.33672475814819
318,958196371,1.39485394954681,-1.15180611610413,69.92974853515625,0.16480942070484,0.04810838401318,9.75200653076172,-0.01718715205789,-0.94739377498627,-1.77885735034943
319,958204704,1.39643597602844,-1.15115654468536,69.93431854248047,0.15671163797379,0.15197645127773,9.72029113769531,0.37272554636002,-0.92536544799805,-0.33001381158829
320,958213037,1.39924895763397,-1.15201652050018,69.92885589599609,0.20300912857056,0.43796792626381,9.78518390655518,0.49252328276634,-1.13955163955688,-1.71810042858124
321,958221370,1.39588916301727,-1.15090167522430,69.93349456787109,0.16702604293823,0.30426049232483,9.76430988311768,-0.21526202559471,-0.87137061357498,-0.37683662772179
322,958229703,1.39498603343964,-1.15166270732880,69.92826843261719,0.24897462129593,0.06997080892324,9.80295181274414,0.04668194428086,-1.12758982181549,-1.68943822383881
323,958238036,1.39793872833252,-1.15190982818604,69.93183135986328,0.18605260550976,0.11572584509850,9.71572780609131,0.53132885694504,-1.04247379302979,-0.68446356058121
324,958246369,1.39929497241974,-1.15223479270935,69.92824554443359,0.25638476014137,0.54428952932358,9.77623939514160,0.32218861579895,-1.07070052623749,-1.49451363086700
325,958254702,1.39387094974518,-1.15106058120728,69.92889404296875,0.17430762946606,0.17322039604187,9.73599243164062,-0.47373524308205,-0.87495660781860,-0.83141243457794
326,958263035,1.39588522911072,-1.15119218826294,69.92675018310547,0.26902601122856,0.00380066432990,9.75506591796875,0.40599840879440,-1.04321658611298,-1.32289838790894
327,958271368,1.39943861961365,-1.15097582340240,69.92521667480469,0.15576767921448,0.31388074159622,9.82366466522217,0.59649157524109,-0.99437034130096,-0.99308955669403
328,958279701,1.39726579189301,-1.15061438083649,69.92633819580078,0.25941216945648,0.42788305878639,9.78089714050293,-0.08980350941420,-0.97393012046814,-0.93210196495056
329,958288034,1.39437973499298,-1.14971458911896,69.92342376708984,0.20419220626354,0.11276456713676,9.72243785858154,-0.17830067873001,-0.91857761144638,-1.27136242389679
330,958296367,1.39371323585510,-1.14934289455414,69.92578125000000,0.30835905671120,0.14956595003605,9.79953098297119,0.09419634193182,-0.96860224008560,-0.78248924016953
331,958304700,1.39744246006012,-1.14864838123322,69.92400360107422,0.21040292084217,0.31902799010277,9.72576999664307,0.61162942647934,-0.94467854499817,-1.39246666431427
332,958313033,1.39528274536133,-1.14752471446991,69.92814636230469,0.27576354146004,0.31185680627823,9.77395915985107,-0.08017254620790,-0.87385523319244,-0.57183778285980
333,958321366,1.39439809322357,-1.14736330509186,69.92557525634766,0.22631803154945,0.08715959638357,9.75293731689453,0.05587745085359,-1.00871419906616,-1.51131665706635
334,958329699,1.39788198471069,-1.14783358573914,69.93049621582031,0.23349750041962,0.30968931317329,9.79262828826904,0.59820759296417,-1.06414341926575,-0.47309494018555
335,958338032,1.39596331119537,-1.14855945110321,69.92774200439453,0.24976833164692,0.32399466633797,9.78255462646484,-0.06577735394239,-1.11168336868286,-1.42906928062439
336,958346365,1.39435768127441,-1.14890289306641,69.93210601806641,0.20772571861744,0.06813798099756,9.69912624359131,-0.01395975798368,-1.04921030998230,-0.53989684581757
337,958354698,1.39728999137878,-1.14914083480835,69.93026733398438,0.21497289836407,0.32270383834839,9.80087661743164,0.51134973764420,-1.05617737770081,-1.57507050037384
338,958363031,1.39601290225983,-1.14855432510376,69.93368530273438,0.16424357891083,0.31284388899803,9.79619026184082,0.02291193231940,-0.94050341844559,-0.65774786472321
339,958371364,1.39482581615448,-1.14792263507843,69.93365478515625,0.19403064250946,0.16023559868336,9.77609252929688,0.02196420542896,-0.94700950384140,-1.41554498672485
340,958379697,1.39595484733582,-1.14691686630249,69.93594360351562,0.17006599903107,0.15523815155029,9.76817989349365,0.30866432189941,-0.89416730403900,-0.79311907291412
341,958388030,1.39719390869141,-1.14777457714081,69.93376159667969,0.19665311276913,0.36420130729675,9.76116275787354,0.31785985827446,-1.12195467948914,-1.18611824512482
342,958396363,1.39536631107330,-1.14776945114136,69.93401336669922,0.13547484576702,0.25516372919083,9.78554058074951,-0.05017828568816,-1.01788401603699,-1.03609573841095
343,958404696,1.39318323135376,-1.14664638042450,69.93280792236328,0.22401987016201,0.14589619636536,9.76015472412109,-0.09382494539022,-0.88335806131363,-1.12741041183472
344,958413029,1.39645290374756,-1.14615869522095,69.93187713623047,0.13195565342903,0.17354942858219,9.72428321838379,0.55993998050690,-0.96445268392563,-1.17825472354889
345,958421362,1.39810657501221,-1.14588749408722,69.93219757080078,0.18492257595062,0.47362521290779,9.89648723602295,0.37290483713150,-0.97966760396957,-0.87485420703888
346,958429695,1.39364314079285,-1.14481854438782,69.93054199218750,0.15966576337814,0.10041876137257,9.63384246826172,-0.37107342481613,-0.89806073904037,-1.26780211925507
347,958438028,1.39468884468079,-1.14497125148773,69.93305206298828,0.19409239292145,0.18012289702892,9.82568168640137,0.29905900359154,-1.02887260913849,-0.80059850215912
348,958446361,1.39557516574860,-1.14554619789124,69.92969512939453,0.14036670327187,0.28167799115181,9.72850418090820,0.26737421751022,-1.09984970092773,-1.46551835536957
349,958454694,1.39525234699249,-1.14551806449890,69.93167114257812,0.15287771821022,0.30820170044899,9.74409580230713,0.14063495397568,-1.00451338291168,-0.62434697151184
350,958463027,1.39376270771027,-1.14444553852081,69.92791748046875,0.15083619952202,0.21509252488613,9.80573654174805,-0.01828856579959,-0.90282499790192,-1.51802778244019
351,958471360,1.39395797252655,-1.14445376396179,69.93119049072266,0.16995154321194,-0.02876158244908,9.66968536376953,0.20464491844177,-1.00551235675812,-0.50134742259979
352,958479693,1.39824295043945,-1.14616358280182,69.92779541015625,0.14875422418118,0.46913179755211,9.83817195892334,0.67446118593216,-1.23639905452728,-1.47071802616119
353,958488026,1.39261341094971,-1.14585757255554,69.93451690673828,0.21064406633377,0.34782129526138,9.79585456848145,-0.49197265505791,-0.97054910659790,-0.50777661800385
354,958496359,1.39308011531830,-1.14652764797211,69.92999267578125,0.22604620456696,0.05423524975777,9.73577880859375,0.21463446319103,-1.11342513561249,-1.60688328742981
355,958504692,1.39494931697845,-1.14649939537048,69.93445587158203,0.18761907517910,0.23061481118202,9.80935859680176,0.40269419550896,-1.00697231292725,-0.58700144290924
356,958513025,1.39678871631622,-1.14674806594849,69.93224334716797,0.20732542872429,0.39333972334862,9.70951938629150,0.38440561294556,-1.05668962001801,-1.32948112487793
357,958521358,1.39280116558075,-1.14712345600128,69.93235778808594,0.19765451550484,0.18621711432934,9.79286384582520,-0.30025005340576,-1.05827772617340,-0.73543590307236
358,958529691,1.39390170574188,-1.14676630496979,69.93162536621094,0.24917644262314,0.12189874798059,9.70099353790283,0.29836741089821,-0.97948831319809,-1.15202581882477
359,958538024,1.39560258388519,-1.14572465419769,69.93606567382812,0.20353414118290,0.29328802227974,9.85755443572998,0.37692630290985,-0.89273291826248,-0.94449925422668
360,958546357,1.39415776729584,-1.14540719985962,69.93577575683594,0.26471242308617,0.29798027873039,9.71306705474854,-0.00532776117325,-0.98286944627762,-1.10123288631439
361,958554690,1.39378726482391,-1.14440929889679,69.93624114990234,0.19101673364639,0.17306981980801,9.75868797302246,0.12250005453825,-0.90431052446365,-1.20835149288177
362,958563023,1.39269864559174,-1.14387679100037,69.93620300292969,0.25846797227859,0.21587994694710,9.80418014526367,0.03907451033592,-0.95687097311020,-1.06975293159485
363,958571356,1.39453268051147,-1.14413404464722,69.93386840820312,0.22768929600716,0.23225995898247,9.77085494995117,0.38852950930595,-1.05243766307831,-1.17062175273895
364,958579689,1.39308226108551,-1.14434766769409,69.93564605712891,0.26403287053108,0.31910294294357,9.75884628295898,-0.00184422486927,-1.04078328609467,-0.85331255197525
365,958588022,1.39235806465149,-1.14417552947998,69.93463134765625,0.22075818479061,0.15483759343624,9.71161556243896,0.08115869760513,-1.00085043907166,-1.25770998001099
366,958596355,1.39338171482086,-1.14439702033997,69.93677520751953,0.24189493060112,0.23553568124771,9.78667736053467,0.29634386301041,-1.04193580150604,-0.80894869565964
367,958604688,1.39338004589081,-1.14457392692566,69.93354034423828,0.23054711520672,0.26300159096718,9.79073619842529,0.16458424925804,-1.04498398303986,-1.37133491039276
368,958613021,1.39261507987976,-1.14427292346954,69.93692779541016,0.21345506608486,0.23629459738731,9.78462982177734,0.08525699377060,-0.97510832548141,-0.66074484586716
369,958621354,1.39296555519104,-1.14425635337830,69.93502807617188,0.20868895947933,0.21992070972919,9.79798603057861,0.20666845142841,-1.02077841758728,-1.36439347267151
370,958629687,1.39269888401031,-1.14449322223663,69.93780517578125,0.17507298290730,0.23058620095253,9.76486778259277,0.14263287186623,-1.04109060764313,-0.73256713151932
371,958638020,1.39198482036591,-1.14396464824677,69.93515014648438,0.15535259246826,0.26616445183754,9.75094890594482,0.08095378428698,-0.95868939161301,-1.33660197257996
372,958646353,1.39132177829742,-1.14363253116608,69.93772888183594,0.16047409176826,0.16562357544899,9.74812412261963,0.09578444063663,-0.97362279891968,-0.75618350505829
373,958654686,1.39223861694336,-1.14354276657104,69.93721008300781,0.19537989795208,0.28353154659271,9.77983188629150,0.27697953581810,-1.00999486446381,-1.24177813529968
374,958663019,1.39156115055084,-1.14292418956757,69.93928527832031,0.15989458560944,0.23210312426090,9.75671291351318,0.09143000841141,-0.93960696458817,-0.81857967376709
375,958671352,1.39230060577393,-1.14314186573029,69.93824768066406,0.20087328553200,0.23128002882004,9.80769252777100,0.25794818997383,-1.04644405841827,-1.19679951667786
376,958679685,1.39191627502441,-1.14352345466614,69.93907165527344,0.16313482820988,0.17936503887177,9.74254512786865,0.12383202463388,-1.06401538848877,-0.96488821506500
377,958688018,1.39287173748016,-1.14301419258118,69.93840789794922,0.16588157415390,0.34866532683372,9.77727127075195,0.28540661931038,-0.95666599273682,-1.11760020256042
378,958696351,1.39049983024597,-1.14068019390106,69.93939971923828,0.12884415686131,0.23296809196472,9.75864505767822,-0.11344543844461,-0.73789477348328,-0.95320808887482
379,958704684,1.39026796817780,-1.14038360118866,69.94073486328125,0.15910778939724,0.08627793937922,9.79895877838135,0.14278656244278,-0.98171687126160,-1.02323734760284
380,958713017,1.39101874828339,-1.14010405540466,69.93945312500000,0.16606755554676,0.29378873109818,9.75598430633545,0.25559166073799,-0.99080979824066,-1.22167086601257
381,958721350,1.39041948318481,-1.14042735099792,69.94238281250000,0.18651753664017,0.29172870516777,9.76590538024902,0.10372484475374,-1.05264258384705,-0.85446518659592
382,958729683,1.39005959033966,-1.14055621623993,69.93968200683594,0.16088087856770,0.26142483949661,9.81548309326172,0.11952883005142,-1.04483032226562,-1.38818919658661
383,958738016,1.38976788520813,-1.14022791385651,69.94121551513672,0.17589555680752,0.16065284609795,9.71486949920654,0.14255601167679,-0.97218823432922,-0.73290002346039
384,958746349,1.39458382129669,-1.14161729812622,69.93807983398438,0.18865422904491,0.37911617755890,9.76681900024414,0.73944449424744,-1.19562113285065,-1.43798315525055
385,958754682,1.39272415637970,-1.13948464393616,69.94363403320312,0.09645607322454,0.47848185896873,9.53617000579834,-0.04940985515714,-0.76061463356018,-0.91545271873474
386,958763015,1.39269340038300,-1.14343500137329,69.94408416748047,0.23161134123802,-0.13141331076622,9.79590702056885,0.16696639358997,-1.49290013313293,-1.00184965133667
387,958771348,1.39491403102875,-1.14524328708649,69.94441223144531,0.24046878516674,0.12849529087543,9.57975196838379,0.43353372812271,-1.23901164531708,-1.05177164077759
388,958779681,1.39387249946594,-1.14261674880981,69.94306182861328,0.18998663127422,0.88122344017029,9.80523204803467,0.03976609930396,-0.70864337682724,-1.23491346836090
389,958788014,1.38392198085785,-1.14514207839966,69.94372558593750,0.27349802851677,-0.31362098455429,10.18272209167480,-1.01685953140259,-1.31959426403046,-0.85192948579788
390,958796347,1.38774573802948,-1.14775562286377,69.94637298583984,0.44906264543533,-0.05720128491521,9.73497676849365,0.63386261463165,-1.32648432254791,-0.74227488040924
391,958804680,1.39370059967041,-1.14955854415894,69.94326782226562,0.46783497929573,0.71115005016327,9.57477283477783,0.87719792127609,-1.24559473991394,-1.48644530773163
392,958813013,1.38385915756226,-1.14778590202332,69.95133972167969,0.79327172040939,0.28257307410240,9.87442111968994,-0.99319201707840,-0.78387242555618,-0.10343028604984
393,958821346,1.38797771930695,-1.14625525474548,69.94096374511719,0.89371472597122,-0.03163306415081,9.85560512542725,0.63773041963577,-0.86127859354019,-2.31496357917786
394,958829679,1.39398157596588,-1.14555335044861,69.95096588134766,1.04152548313141,0.42138114571571,9.76473236083984,0.91438978910446,-0.90661585330963,0.13338612020016
395,958838012,1.39680469036102,-1.14822018146515,69.94083404541016,0.95319312810898,0.70852315425873,9.68390274047852,0.48186782002449,-1.35604321956635,-2.49011349678040
396,958846345,1.38414549827576,-1.14165353775024,69.95082855224609,0.72577750682831,0.22685241699219,9.63857078552246,-1.32761144638062,-0.20442719757557,0.11558423936367
397,958854678,1.38359749317169,-1.13967621326447,69.94317626953125,0.31249892711639,-0.40190824866295,9.69026184082031,0.07767517119646,-0.77442079782486,-2.17756843566895
398,958863011,1.39222383499146,-1.14248585700989,69.95152282714844,0.07478132098913,0.66104024648666,10.06260013580322,1.22421979904175,-1.33250379562378,-0.05601833760738
399,958871344,1.37793767452240,-1.13920187950134,69.94863891601562,-0.17510189116001,0.31725615262985,9.94564914703369,-1.56213533878326,-0.60800516605377,-2.01981043815613
400,958879677,1.37632203102112,-1.13645553588867,69.95750427246094,-0.23050752282143,-0.75724285840988,9.71181583404541,-0.00425196299329,-0.66474056243896,-0.00983586721122
401,958888010,1.39674282073975,-1.14146935939789,69.94864654541016,-0.00272538000718,0.65927201509476,9.75734138488770,2.59363341331482,-1.61538720130920,-2.25830459594727
402,958896343,1.38913094997406,-1.13846027851105,69.95493316650391,0.20617374777794,0.88371247053146,9.84129524230957,-0.72957026958466,-0.64140605926514,-0.31964001059532
403,958904676,1.38579678535461,-1.13934540748596,69.95233917236328,0.64929848909378,-0.41012158989906,9.69263744354248,-0.24095308780670,-1.11206758022308,-1.70204031467438
404,958913009,1.39806985855103,-1.14343476295471,69.95471191406250,0.62199133634567,0.43247985839844,9.59994506835938,1.64695692062378,-1.50434970855713,-0.76893937587738
405,958921342,1.39295315742493,-1.14122653007507,69.95549011230469,0.41484344005585,0.96875959634781,9.78199958801270,-0.44353613257408,-0.72373026609421,-1.15297377109528
406,958929675,1.38083541393280,-1.13356482982635,69.95716094970703,-0.08283707499504,-0.21613745391369,9.72882461547852,-1.28224849700928,-0.09743654727936,-0.88632935285568
407,958938008,1.38462722301483,-1.13147866725922,69.95393371582031,-0.50648564100266,0.11198490858078,9.84207630157471,0.61449831724167,-0.73520535230637,-1.28662860393524
408,958946341,1.38216972351074,-1.13073837757111,69.95660400390625,-0.86414927244186,0.22427739202976,9.89354038238525,-0.11964410543442,-0.92477637529373,-0.74829435348511
409,958954674,1.38081908226013,-1.13189923763275,69.95630645751953,-0.88099908828735,0.17222045361996,9.78918933868408,0.00157527532429,-1.13535082340240,-1.30061388015747
410,958963007,1.38021099567413,-1.13192856311798,69.95621490478516,-0.71403974294662,0.00699586095288,9.82144737243652,0.09511846303940,-1.02462065219879,-1.07595145702362
411,958971340,1.38411605358124,-1.13365650177002,69.95565795898438,-0.15523731708527,-0.12215279787779,9.75461959838867,0.63949769735336,-1.21864831447601,-1.02262270450592
412,958979673,1.39850473403931,-1.13871562480927,69.95570373535156,0.21620973944664,0.38305899500847,9.69665527343750,1.89567101001740,-1.62658059597015,-1.04580354690552
413,958988006,1.39708387851715,-1.14199054241180,69.95429229736328,0.65975570678711,0.87838703393936,9.80663299560547,0.00605776626617,-1.41600608825684,-0.96276223659515
414,958996339,1.38884198665619,-1.14006865024567,69.95394897460938,0.74260812997818,-0.13020320236683,9.68368339538574,-0.82114106416702,-0.79025036096573,-1.11281037330627
415,959004672,1.39686453342438,-1.13997673988342,69.96479034423828,0.61213052272797,0.27573013305664,9.62428569793701,1.12883222103119,-1.00966191291809,-1.11270809173584
416,959013005,1.39461755752563,-1.13866436481476,69.96482849121094,0.23650874197483,0.88891208171844,9.68382644653320,-0.10015165060759,-0.86371207237244,-1.06401526927948
417,959021338,1.38068628311157,-1.13716399669647,69.97463226318359,0.03635169565678,0.03100378625095,9.82974624633789,-1.49525666236877,-0.82203769683838,-0.76340675354004
418,959029671,1.37963068485260,-1.13564097881317,69.97167968750000,-0.21266117691994,-0.24261727929115,9.82458019256592,0.03418219834566,-0.84795922040939,-1.42448449134827
419,959038004,1.38328850269318,-1.13493740558624,69.97693634033203,-0.40250477194786,0.36204829812050,9.89513587951660,0.61232107877731,-0.91921794414520,-0.74299210309982
420,959046337,1.38012409210205,-1.13560867309570,69.97502136230469,-0.27553355693817,0.27810874581337,9.79496192932129,-0.21587678790092,-1.10656058788300,-1.29226374626160
421,959054670,1.38080430030823,-1.13816845417023,69.97861480712891,0.02542835660279,-0.18286243081093,9.80392932891846,0.26102185249329,-1.31708395481110,-0.58566951751709
422,959063003,1.39079701900482,-1.14134228229523,69.97447967529297,0.35227191448212,0.36057111620903,9.76052570343018,1.35795152187347,-1.41252255439758,-1.55329835414886
423,959071336,1.38993501663208,-1.14247250556946,69.98011779785156,0.63026559352875,0.53912442922592,9.70056438446045,0.07472952455282,-1.15515077114105,-0.76110136508942
424,959079669,1.38558077812195,-1.14338707923889,69.97930145263672,0.93890368938446,-0.02400448359549,9.69741725921631,-0.35542315244675,-1.13368606567383,-1.16122126579285
425,959088002,1.39317893981934,-1.14490461349487,69.98021697998047,0.92509770393372,0.30958861112595,9.66280937194824,1.08405828475952,-1.20002686977386,-0.96184003353119
426,959096335,1.39060699939728,-1.14217269420624,69.97887420654297,0.76151311397552,0.97948884963989,9.83162593841553,-0.14410568773746,-0.69724506139755,-1.23573315143585
427,959104668,1.37397408485413,-1.13811504840851,69.98055267333984,0.50053232908249,-0.11555161327124,9.77561855316162,-1.82191479206085,-0.51843214035034,-0.96517008543015
428,959113001,1.38019227981567,-1.13889706134796,69.98104095458984,0.21248185634613,-0.26381519436836,9.69113731384277,0.91577285528183,-1.11363005638123,-1.00638329982758
429,959121334,1.38536727428436,-1.13925886154175,69.97749328613281,-0.06230090931058,0.89060467481613,9.78955745697021,0.78721505403519,-1.04626452922821,-1.10932683944702
430,959129667,1.37171041965485,-1.13570940494537,69.97871398925781,-0.15097634494305,0.32541641592979,9.84643745422363,-1.46728575229645,-0.59051054716110,-0.92979651689529
431,959138000,1.37129652500153,-1.13431572914124,69.97402954101562,-0.07370293140411,-0.64273267984390,9.81319332122803,0.11322771757841,-0.83930158615112,-1.18583655357361
432,959146333,1.38710820674896,-1.13732469081879,69.97368621826172,0.01006115227938,0.37125828862190,9.76418113708496,2.06582617759705,-1.38219523429871,-1.09787714481354
433,959154666,1.38458538055420,-1.13833928108215,69.97544860839844,0.23479923605919,0.74658548831940,9.82579708099365,-0.12520238757133,-1.12461864948273,-0.83356416225433
434,959162999,1.37885344028473,-1.13772690296173,69.97270965576172,0.44239956140518,-0.05450172349811,9.68883132934570,-0.52486127614975,-0.95559024810791,-1.39600133895874
435,959171332,1.38426613807678,-1.13883304595947,69.97697448730469,0.52482557296753,-0.07234385609627,9.74800205230713,0.82210171222687,-1.13476181030273,-0.73282325267792
436,959179665,1.39073038101196,-1.13919150829315,69.97354125976562,0.48863372206688,0.65157461166382,9.67499637603760,0.93708389997482,-1.07408165931702,-1.47707045078278
437,959187998,1.38419592380524,-1.13716256618500,69.97510528564453,0.34037518501282,0.68419086933136,9.68412685394287,-0.60672450065613,-0.75508213043213,-0.77390855550766
438,959196331,1.37580573558807,-1.13452565670013,69.97164154052734,0.15776205062866,-0.10272631794214,9.70614051818848,-0.84634548425674,-0.71456027030945,-1.49005675315857
439,959204664,1.37886857986450,-1.13325822353363,69.97138214111328,-0.14713397622108,0.03637220710516,9.76998233795166,0.54011452198029,-0.84045428037643,-0.72216773033142
440,959212997,1.38086354732513,-1.13136398792267,69.96818542480469,-0.40448698401451,0.60252135992050,9.87683677673340,0.40023523569107,-0.80315995216370,-1.45140492916107
441,959221330,1.37134623527527,-1.12952494621277,69.97077178955078,-0.62032318115234,0.07694312930107,9.82423686981201,-0.96383786201477,-0.77490741014481,-0.62580692768097
442,959229663,1.37403225898743,-1.13038301467896,69.96805572509766,-0.61337542533875,-0.25245925784111,9.80263233184814,0.48570990562439,-1.13127827644348,-1.38854753971100
443,959237996,1.38148629665375,-1.13295567035675,69.96943664550781,-0.55276405811310,0.26314589381218,9.80876445770264,1.06415629386902,-1.32225799560547,-0.91581141948700
444,959246329,1.38104796409607,-1.13488650321960,69.96692657470703,-0.21596421301365,0.52355968952179,9.80369091033936,0.11020524054766,-1.25906765460968,-1.36073064804077
445,959254662,1.37975549697876,-1.13463294506073,69.97010803222656,0.08917449414730,-0.03395454585552,9.74326610565186,0.01965892314911,-0.99547159671783,-0.89470523595810
446,959262995,1.38530266284943,-1.13734889030457,69.96796417236328,0.41059502959251,0.24605198204517,9.73692798614502,0.83050316572189,-1.35368669033051,-1.31672537326813
447,959271328,1.38589942455292,-1.13786220550537,69.96865844726562,0.46071460843086,0.58183372020721,9.69615745544434,0.24606314301491,-1.08916842937469,-0.84583324193954
448,959279661,1.37877106666565,-1.13554084300995,69.96998596191406,0.42373442649841,0.37448710203171,9.75825881958008,-0.68251693248749,-0.73943167924881,-0.91373652219772
449,959287994,1.37730515003204,-1.13480579853058,69.97503662109375,0.11864420771599,-0.08355951309204,9.68542098999023,-0.00391897838563,-0.93730163574219,-0.90241503715515
450,959296327,1.38066673278809,-1.13540470600128,69.97573852539062,-0.07502597570419,0.48597094416618,9.83766269683838,0.57328510284424,-1.08986008167267,-0.97831022739410
451,959304660,1.37433600425720,-1.13375580310822,69.97375488281250,-0.24301783740520,0.31313717365265,9.81817150115967,-0.58971649408340,-0.83243703842163,-1.08197081089020
452,959312993,1.37032365798950,-1.13327467441559,69.97516632080078,-0.13613291084766,-0.14655460417271,9.81907272338867,-0.31006032228470,-0.95786976814270,-0.90026342868805
453,959321326,1.37854433059692,-1.13607680797577,69.98142242431641,0.07616972178221,0.09745125472546,9.71743965148926,1.15260207653046,-1.37218010425568,-1.12930595874786
454,959329659,1.38137423992157,-1.13753497600555,69.98173522949219,0.34995284676552,0.51703608036041,9.86424922943115,0.50981289148331,-1.19400751590729,-1.02333986759186
455,959337992,1.38036930561066,-1.13803100585938,69.97621154785156,0.66579991579056,0.10673707723618,9.62648296356201,0.04698931053281,-1.10171949863434,-1.26588106155396
456,959346325,1.38200676441193,-1.13804376125336,69.97881317138672,0.90531384944916,0.08648502081633,9.77216434478760,0.37147045135498,-1.01522016525269,-0.75377571582794
457,959354658,1.38875210285187,-1.13935232162476,69.97467041015625,0.89841145277023,0.43963825702667,9.72738838195801,0.97486490011215,-1.19354641437531,-1.24925744533539
458,959362991,1.38488471508026,-1.14074921607971,69.97832489013672,0.87933474779129,0.56469577550888,9.65169620513916,-0.28626468777657,-1.17740952968597,-0.62216973304749
459,959371324,1.37744855880737,-1.13942897319794,69.98323059082031,0.78881549835205,-0.12761387228966,9.79204177856445,-0.71315145492554,-0.85256975889206,-0.57662755250931
460,959379657,1.39267778396606,-1.14165794849396,69.98676300048828,0.49645107984543,0.36132746934891,9.70794677734375,2.00481367111206,-1.27635741233826,-0.63587337732315
461,959387990,1.37932813167572,-1.13731551170349,69.98058319091797,0.50566864013672,1.24167299270630,9.87878417968750,-1.44958627223969,-0.51272016763687,-1.97946798801422
462,959396323,1.36683607101440,-1.13202905654907,69.98957824707031,0.02258152514696,-1.12529242038727,9.73299503326416,-1.30847752094269,-0.36041787266731,-0.00240773777477
463,959404656,1.39314937591553,-1.13475441932678,69.97646331787109,0.06849626451731,0.63178879022598,9.77206897735596,3.28808665275574,-1.37192416191101,-2.56731486320496
464,959412989,1.37566781044006,-1.12928092479706,69.98116302490234,-0.20531786978245,0.77442163228989,9.79990291595459,-1.91740465164185,-0.34942939877510,-0.51640856266022
465,959421322,1.37800800800323,-1.13117170333862,69.98101806640625,-0.14385603368282,-0.74678641557693,9.63869476318359,0.44992682337761,-1.23547697067261,-1.04759645462036
466,959429655,1.38511610031128,-1.13322961330414,69.97004699707031,-0.03842553496361,0.71503728628159,9.80229473114014,0.99566382169724,-1.30040907859802,-2.37756443023682
467,959437988,1.38159787654877,-1.13064336776733,69.98905944824219,-0.24912635982037,-0.13317878544331,9.79006004333496,-0.20335142314434,-0.64660578966141,1.32050359249115
468,959446321,1.38646030426025,-1.13190889358521,69.95975494384766,-0.12371577322483,0.94985306262970,9.75914669036865,0.68291395902634,-1.25696742534637,-4.57639312744141
469,959454654,1.36477124691010,-1.12499213218689,69.99443054199219,-0.45705363154411,-0.81332421302795,9.70392704010010,-2.34600782394409,-0.08678102493286,3.25153470039368
470,959462987,1.39963865280151,-1.13180410861969,69.96012878417969,-0.57109928131104,0.64418530464172,9.82760810852051,4.27187776565552,-1.93692278862000,-5.15883445739746
471,959471320,1.37291359901428,-1.12565934658051,69.98932647705078,-0.76101881265640,1.27981233596802,9.88698673248291,-2.97025203704834,-0.21118935942650,2.15173649787903
472,959479653,1.36829400062561,-1.12379062175751,69.97323608398438,-0.86867976188660,-1.49144053459167,9.60468196868896,-0.42196893692017,-0.84327191114426,-3.00075912475586
473,959487986,1.39680469036102,-1.13109731674194,69.97291564941406,-0.91566288471222,1.30703854560852,10.01346778869629,3.58385419845581,-1.91438233852386,-1.00753593444824
474,959496319,1.37267529964447,-1.12524437904358,69.98962402343750,-0.66799938678741,-0.06631491333246,9.49260902404785,-2.68742012977600,-0.27079370617867,0.92158740758896
475,959504652,1.38447988033295,-1.12682414054871,69.96181488037109,-0.74566048383713,0.15454460680485,9.95952224731445,1.51412153244019,-1.32994222640991,-4.64014673233032
476,959512985,1.37942337989807,-1.12554454803467,69.99894714355469,-0.51125979423523,-0.01574001275003,9.64280128479004,-0.34996733069420,-0.75989758968353,3.38498544692993
477,959521318,1.38811337947845,-1.12744235992432,69.95881652832031,-0.48162004351616,0.30514982342720,9.30957221984863,1.11822795867920,-1.41103708744049,-5.87992763519287
478,959529651,1.38103497028351,-1.12968885898590,69.98397064208984,-0.39236578345299,0.84515845775604,11.01778221130371,-0.62073534727097,-1.21818733215332,1.95783686637878
479,959537984,1.37385952472687,-1.12474846839905,69.97652435302734,-0.06449796259403,-1.13144052028656,9.15954494476318,-0.70644056797028,-0.50201338529587,-1.92870068550110
480,959546317,1.39704287052155,-1.12626099586487,69.96628570556641,-0.77894014120102,1.02533292770386,9.32068538665771,2.92756605148315,-1.23212158679962,-2.28668498992920
481,959554650,1.37930393218994,-1.11928367614746,69.97946166992188,-0.58249360322952,0.94287312030792,9.75422668457031,-1.91976130008698,-0.20483702421188,0.54557037353516
482,959562983,1.36330473423004,-1.12208116054535,69.96526336669922,-0.83125048875809,-0.99566256999969,9.69875144958496,-1.78446686267853,-1.39771759510040,-2.75995922088623
483,959571316,1.37817931175232,-1.12039399147034,69.98387908935547,-0.46698123216629,-0.24695029854774,10.09024143218994,1.99280035495758,-0.83814901113510,1.09412491321564
484,959579649,1.39035034179688,-1.12804126739502,69.95570373535156,-0.79872399568558,1.60449647903442,10.39580821990967,1.56396687030792,-2.01917028427124,-4.42053031921387
485,959587982,1.35762321949005,-1.12327218055725,69.98907470703125,-0.41527298092842,-0.26803380250931,9.48147869110107,-3.67100644111633,-0.43316236138344,2.95794486999512
486,959596315,1.37413418292999,-1.13174736499786,69.95954895019531,-0.19769574701786,-1.06710422039032,9.19285869598389,2.08186078071594,-2.12293338775635,-4.58366680145264
487,959604648,1.39255642890930,-1.13712418079376,69.99317932128906,0.14748753607273,1.30425572395325,9.87583923339844,2.46136164665222,-1.66062223911285,2.95440983772278
488,959612981,1.38905596733093,-1.13627588748932,69.96378326416016,0.36832672357559,0.98294633626938,9.69196987152100,-0.32074147462845,-1.00338649749756,-4.59360599517822
489,959621314,1.35859823226929,-1.13444268703461,69.99623107910156,0.44337818026543,-0.68494552373886,9.75873279571533,-3.40515661239624,-0.80228912830353,2.80912613868713
490,959629647,1.41177976131439,-1.14363193511963,69.96941375732422,0.46756106615067,-0.30323997139931,9.64697647094727,6.48674154281616,-2.20031452178955,-4.25513982772827
491,959637980,1.37923896312714,-1.13995647430420,69.99473571777344,0.37663099169731,1.68965554237366,10.58785057067871,-3.66316890716553,-0.58882004022598,2.24200105667114
492,959646313,1.39360821247101,-1.14334630966187,69.96765899658203,-0.21240177750587,-0.45950224995613,9.68237495422363,1.82871568202972,-1.50583541393280,-4.30319166183472
493,959654646,1.37047147750854,-1.13538801670074,69.99216461181641,0.33682030439377,0.15725493431091,9.93442344665527,-2.55097270011902,-0.08191432058811,1.79805517196655
494,959662979,1.39779543876648,-1.13403117656708,69.96891021728516,-0.41768825054169,-0.97163951396942,9.43708610534668,3.39205479621887,-0.92585223913193,-3.86032128334045
495,959671312,1.40696620941162,-1.13837349414825,69.99337005615234,0.27010816335678,1.94529461860657,9.38337612152100,1.33054423332214,-1.55816519260406,1.78614473342896
496,959679645,1.38442718982697,-1.13937473297119,69.96370697021484,0.12675590813160,0.48294347524643,10.00749683380127,-2.60558223724365,-1.22704994678497,-4.62101221084595
497,959687978,1.37163960933685,-1.13893878459930,69.98283386230469,0.62734353542328,-0.42213192582130,9.76584243774414,-1.31385648250580,-0.99570208787918,1.47623789310455
498,959696311,1.39668178558350,-1.14369475841522,69.96607971191406,0.38047495484352,-1.22689735889435,9.47488307952881,3.13306927680969,-1.63925993442535,-3.06133675575256
499,959704644,1.40154516696930,-1.14321327209473,69.97645568847656,0.36618980765343,2.65361881256104,9.31240749359131,0.78219467401505,-1.01942098140717,0.14957432448864
500,959712977,1.36202657222748,-1.14162218570709,69.96694183349609,0.23414838314056,0.08494325727224,9.59281444549561,-4.59667968750000,-0.85702675580978,-2.21227598190308
501,959721310,1.35526573657990,-1.13426387310028,69.97966003417969,0.22165200114250,-1.52835512161255,10.59627914428711,-0.60997742414474,-0.17740419507027,0.67223280668259
502,959729643,1.39118230342865,-1.13986301422119,69.96246337890625,-0.37816205620766,0.42892765998840,9.76360797882080,4.43849897384644,-1.74181938171387,-3.11212968826294
503,959737976,1.39701783657074,-1.14358842372894,69.97706604003906,-0.20015530288219,2.40751028060913,10.24159145355225,0.91533744335175,-1.50455451011658,0.73347645998001
504,959746309,1.36198329925537,-1.14132130146027,69.96254730224609,0.02565951272845,-0.70608180761337,9.18178081512451,-4.07081890106201,-0.79066020250320,-2.81385183334351
505,959754642,1.37517631053925,-1.14604341983795,69.97922515869141,0.54536342620850,-1.53726649284363,9.86230373382568,1.79226636886597,-1.61856353282928,1.17847263813019
506,959762975,1.40524721145630,-1.16243374347687,69.96475219726562,1.09166002273560,1.40022015571594,9.38931179046631,3.74158668518066,-3.02898573875427,-2.75450372695923
507,959771308,1.39018392562866,-1.15804243087769,69.98197937011719,1.63985776901245,1.79932498931885,10.16056632995605,-1.58216559886932,-0.52483564615250,1.11407828330994
508,959779641,1.36392402648926,-1.15879786014557,69.97039794921875,2.51063704490662,-1.73508739471436,9.74316787719727,-3.01003122329712,-1.14336812496185,-2.45292162895203
509,959787974,1.40174746513367,-1.16961598396301,70.00920867919922,2.80888652801514,-2.33689355850220,9.95917224884033,4.79863500595093,-2.27249503135681,3.67281270027161
510,959796307,1.47934544086456,-1.18781125545502,69.97377014160156,3.11408567428589,4.91102695465088,10.07209777832031,9.39365005493164,-3.31169033050537,-5.26206111907959
511,959804640,1.38437831401825,-1.16679358482361,70.01580810546875,3.25971198081970,1.38073563575745,9.45582389831543,-11.10121250152588,1.59111821651459,3.92127108573914
512,959812973,1.39381742477417,-1.16127085685730,69.96579742431641,3.28976511955261,-3.28563284873962,9.41718387603760,1.17993247509003,-0.50347334146500,-7.07903146743774
513,959821306,1.46086394786835,-1.16559863090515,69.97856140136719,2.43664574623108,3.61712598800659,9.32968711853027,8.23596286773682,-1.49927794933319,0.55187153816223
514,959829639,1.38173282146454,-1.15010106563568,69.95836639404297,2.13329815864563,1.69162583351135,8.81668186187744,-9.37627029418945,0.77804523706436,-3.53394508361816
515,959837972,1.32488763332367,-1.14178562164307,69.97115325927734,0.55923604965210,-4.11579036712646,10.09719944000244,-6.63475275039673,0.04552929848433,0.43361055850983
516,959846305,1.40071046352386,-1.15195930004120,69.95491027832031,-0.77761441469193,-0.04770518466830,10.49450397491455,9.22879600524902,-2.28799176216125,-2.98487806320190
517,959854638,1.40044045448303,-1.14089584350586,69.96125030517578,-2.81307005882263,3.68448662757874,10.60232257843018,0.15923088788986,0.37254625558853,-0.24994373321533
518,959862971,1.31986176967621,-1.11551487445831,69.96354675292969,-3.39318037033081,-1.79245483875275,10.08206272125244,-9.49517154693604,2.03058099746704,-0.86355829238892
519,959871304,1.35690295696259,-1.12415337562561,69.96549987792969,-3.46895623207092,-3.86423325538635,9.80434799194336,4.60704040527344,-2.02839112281799,-0.72027224302292
520,959879637,1.43695628643036,-1.15037333965302,69.95911407470703,-1.66242170333862,3.18818926811218,9.54526519775391,9.76060009002686,-4.18452119827271,-1.75324356555939
521,959887970,1.40542411804199,-1.15011787414551,69.95596313476562,0.43177449703217,2.96904301643372,9.52431106567383,-3.59623813629150,-1.01829385757446,-1.32277035713196
522,959896303,1.38052928447723,-1.15052711963654,69.95896148681641,3.09519529342651,-1.74677646160126,9.77512931823730,-2.81193089485168,-1.05963528156281,-0.70615887641907
523,959904636,1.42900180816650,-1.16516304016113,69.95195770263672,3.99097275733948,-0.74381870031357,9.48516273498535,5.96111106872559,-2.82640266418457,-1.78454375267029
524,959912969,1.44748115539551,-1.16521382331848,69.96167755126953,3.54327821731567,4.27834129333496,9.50103950500488,2.40903162956238,-0.99795627593994,0.10098412632942
525,959921302,1.36567974090576,-1.13592743873596,69.95973968505859,1.56560432910919,0.61798334121704,9.62377643585205,-9.63932895660400,2.50237035751343,-1.10469079017639
526,959929635,1.34593987464905,-1.12120997905731,69.97088623046875,-0.60109329223633,-2.90339946746826,9.37346267700195,-2.17375183105469,0.77627778053284,0.22954195737839
527,959937968,1.37941908836365,-1.12611746788025,69.96195983886719,-2.38371109962463,0.46608814597130,9.98868083953857,4.14895582199097,-1.59674024581909,-2.05374956130981
528,959946301,1.36120903491974,-1.12241244316101,69.96962738037109,-2.49835491180420,1.74298679828644,10.51244258880615,-1.99814093112946,-0.55416399240494,-0.15627245604992
529,959954634,1.34116005897522,-1.12267518043518,69.95716094970703,-1.11573028564453,-1.83707904815674,9.34426689147949,-2.26265931129456,-1.06575715541840,-2.24444746971130
530,959962967,1.35353541374207,-1.14479887485504,69.96384429931641,0.79771006107330,-1.96785235404968,9.95565223693848,1.67123901844025,-3.65489435195923,-0.20107172429562
531,959971300,1.41393482685089,-1.16131567955017,69.95707702636719,2.82432556152344,1.37401318550110,9.71737480163574,7.40268039703369,-3.02803778648376,-1.77007162570953
532,959979633,1.41256690025330,-1.16820859909058,69.96785736083984,4.49092674255371,2.13899445533752,10.09997081756592,0.03059620223939,-1.81484532356262,0.24905999004841
533,959987966,1.38966333866119,-1.17644143104553,69.95582580566406,5.61768865585327,-0.37873288989067,9.45660018920898,-2.59741139411926,-2.02941584587097,-2.33589029312134
534,959996299,1.41608166694641,-1.17771935462952,69.96546936035156,5.34979057312012,0.31423345208168,9.39925670623779,3.36165094375610,-1.14580166339874,0.09442689269781
535,960004632,1.43506729602814,-1.17601013183594,69.95693969726562,4.69631195068359,3.22584486007690,9.83445930480957,2.42757630348206,-0.77547091245651,-2.05129027366638
536,960012965,1.37990248203278,-1.16167187690735,69.96112060546875,3.36729288101196,1.17908608913422,9.11791706085205,-6.44016075134277,0.71316426992416,-0.60641694068909
537,960021298,1.35973346233368,-1.15144932270050,69.96070861816406,2.61702847480774,-1.86490452289581,9.40058231353760,-2.26629638671875,0.32426342368126,-1.01788413524628
538,960029631,1.37699222564697,-1.14781260490417,69.96533203125000,1.03618752956390,-0.12902331352234,10.91497325897217,2.25083827972412,-0.57117182016373,-0.52189004421234
539,960037964,1.37016379833221,-1.13373816013336,69.95966339111328,-0.37249773740768,1.73409366607666,10.28776741027832,-0.67042696475983,0.80404359102249,-1.58593082427979
540,960046297,1.33962166309357,-1.12085497379303,69.96070098876953,-0.96264773607254,-1.65422236919403,9.62345218658447,-3.49319195747375,0.52717924118042,-0.97503131628036
541,960054630,1.37696194648743,-1.13203322887421,69.95661163330078,-0.48738360404968,-1.52123904228210,9.71595382690430,4.62458610534668,-2.22597956657410,-1.49996948242188
542,960062963,1.41013514995575,-1.14556014537811,69.95069122314453,0.43819111585617,1.46939086914062,9.23853206634521,4.13578939437866,-2.66031980514526,-1.73536431789398
543,960071296,1.39562034606934,-1.13722431659698,69.94393157958984,1.68738341331482,1.03092169761658,9.36776638031006,-1.58457338809967,0.09621986746788,-1.84478819370270
544,960079629,1.39531910419464,-1.12848305702209,69.93317413330078,1.52351379394531,-0.86620777845383,9.85039424896240,0.10741329193115,-0.00332985050045,-2.38217496871948
545,960087962,1.41525924205780,-1.12884414196014,69.93452453613281,0.69447726011276,0.35768634080887,9.24581813812256,2.55641579627991,-0.91947418451309,-0.97577428817749
546,960096295,1.40755331516266,-1.11846268177032,69.92224884033203,-1.62616157531738,1.94713485240936,9.61067867279053,-0.78540933132172,0.18848237395287,-2.56908226013184
547,960104628,1.36550247669220,-1.10053884983063,69.92838287353516,-4.24617338180542,0.65991532802582,9.78439998626709,-4.86847162246704,1.29386460781097,-0.56558793783188
548,960112961,1.34483122825623,-1.08270561695099,69.92758941650391,-7.02435970306396,-1.79781627655029,9.70333766937256,-2.31365680694580,1.11648583412170,-1.21122014522552
549,960121294,1.37042510509491,-1.08441269397736,69.92140960693359,-8.32857513427734,0.11670889705420,10.41563320159912,3.21357440948486,-1.12487459182739,-1.77112185955048
550,960129627,1.35787880420685,-1.08060419559479,69.92117309570312,-8.26756286621094,1.22257912158966,10.75377559661865,-1.33739602565765,-0.56407666206360,-1.10497248172760
551,960137960,1.33796334266663,-1.08028471469879,69.93248748779297,-7.31574392318726,-1.67660129070282,10.16160297393799,-2.19793200492859,-0.91903877258301,0.26394191384315
552,960146293,1.37018144130707,-1.09189128875732,69.91803741455078,-5.64755821228027,-1.05019283294678,9.99329757690430,4.00241613388062,-2.45471453666687,-2.76418566703796
553,960154626,1.39830446243286,-1.10567808151245,69.92466735839844,-3.62539935112000,1.27218484878540,10.77065372467041,3.56469488143921,-2.70237898826599,-0.10245694220066
554,960162959,1.38858819007874,-1.11804056167603,69.92501831054688,-2.09316825866699,0.66329240798950,8.84606456756592,-0.99624007940292,-2.50348424911499,-0.98650676012039
555,960171292,1.38474941253662,-1.11062431335449,69.93418884277344,-1.08258259296417,-0.10904489457607,9.30687904357910,-0.26239219307899,-0.20081558823586,0.15825754404068
556,960179625,1.39426648616791,-1.12856566905975,69.93711090087891,-0.66713637113571,0.13547244668007,9.51721668243408,1.31691753864288,-3.16471600532532,-0.66325509548187
557,960187958,1.39993333816528,-1.13836038112640,69.95156097412109,0.30822190642357,1.61199915409088,9.03155517578125,0.89079910516739,-2.26783323287964,0.85575872659683
558,960196291,1.35504329204559,-1.13674747943878,69.95021057128906,0.82658851146698,-0.21703538298607,9.56462764739990,-5.22125673294067,-0.83092576265335,-1.23281311988831
559,960204624,1.36347723007202,-1.14047586917877,69.96248626708984,1.32198989391327,-1.23674225807190,9.79988288879395,1.20892775058746,-1.55053198337555,0.48053577542305
560,960212957,1.38232696056366,-1.15292704105377,69.95256042480469,2.16063833236694,0.79870563745499,10.21033191680908,2.40577864646912,-2.54305791854858,-2.21995997428894
561,960221290,1.37168264389038,-1.15676951408386,69.95773315429688,3.26736307144165,1.09252178668976,9.57606506347656,-1.08819508552551,-1.57783663272858,-0.44794175028801
562,960229623,1.37152969837189,-1.16004014015198,69.94893646240234,4.47245121002197,-0.82573181390762,9.92530441284180,0.12836575508118,-1.43749654293060,-2.11273884773254
563,960237956,1.39755177497864,-1.17086994647980,69.95648956298828,5.61225700378418,-0.05565042421222,9.67421340942383,3.30983281135559,-2.38045907020569,-0.11987461149693
564,960246289,1.41964197158813,-1.18540203571320,69.94963073730469,6.54180622100830,1.81831181049347,10.26499080657959,2.80308103561401,-2.78421640396118,-1.84320044517517
565,960254622,1.39661324024200,-1.18880796432495,69.95152282714844,7.28710842132568,0.93922287225723,9.45672512054443,-2.57781672477722,-1.45263445377350,-0.59299516677856
566,960262955,1.38702750205994,-1.18163836002350,69.94546508789062,7.02661275863647,-0.48803004622459,9.21124458312988,-0.99726462364197,-0.17801894247532,-1.81228399276733
567,960271288,1.40180754661560,-1.17710566520691,69.95162963867188,6.16005229949951,0.43651109933853,9.85229015350342,1.95847713947296,-0.42038080096245,-0.10837382823229
568,960279621,1.39957058429718,-1.17550432682037,69.94519805908203,5.17508506774902,1.84769773483276,10.42630672454834,-0.11667285114527,-0.84762620925903,-1.84174025058746
569,960287954,1.37042498588562,-1.16198754310608,69.95033264160156,4.05938673019409,0.55406755208969,9.75732707977295,-3.32188487052917,0.70548009872437,-0.71417617797852
570,960296287,1.36294674873352,-1.14331638813019,69.94718933105469,2.91558313369751,-1.26234340667725,10.08277702331543,-0.73651170730591,1.21036231517792,-1.49617862701416
571,960304620,1.39958477020264,-1.14160215854645,69.95120239257812,1.96095871925354,0.40405869483948,9.33857059478760,4.56523847579956,-0.66310137510300,-0.47698828577995
572,960312953,1.39387392997742,-1.14593780040741,69.94324493408203,1.89624738693237,2.30036640167236,10.04857349395752,-0.53508138656616,-1.56390273571014,-2.00772070884705
573,960321286,1.35574662685394,-1.12876653671265,69.94464874267578,1.31189703941345,-1.14712607860565,9.18167686462402,-4.40477752685547,1.20400989055634,-0.81432771682739
574,960329619,1.38992393016815,-1.12745404243469,69.93431091308594,0.70900791883469,-1.28841054439545,9.10468196868896,4.24485492706299,-0.89396250247955,-2.30825209617615
575,960337952,1.41155314445496,-1.12504136562347,69.92288208007812,-0.67583405971527,2.19518113136292,9.64473152160645,2.73297500610352,-0.59217560291290,-2.31824207305908
576,960346285,1.37050461769104,-1.10697758197784,69.92290496826172,-2.02857446670532,0.44236761331558,9.43626785278320,-4.75728082656860,1.14632666110992,-1.11603796482086
577,960354618,1.35942924022675,-1.09377503395081,69.91912841796875,-3.91376900672913,-1.79944097995758,9.71926307678223,-1.18278849124908,0.71523904800415,-1.67760431766510
578,960362951,1.37960720062256,-1.08636534214020,69.91425323486328,-5.51391506195068,-0.14928452670574,9.96306228637695,2.57977604866028,-0.14474605023861,-1.67243027687073
579,960371284,1.38148772716522,-1.08393454551697,69.90464019775391,-6.85309982299805,1.50324487686157,9.78959655761719,0.37380132079124,-0.62017184495926,-2.06468653678894
580,960379617,1.34349274635315,-1.07645940780640,69.93298339843750,-7.14529943466187,-0.88121950626373,10.36268520355225,-4.32616758346558,-0.04210980609059,2.31323432922363
581,960387950,1.37641882896423,-1.07892751693726,69.91702270507812,-7.85761308670044,-1.62577164173126,9.95542430877686,4.08089828491211,-1.28670537471771,-2.84902000427246
582,960396283,1.41499853134155,-1.08704400062561,69.89846801757812,-6.68157052993774,2.04994845390320,10.43458461761475,4.75631999969482,-2.04913878440857,-3.26842761039734
583,960404616,1.39196658134460,-1.08303284645081,69.91445159912109,-6.37555122375488,1.02477467060089,10.40274238586426,-2.54608035087585,-0.48631182312965,1.05224549770355
584,960412949,1.37970435619354,-1.08570063114166,69.90402984619141,-4.84888219833374,-1.65393686294556,8.00890159606934,-1.32748329639435,-1.37156546115875,-2.30668973922729
585,960421282,1.43169140815735,-1.10624396800995,69.91562652587891,-4.87342119216919,1.13220620155334,10.88057518005371,6.43192672729492,-3.51358175277710,0.41532203555107
586,960429615,1.37979471683502,-1.08166849613190,69.89364624023438,-3.63559412956238,1.89229345321655,10.52010250091553,-6.10930204391479,1.86349976062775,-3.77433443069458
587,960437948,1.34393656253815,-1.07733511924744,69.94083404541016,-5.17661905288696,-2.16251468658447,9.69621562957764,-4.02645540237427,-0.47445252537727,4.59051942825317
588,960446281,1.35011553764343,-1.08935475349426,69.89691925048828,-4.44358491897583,-0.78813278675079,9.53253173828125,0.81065207719803,-2.58667922019958,-6.30020475387573
589,960454614,1.34456276893616,-1.09270489215851,69.94642639160156,-5.92497968673706,0.66284477710724,9.67996501922607,-0.37432643771172,-1.42361366748810,5.20026683807373
590,960462947,1.33081603050232,-1.09963345527649,69.91599273681641,-4.28618001937866,-0.06769392639399,9.87664794921875,-1.55083966255188,-1.93810117244720,-4.69611406326294
591,960471280,1.33428168296814,-1.11377048492432,69.95307922363281,-3.25618982315063,-1.74497246742249,9.82975578308105,0.67702269554138,-2.80893421173096,3.40614271163940
592,960479613,1.38390100002289,-1.15203487873077,69.92745971679688,0.97678625583649,0.70375138521194,9.29986286163330,6.06195497512817,-5.68433761596680,-4.02952957153320
593,960487946,1.40167868137360,-1.17376935482025,69.95478057861328,3.80214548110962,1.77556204795837,8.66313171386719,2.38180375099182,-3.78317141532898,2.06902837753296
594,960496279,1.39906835556030,-1.18798482418060,69.92932128906250,8.21701908111572,0.65000551939011,10.05164813995361,-0.20693741738796,-2.80107045173645,-4.07694101333618
595,960504612,1.41980254650116,-1.19922542572021,69.95074462890625,9.72375392913818,-0.67334812879562,9.31130599975586,2.73133587837219,-2.49715757369995,2.21748828887939
596,960512945,1.45299983024597,-1.22499668598175,69.93032073974609,11.54634380340576,2.87501192092896,9.84185504913330,4.10072374343872,-4.17381381988525,-3.43804502487183
597,960521278,1.40898096561432,-1.21503710746765,69.95856475830078,10.65061092376709,1.59763872623444,9.76929569244385,-5.03027725219727,0.13341175019741,2.35360264778137
598,960529611,1.39329886436462,-1.19976854324341,69.91724395751953,9.99812030792236,0.02302346751094,9.83883094787598,-1.81720173358917,0.68867713212967,-6.06716680526733
599,960537944,1.37775278091431,-1.19698762893677,69.95726013183594,8.55208206176758,-1.06677877902985,10.08640861511230,-1.59809780120850,-0.59396857023239,3.98297524452209
600,960546277,1.40297913551331,-1.19479191303253,69.91722106933594,7.82599878311157,1.27584183216095,10.38597011566162,3.09536504745483,-0.87324053049088,-5.87339544296265
601,960554610,1.37673175334930,-1.18492054939270,69.95211029052734,6.82332181930542,0.97158402204514,10.25526809692383,-2.88826131820679,0.32270094752312,3.45480942726135
602,960562943,1.36722373962402,-1.17733538150787,69.90724945068359,6.30550146102905,-0.79787206649780,10.08126640319824,-1.08284175395966,-0.23875027894974,-6.46808099746704
603,960571276,1.37835514545441,-1.17305934429169,69.94416809082031,5.83028078079224,-0.83592152595520,9.70523834228516,1.59250104427338,-0.28334468603134,3.64443135261536
604,960579609,1.42304921150208,-1.18885910511017,69.91034698486328,5.20021200180054,1.96728301048279,9.63011264801025,5.44936513900757,-3.01551294326782,-5.07576847076416
605,960587942,1.38869798183441,-1.17243170738220,69.93001556396484,4.27822399139404,1.76703059673309,8.12180614471436,-3.90061259269714,1.17460489273071,1.46112561225891
606,960596275,1.37925064563751,-1.16223156452179,69.89891815185547,3.15308570861816,-0.83011662960052,9.41548919677734,-1.04073190689087,0.11230561137199,-4.82636260986328
607,960604608,1.39164626598358,-1.15994584560394,69.91768646240234,1.90640318393707,0.49896284937859,9.30552196502686,1.69272947311401,-0.48984661698341,1.34952437877655
608,960612941,1.38342773914337,-1.14535009860992,69.88475799560547,-0.54995030164719,2.15502047538757,9.54811382293701,-0.89706170558929,0.63598865270615,-5.05701828002930
609,960621274,1.33365392684937,-1.11868524551392,69.91764831542969,-2.95428848266602,-0.87258428335190,10.40242576599121,-5.73815202713013,2.48559284210205,2.73056721687317
610,960629607,1.32513821125031,-1.10878753662109,69.88417053222656,-4.89920711517334,-1.96808159351349,10.39864158630371,-0.93064188957214,0.07437092810869,-5.10732460021973
611,960637940,1.36729419231415,-1.09512495994568,69.90847778320312,-6.26085948944092,0.69081848859787,9.87187862396240,5.27336978912354,0.88890367746353,2.02786636352539
612,960646273,1.35414385795593,-1.08017778396606,69.87211608886719,-6.48537921905518,1.41481554508209,9.29438686370850,-1.49092793464661,0.66903108358383,-5.46935653686523
613,960654606,1.35368371009827,-1.08080863952637,69.90592193603516,-5.33482885360718,-1.24330806732178,10.49590969085693,0.18205319344997,-0.85595095157623,2.87469863891602
614,960662939,1.38997459411621,-1.10318863391876,69.86741638183594,-3.16270756721497,-0.92575305700302,9.67592334747314,4.43565607070923,-3.81595802307129,-5.62027645111084
615,960671272,1.41953194141388,-1.11377775669098,69.89377593994141,-1.83188056945801,1.94759929180145,10.68564128875732,3.76625347137451,-2.12772345542908,1.80684101581573
616,960679605,1.38679516315460,-1.09565436840057,69.87488555908203,-2.01907205581665,0.50034481287003,9.44414043426514,-3.80345749855042,1.09814620018005,-3.38422942161560
617,960687938,1.37077796459198,-1.08970296382904,69.89828491210938,-2.82754063606262,-1.56424295902252,9.22792339324951,-1.70811104774475,-0.17046272754669,1.63809442520142
618,960696271,1.38675630092621,-1.08305835723877,69.87319946289062,-4.31524848937988,0.42774650454521,9.51844310760498,2.02804565429688,-0.29579320549965,-4.09392309188843
619,960704604,1.37855124473572,-1.08146500587463,69.89917755126953,-6.05765342712402,1.58854126930237,9.56323909759521,-0.75567114353180,-0.70226550102234,2.14272046089172
620,960712937,1.33308851718903,-1.08325147628784,69.88352203369141,-6.38666772842407,-0.78880703449249,10.28371143341064,-5.32263851165771,-1.28040456771851,-2.93544316291809
621,960721270,1.33733296394348,-1.09148669242859,69.90179443359375,-5.87630081176758,-1.69088578224182,10.09957695007324,0.71039801836014,-1.95818281173706,0.95258069038391
622,960729603,1.36089611053467,-1.09707546234131,69.87499237060547,-4.65222787857056,1.14122796058655,9.81873416900635,2.93504548072815,-1.76625514030457,-4.26528263092041
623,960737936,1.35809922218323,-1.10073995590210,69.91079711914062,-3.17706060409546,0.11632978916168,10.25876045227051,-0.08831787854433,-1.41603171825409,2.83397173881531
624,960746269,1.35709869861603,-1.10599637031555,69.88926696777344,-1.79260826110840,-0.51552295684814,9.72051811218262,-0.00007684270531,-1.71105647087097,-3.63325095176697
625,960754602,1.38235247135162,-1.12837767601013,69.92285156250000,-0.48374298214912,0.40793412923813,9.87596893310547,3.28009486198425,-3.68944931030273,3.08158469200134
626,960762935,1.37586057186127,-1.14667797088623,69.91043090820312,1.10023725032806,1.05832612514496,9.02605915069580,-0.63968980312347,-3.25098395347595,-2.50215220451355
627,960771268,1.37434804439545,-1.14117789268494,69.92980194091797,1.79880404472351,0.66863346099854,9.21001529693604,0.03871591389179,-0.39410063624382,1.29916679859161
628,960779601,1.38138103485107,-1.14722967147827,69.91859436035156,3.83953118324280,0.32261520624161,9.61966514587402,0.98726224899292,-1.77906227111816,-2.39211297035217
629,960787934,1.38324320316315,-1.16532385349274,69.92961883544922,4.84818887710571,0.43456751108170,9.65308856964111,0.41634657979012,-3.23909926414490,0.27800410985947
630,960796267,1.38748836517334,-1.16962873935699,69.91740417480469,5.93841075897217,1.52597224712372,9.60700321197510,0.64864206314087,-1.57325196266174,-2.51769995689392
631,960804600,1.33906698226929,-1.15900790691376,69.92735290527344,5.79707860946655,-1.16737687587738,9.36793422698975,-5.61968660354614,0.23766168951988,0.14148023724556
632,960812933,1.36570954322815,-1.15609204769135,69.92068481445312,4.92141103744507,-0.69245684146881,10.51267623901367,3.35022640228271,-0.68884354829788,-1.87160658836365
633,960821266,1.37711071968079,-1.15271449089050,69.93278503417969,3.94245457649231,1.05219244956970,9.68093299865723,1.56227612495422,-0.58336418867111,0.25436213612556
634,960829599,1.36731982231140,-1.14593505859375,69.92433166503906,3.75485968589783,1.27545464038849,10.46115779876709,-1.02597820758820,-0.23260289430618,-2.09906101226807
635,960837932,1.36354684829712,-1.15919709205627,69.93029022216797,4.58331203460693,-0.96969234943390,10.18476295471191,-0.27261230349541,-2.56360077857971,-0.41461762785912
636,960846265,1.38456499576569,-1.18178522586823,69.92085266113281,5.97917890548706,-0.01842062547803,9.14375877380371,2.66770958900452,-3.75740313529968,-2.13077116012573
637,960854598,1.39188480377197,-1.18525111675262,69.92744445800781,6.69123888015747,1.84723651409149,9.66893768310547,1.06254267692566,-1.35453212261200,-0.28342154622078
638,960862931,1.38353824615479,-1.16755104064941,69.91191101074219,6.68820428848267,1.14526534080505,9.69318103790283,-0.87188297510147,1.05734288692474,-2.97873067855835
639,960871264,1.37131392955780,-1.14544141292572,69.92127227783203,5.15804290771484,-0.71321302652359,10.14910316467285,-1.28158283233643,1.76800990104675,-0.04469684511423
640,960879597,1.39835739135742,-1.13683438301086,69.90834045410156,2.35318756103516,1.21347498893738,9.76263046264648,3.38393521308899,-0.02438475377858,-2.63895773887634
641,960887930,1.36703479290009,-1.13784039020538,69.91761779785156,0.06196079030633,1.80541288852692,9.34682369232178,-3.57633614540100,-0.96476018428802,-0.05873343721032
642,960896263,1.31847238540649,-1.11638128757477,69.90776824951172,-1.77152323722839,-0.75726056098938,9.48892402648926,-5.68146753311157,1.52697968482971,-2.30784249305725
643,960904596,1.33511042594910,-1.09305727481842,69.91532135009766,-3.52016925811768,-1.61888372898102,9.50748920440674,2.16492819786072,1.95481419563293,-0.33903002738953
644,960912929,1.36624109745026,-1.08719885349274,69.89974975585938,-3.81189942359924,1.00025320053101,10.47823619842529,3.86973476409912,-0.36182668805122,-2.95132350921631
645,960921262,1.34348869323730,-1.09298980236053,69.90360260009766,-3.43772172927856,0.22977066040039,10.29909896850586,-2.54992294311523,-1.55778098106384,-0.15619561076164
646,960929595,1.33627903461456,-1.08635294437408,69.89113616943359,-2.87577700614929,-1.96991157531738,8.91055774688721,-0.72431939840317,-0.25819146633148,-2.58142828941345
647,960937928,1.38037705421448,-1.07953572273254,69.89069366455078,-3.53425502777100,0.15784983336926,9.13282585144043,5.44851875305176,-0.10430115461349,-1.36926007270813
648,960946261,1.39528763294220,-1.08025777339935,69.87518310546875,-3.28244638442993,2.09000587463379,10.25396537780762,1.92236101627350,-1.15164160728455,-2.92537593841553
649,960954594,1.37924671173096,-1.07566392421722,69.88486480712891,-3.17218327522278,0.64709460735321,9.73695278167725,-1.73810505867004,-0.36764106154442,-0.17386940121651
650,960962927,1.36819338798523,-1.07960808277130,69.87910461425781,-3.30369091033936,-0.73636507987976,9.66802787780762,-1.16982769966125,-1.50972855091095,-1.74489283561707
651,960971260,1.37904226779938,-1.08149862289429,69.88919067382812,-4.35990333557129,0.10409457236528,9.10992813110352,1.48028492927551,-1.17274749279022,-0.12568904459476
652,960979593,1.34592068195343,-1.07739853858948,69.87799835205078,-5.45315170288086,1.61961174011230,10.18206310272217,-3.83091664314270,-0.56005531549454,-2.42018651962280
653,960987926,1.31725299358368,-1.06742131710052,69.90943145751953,-6.82939434051514,-1.24761724472046,11.14732265472412,-3.21133351325989,0.27877253293991,2.31927943229675
654,960996259,1.33052682876587,-1.06230771541595,69.89089965820312,-7.11445808410645,-1.96081221103668,10.12695217132568,1.72054660320282,-0.45767512917519,-3.30331397056580
655,961004592,1.36383426189423,-1.07280838489532,69.90544128417969,-7.19474744796753,1.44727611541748,10.20028495788574,4.18963146209717,-2.27036905288696,0.35868895053864
656,961012925,1.34742677211761,-1.08670330047607,69.90135955810547,-4.98981904983521,0.73791080713272,9.88160991668701,-1.80964589118958,-2.69976615905762,-1.51707994937897
657,961021258,1.33606898784637,-1.10306823253632,69.91816711425781,-2.03068828582764,-1.69560992717743,8.54218196868896,-1.16170799732208,-3.02127599716187,0.63327360153198
658,961029591,1.39343321323395,-1.12031209468842,69.91354370117188,0.97402435541153,0.96077764034271,9.56826591491699,7.04157209396362,-3.10324168205261,-1.57030642032623
659,961037924,1.38216996192932,-1.13003134727478,69.93421173095703,3.28340697288513,1.65794312953949,9.96442127227783,-1.13319945335388,-2.23609733581543,1.19591593742371
660,961046257,1.35868716239929,-1.13751149177551,69.92968750000000,4.74449157714844,-0.19180481135845,9.56651973724365,-2.65896224975586,-1.93098032474518,-1.58667373657227
661,961054590,1.36460256576538,-1.13509619235992,69.94327545166016,4.12154674530029,-0.26531359553337,9.23783874511719,0.90483570098877,-0.78405177593231,0.33479088544846
662,961062923,1.37252581119537,-1.12800562381744,69.94068908691406,3.05029320716858,1.25698113441467,9.19392490386963,1.11228537559509,-0.17735296487808,-1.39764070510864
663,961071256,1.35188591480255,-1.13069415092468,69.94425201416016,2.41777157783508,0.76454418897629,10.33316516876221,-2.30118298530579,-1.39418280124664,-0.83236020803452
664,961079589,1.33839464187622,-1.13495862483978,69.93931579589844,3.00164914131165,-0.78321605920792,10.13497257232666,-1.46229100227356,-1.54625439643860,-1.64658546447754
665,961087922,1.35947763919830,-1.14564442634583,69.94532775878906,3.46266818046570,-0.89732342958450,9.87817955017090,2.70513248443604,-2.32928180694580,-0.51489740610123
666,961096255,1.38059699535370,-1.15628206729889,69.93782043457031,4.68013286590576,1.53218197822571,10.03602886199951,2.68528103828430,-2.31857466697693,-1.93407952785492
667,961104588,1.36572086811066,-1.15952610969543,69.94493865966797,5.41605901718140,0.54192739725113,9.99440097808838,-1.60022366046906,-1.40950000286102,-0.40219467878342
668,961112921,1.36967504024506,-1.16238594055176,69.93693542480469,6.09892320632935,-0.64738506078720,9.67165756225586,0.62415492534637,-1.38734388351440,-2.01699304580688
669,961121254,1.39988327026367,-1.16321003437042,69.94439697265625,5.57928228378296,0.85022139549255,9.45085811614990,3.80797863006592,-1.08256006240845,-0.27991232275963
670,961129587,1.40126466751099,-1.16031217575073,69.93844604492188,5.00912427902222,2.58400392532349,9.78882980346680,0.31972968578339,-0.69017553329468,-1.78705394268036
671,961137920,1.35332143306732,-1.14874672889709,69.94812774658203,4.16380834579468,-0.43053984642029,9.34571456909180,-5.56356573104858,0.45220655202866,0.01640591770411
672,961146253,1.38590908050537,-1.14443337917328,69.95770263671875,2.74068832397461,-0.74035197496414,9.44550514221191,4.10290050506592,-0.47534894943237,0.06986282765865
673,961154586,1.38286077976227,-1.12896406650543,69.93569183349609,1.37284648418427,3.09760808944702,9.91043186187744,-0.26167500019073,0.85258257389069,-3.97819757461548
674,961162919,1.32903361320496,-1.10387384891510,69.93933105468750,-1.03803586959839,-0.50820684432983,9.72251224517822,-6.28084039688110,1.99969053268433,-0.70047253370285
675,961171252,1.33196091651917,-1.09407317638397,69.93527221679688,-2.23430800437927,-2.86120462417603,9.25966835021973,0.49300995469093,0.23901921510696,-1.76213121414185
676,961179585,1.37325012683868,-1.08730113506317,69.92324066162109,-4.41749334335327,0.82277262210846,9.94831752777100,5.09568262100220,-0.24087625741959,-2.52666473388672
677,961187918,1.35172653198242,-1.07943511009216,69.92062377929688,-4.65389585494995,1.95135748386383,9.92330932617188,-2.42277407646179,-0.00292002293281,-1.55260705947876
678,961196251,1.32568109035492,-1.07412600517273,69.92109680175781,-5.03230810165405,-1.92534482479095,10.12625598907471,-2.95488381385803,-0.38195943832397,-1.02341663837433
679,961204584,1.36090290546417,-1.07587850093842,69.92098236083984,-4.38265895843506,-1.72310519218445,9.22680950164795,4.38122510910034,-1.18294227123260,-1.31198680400848
680,961212917,1.40885865688324,-1.09364867210388,69.90179443359375,-4.35924720764160,2.43281245231628,10.41891479492188,5.88160467147827,-3.20872068405151,-3.31343173980713
681,961221250,1.36646807193756,-1.08641004562378,69.92184448242188,-3.55765080451965,1.33818352222443,10.05525398254395,-4.87128973007202,-0.07791850715876,1.14576315879822
682,961229583,1.34259438514709,-1.07576751708984,69.91253662109375,-4.36944150924683,-2.29563856124878,9.33705425262451,-2.71702980995178,0.22967001795769,-2.21127676963806
683,961237916,1.39047682285309,-1.08272671699524,69.91133880615234,-4.66612195968628,0.38941717147827,10.31593132019043,5.90355587005615,-1.87324559688568,-1.39384961128235
684,961246249,1.37268102169037,-1.08087849617004,69.90663146972656,-5.56047391891479,3.08182835578918,10.32427692413330,-1.97682964801788,-0.81186884641647,-1.63618624210358
685,961254582,1.31977725028992,-1.07835626602173,69.93481445312500,-5.28400182723999,-1.06913328170776,9.59907817840576,-6.11550092697144,-0.68172287940979,2.23336911201477
686,961262915,1.32989263534546,-1.08583307266235,69.91989135742188,-4.95478105545044,-1.90788948535919,9.99131107330322,1.34957563877106,-1.95869481563568,-2.83395862579346
687,961271248,1.35673987865448,-1.09402441978455,69.94673156738281,-3.88206076622009,1.08109402656555,9.88074588775635,3.44236135482788,-2.01069188117981,1.89843761920929
688,961279581,1.34871172904968,-1.10002899169922,69.93605041503906,-2.56585168838501,0.88330942392349,9.76873397827148,-0.81855404376984,-1.77258205413818,-2.32923054695129
689,961287914,1.33467292785645,-1.10884499549866,69.95994567871094,-0.33440053462982,-1.07295560836792,9.54645442962646,-1.46226537227631,-2.12180638313293,1.64982557296753
690,961296247,1.36905384063721,-1.12579298019409,69.94587707519531,1.41795384883881,-0.88213890790939,9.29014778137207,4.26127338409424,-3.09371304512024,-2.70424842834473
691,961304580,1.39492106437683,-1.13869142532349,69.96911621093750,3.00376105308533,2.20902681350708,9.43563938140869,3.32684087753296,-2.62425541877747,1.50026416778564
692,961312913,1.36666977405548,-1.14491832256317,69.95169830322266,4.52060508728027,0.99981355667114,9.60571956634521,-3.26233124732971,-1.81825208663940,-3.13426017761230
693,961321246,1.35131704807281,-1.14808881282806,69.97830963134766,5.34755659103394,-1.85359907150269,9.13775634765625,-1.61177575588226,-1.42976093292236,2.02976179122925
694,961329579,1.39511120319366,-1.15497243404388,69.95629882812500,5.24179792404175,0.97985428571701,9.90254783630371,5.37213706970215,-1.91077041625977,-3.68606734275818
695,961337912,1.37345075607300,-1.15123069286346,69.97725677490234,4.71429061889648,2.44864392280579,10.00169754028320,-2.37784624099731,-0.58438879251480,1.31333160400391
696,961346245,1.34062981605530,-1.14798712730408,69.95179748535156,4.25229215621948,-0.69968062639236,10.11770725250244,-3.83027625083923,-0.70369982719421,-4.12594079971313
697,961354578,1.35499215126038,-1.15231013298035,69.97201538085938,3.70417189598083,-1.24887120723724,9.76767730712891,1.93550121784210,-1.52115273475647,1.36527729034424
