sep=,
DeviceTag:,Xsens DOT
FirmwareVersion:,3.0.0
AppVersion:,2023.6.0
StartTime: ,2025-03-06_12:26:07_000 PST
© Movella Technologies B. V. 2005-2025

PacketCounter,SampleTimeFine,Euler_X,Euler_Y,Euler_Z,Acc_X,Acc_Y,Acc_Z,Gyr_X,Gyr_Y,Gyr_Z
0,991011697,-1.05227971076965,0.22651660442352,15.33150863647461,0.00000000000000,0.00000000000000,0.00000000000000,0.00000000000000,0.00000000000000,0.00000000000000
1,991020030,-1.05239522457123,0.22665703296661,15.33199596405029,-0.10001820325851,-0.17374971508980,9.86060142517090,1.30421280860901,0.16458424925804,-0.24451346695423
2,991028363,-1.05208802223206,0.22692134976387,15.33196830749512,-0.07398185133934,-0.20621646940708,9.83922195434570,1.35536432266235,0.17926120758057,-0.31280100345612
3,991036696,-1.05186402797699,0.22688779234886,15.33150196075439,-0.06060604006052,-0.18827712535858,9.85695362091064,1.34376120567322,0.14404164254665,-0.35818946361542
4,991045029,-1.05214285850525,0.22721649706364,15.33224868774414,-0.07862404733896,-0.15419383347034,9.84334945678711,1.28587293624878,0.18658688664436,-0.21841257810593
5,991053362,-1.05201077461243,0.22784030437469,15.33226203918457,-0.05954756215215,-0.18847741186619,9.85849761962891,1.33315694332123,0.22275419533253,-0.30690973997116
6,991061695,-1.05211198329926,0.22795306146145,15.33199214935303,-0.06476899236441,-0.18726858496666,9.83432960510254,1.30544209480286,0.16087017953396,-0.34200122952461
7,991070028,-1.05170917510986,0.22827786207199,15.33213043212891,-0.04697987437248,-0.15848554670811,9.86096668243408,1.36712133884430,0.18612582981586,-0.28621345758438
8,991078361,-1.05116951465607,0.22831417620182,15.33209800720215,-0.04268101230264,-0.19299800693989,9.89259624481201,1.38251543045044,0.15239188075066,-0.31282663345337
9,991086694,-1.05142295360565,0.22736261785030,15.33263778686523,-0.01660879887640,-0.18724714219570,9.85988807678223,1.28740978240967,0.03215867280960,-0.23162952065468
10,991095027,-1.05159449577332,0.22693085670471,15.33250617980957,-0.02538543939590,-0.17492993175983,9.83782672882080,1.29668223857880,0.09650162607431,-0.32617166638374
11,991103360,-1.05174994468689,0.22693912684917,15.33319282531738,-0.00445622112602,-0.18894949555397,9.86011505126953,1.29970479011536,0.14698730409145,-0.21382765471935
12,991111693,-1.05083751678467,0.22630757093430,15.33293819427490,0.01250300183892,-0.21211040019989,9.82999324798584,1.42680239677429,0.07285968959332,-0.34105351567268
13,991120026,-1.05114126205444,0.22643254697323,15.33243751525879,0.00648047588766,-0.17298434674740,9.86281204223633,1.28182601928711,0.16427689790726,-0.36077651381493
14,991128359,-1.05132877826691,0.22581672668457,15.33215141296387,0.02750983461738,-0.17748349905014,9.87631607055664,1.29547834396362,0.07347442954779,-0.34471637010574
15,991136692,-1.05128741264343,0.22537490725517,15.33169364929199,0.01019995380193,-0.20471437275410,9.84333515167236,1.32301366329193,0.09588688611984,-0.36044350266457
16,991145025,-1.05090844631195,0.22485882043839,15.33220577239990,-0.00950612872839,-0.18862761557102,9.81974506378174,1.36440622806549,0.08610224723816,-0.25007176399231
17,991153358,-1.05058372020721,0.22505886852741,15.33295154571533,-0.01316838432103,-0.16577428579330,9.87472152709961,1.35582542419434,0.16865693032742,-0.20993426442146
18,991161691,-1.05032181739807,0.22511626780033,15.33295726776123,-0.01163767557591,-0.17645348608494,9.85732555389404,1.34921705722809,0.15551681816578,-0.30870276689529
19,991170024,-1.04977715015411,0.22480404376984,15.33390140533447,-0.01510689780116,-0.19284777343273,9.86608695983887,1.38397550582886,0.10813048481941,-0.19400219619274
20,991178357,-1.04879891872406,0.22452259063721,15.33365917205811,-0.03087882325053,-0.18242610991001,9.86610984802246,1.43528079986572,0.11537930369377,-0.34008020162582
21,991186690,-1.04840838909149,0.22506113350391,15.33326244354248,-0.04251632839441,-0.19845561683178,9.86809158325195,1.36448311805725,0.21217553317547,-0.35895788669586
22,991195023,-1.04809594154358,0.22531044483185,15.33373069763184,-0.02333984524012,-0.16244821250439,9.85309696197510,1.35631227493286,0.17675103247166,-0.25240269303322
23,991203356,-1.04805457592010,0.22561013698578,15.33349514007568,-0.03238791972399,-0.18673928081989,9.85549545288086,1.32273185253143,0.18528056144714,-0.33201169967651
24,991211689,-1.04823517799377,0.22566078603268,15.33419990539551,-0.06186483800411,-0.17776246368885,9.85221958160400,1.29586255550385,0.15323714911938,-0.22532843053341
25,991220022,-1.04780614376068,0.22545483708382,15.33385658264160,-0.06303085386753,-0.18673926591873,9.87178134918213,1.36917054653168,0.12247446924448,-0.34376865625381
26,991228355,-1.04779911041260,0.22524489462376,15.33374404907227,-0.09531878679991,-0.17356373369694,9.85536575317383,1.31919693946838,0.12334534525871,-0.32412251830101
27,991236688,-1.04722678661346,0.22624897956848,15.33384323120117,-0.08777968585491,-0.20994310081005,9.83833503723145,1.38571739196777,0.26806578040123,-0.28567555546761
28,991245021,-1.04755198955536,0.22628550231457,15.33386230468750,-0.09183521568775,-0.17571674287319,9.86465167999268,1.28021240234375,0.15216137468815,-0.30714029073715
29,991253354,-1.04767775535583,0.22567172348499,15.33334827423096,-0.09676366299391,-0.15479467809200,9.86610984802246,1.30270135402679,0.07590778172016,-0.37348112463951
30,991261687,-1.04848313331604,0.22544994950294,15.33369255065918,-0.09461065381765,-0.18701107800007,9.84548091888428,1.22119712829590,0.11899092793465,-0.26789927482605
31,991270020,-1.04817795753479,0.22523173689842,15.33286666870117,-0.10476053506136,-0.19256168603897,9.86331272125244,1.35457038879395,0.12454919517040,-0.40524277091026
32,991278353,-1.04772746562958,0.22498987615108,15.33295154571533,-0.09510420262814,-0.17294143140316,9.83276271820068,1.37186002731323,0.11881162226200,-0.29966095089912
33,991286686,-1.04723644256592,0.22480447590351,15.33245468139648,-0.06951149553061,-0.17205448448658,9.86225986480713,1.37705957889557,0.12580429017544,-0.36018732190132
34,991295019,-1.04633307456970,0.22480298578739,15.33365345001221,-0.07579152286053,-0.18657475709915,9.86076641082764,1.42600846290588,0.14545044302940,-0.16646692156792
35,991303352,-1.04612815380096,0.22470548748970,15.33365154266357,-0.06810922920704,-0.16712617874146,9.86068916320801,1.34337687492371,0.13576824963093,-0.30127462744713
36,991311685,-1.04522645473480,0.22512231767178,15.33440971374512,-0.07430373132229,-0.17502291500568,9.88347625732422,1.42513740062714,0.19696062803268,-0.21800273656845
37,991320018,-1.04542601108551,0.22556547820568,15.33406162261963,-0.05435445532203,-0.17028057575226,9.84773349761963,1.29491472244263,0.20070034265518,-0.34453704953194
38,991328351,-1.04550850391388,0.22592182457447,15.33380699157715,-0.04760216921568,-0.15787039697170,9.83265590667725,1.30837512016296,0.19243974983692,-0.33927336335182
39,991336684,-1.04493129253387,0.22647853195667,15.33399295806885,-0.03325370326638,-0.20093050599098,9.83383464813232,1.38566601276398,0.21222673356533,-0.28101375699043
40,991345017,-1.04505026340485,0.22575175762177,15.33386898040771,-0.02336833812296,-0.19500079751015,9.86756134033203,1.30439209938049,0.06230662763119,-0.32571062445641
41,991353350,-1.04476845264435,0.22549729049206,15.33367252349854,-0.01517117954791,-0.16219072043896,9.87130260467529,1.35259807109833,0.11689054965973,-0.32914289832115
42,991361683,-1.04504287242889,0.22522026300430,15.33414363861084,-0.00542889442295,-0.18722566962242,9.87532329559326,1.28364479541779,0.11397055536509,-0.25437498092651
43,991370016,-1.04545080661774,0.22547042369843,15.33364295959473,-0.00631596054882,-0.19490781426430,9.84882831573486,1.26996648311615,0.17839032411575,-0.34451144933701
44,991378349,-1.04530680179596,0.22501255571842,15.33323192596436,-0.00412719044834,-0.15478752553463,9.84211158752441,1.33551335334778,0.09406828135252,-0.35926523804665
45,991386682,-1.04489684104919,0.22533512115479,15.33342647552490,-0.00942757632583,-0.15038137137890,9.85833263397217,1.36578941345215,0.18533179163933,-0.27404668927193
46,991395015,-1.04565882682800,0.22517473995686,15.33446788787842,-0.00069382577203,-0.19554442167282,9.84611034393311,1.22739565372467,0.12585553526878,-0.18519090116024
47,991403348,-1.04498648643494,0.22519995272160,15.33345699310303,0.00989953428507,-0.17929315567017,9.85769748687744,1.39744865894318,0.15303225815296,-0.42793706059456
48,991411681,-1.04478561878204,0.22541463375092,15.33314132690430,-0.01720242574811,-0.17040218412876,9.88951492309570,1.34271097183228,0.17452257871628,-0.34673991799355
49,991420014,-1.04472661018372,0.22496904432774,15.33292293548584,-0.01721674203873,-0.19053028523922,9.86941528320312,1.32583117485046,0.09522092342377,-0.33042362332344
50,991428347,-1.04449141025543,0.22493651509285,15.33280658721924,-0.01939150877297,-0.18594530224800,9.83400630950928,1.34601509571075,0.14373427629471,-0.32455796003342
51,991436680,-1.04426991939545,0.22498293220997,15.33319473266602,-0.02092194557190,-0.19155314564705,9.84679794311523,1.34404289722443,0.15257118642330,-0.25506654381752
52,991445013,-1.04444885253906,0.22496293485165,15.33274650573730,-0.02205221541226,-0.20151704549789,9.86784076690674,1.29760432243347,0.14757640659809,-0.36326104402542
53,991453346,-1.04485630989075,0.22505727410316,15.33243083953857,-0.03172300755978,-0.16259841620922,9.87195873260498,1.26817345619202,0.15807825326920,-0.34113034605980
54,991461679,-1.04509341716766,0.22502835094929,15.33274841308594,-0.03234515711665,-0.16896446049213,9.84661102294922,1.29009914398193,0.14393918216228,-0.27179262042046
55,991470012,-1.04512786865234,0.22570496797562,15.33280658721924,-0.05472640320659,-0.20621646940708,9.86013698577881,1.31371569633484,0.22936266660690,-0.30716589093208
56,991478345,-1.04510438442230,0.22549410164356,15.33312606811523,-0.06652859598398,-0.16998015344143,9.85033702850342,1.32119512557983,0.12260253727436,-0.27338072657585
57,991486678,-1.04427993297577,0.22544138133526,15.33288002014160,-0.07208634912968,-0.16966544091702,9.85387802124023,1.41665935516357,0.14173637330532,-0.33646860718727
58,991495011,-1.04399466514587,0.22576026618481,15.33282184600830,-0.07371719926596,-0.19752575457096,9.84402179718018,1.35295665264130,0.18574160337448,-0.31692489981651
59,991503344,-1.04426872730255,0.22570064663887,15.33364295959473,-0.09832298010588,-0.18760477006435,9.86486434936523,1.28382396697998,0.13948230445385,-0.19287519156933
60,991511677,-1.04354667663574,0.22574162483215,15.33444595336914,-0.08547647297382,-0.16367851197720,9.88715267181396,1.40418517589569,0.15047082304955,-0.21426309645176
61,991520010,-1.04388213157654,0.22562193870544,15.33359432220459,-0.08689989149570,-0.17909288406372,9.84974384307861,1.27903401851654,0.13525596261024,-0.40342423319817
62,991528343,-1.04410600662231,0.22502535581589,15.33340263366699,-0.08436763286591,-0.19071626663208,9.87181186676025,1.29050934314728,0.07670183479786,-0.33372786641121
63,991536676,-1.04403340816498,0.22489108145237,15.33357715606689,-0.09958903491497,-0.18633870780468,9.86703968048096,1.32652270793915,0.13179804384708,-0.28600853681564
64,991545009,-1.04458105564117,0.22483606636524,15.33370685577393,-0.08345221728086,-0.18815553188324,9.85213947296143,1.25206232070923,0.14109602570534,-0.29402586817741
65,991553342,-1.04371547698975,0.22466100752354,15.33349609375000,-0.05612836033106,-0.18213999271393,9.85989379882812,1.42188465595245,0.12670081853867,-0.33477810025215
66,991561675,-1.04412257671356,0.22435092926025,15.33338356018066,-0.05895359069109,-0.20235393941402,9.84683418273926,1.26922380924225,0.11174209415913,-0.32404568791389
67,991570008,-1.04377126693726,0.22416748106480,15.33403587341309,-0.07098481059074,-0.18620996177197,9.85615253448486,1.36097395420074,0.12324289232492,-0.22041051089764
68,991578341,-1.04342317581177,0.22364410758018,15.33437061309814,-0.07295184582472,-0.18402118980885,9.85640335083008,1.35946249961853,0.08512890338898,-0.27038383483887
69,991586674,-1.04319441318512,0.22382490336895,15.33487987518311,-0.04369682818651,-0.18566633760929,9.88836097717285,1.34483695030212,0.16735060513020,-0.24277171492577
70,991595007,-1.04291093349457,0.22364105284214,15.33502864837646,-0.01925545372069,-0.18917839229107,9.86729717254639,1.35175287723541,0.12652149796486,-0.29220715165138
71,991603340,-1.04261231422424,0.22358706593513,15.33462142944336,-0.01308970246464,-0.19814805686474,9.87025833129883,1.35446798801422,0.14114722609520,-0.34466511011124
72,991611673,-1.04239845275879,0.22333367168903,15.33329010009766,-0.01610798388720,-0.16450108587742,9.85816383361816,1.34301829338074,0.11983618885279,-0.47027736902237
73,991620006,-1.04266273975372,0.22340722382069,15.33334827423096,0.00437741354108,-0.18409271538258,9.85245323181152,1.28643631935120,0.15672069787979,-0.28267866373062
74,991628339,-1.04237627983093,0.22374814748764,15.33345222473145,-0.00506421271712,-0.20075884461403,9.84252643585205,1.35316157341003,0.18889218568802,-0.29645913839340
75,991636672,-1.04284346103668,0.22350780665874,15.33386516571045,0.00620866753161,-0.17500860989094,9.86610221862793,1.26141142845154,0.11737722903490,-0.25368335843086
76,991645005,-1.04302728176117,0.22346907854080,15.33347415924072,0.00547907780856,-0.17532333731651,9.84804153442383,1.29645168781281,0.14360620081425,-0.35736981034279
77,991653338,-1.04309511184692,0.22363421320915,15.33351039886475,-0.00050798919983,-0.17599569261074,9.86487102508545,1.30931007862091,0.16847762465477,-0.30206868052483
78,991661671,-1.04275834560394,0.22371181845665,15.33351230621338,-0.00416295463219,-0.19535128772259,9.85972213745117,1.35848939418793,0.15646456182003,-0.30972734093666
79,991670004,-1.04250085353851,0.22456319630146,15.33322525024414,0.00216731149703,-0.16378580033779,9.85050201416016,1.34852540493011,0.25108355283737,-0.32863062620163
80,991678337,-1.04267108440399,0.22425541281700,15.33372020721436,-0.01127288024873,-0.18882790207863,9.86434268951416,1.29719448089600,0.11030769348145,-0.25217217206955
81,991686670,-1.04215013980865,0.22386556863785,15.33332920074463,-0.00882660783827,-0.18940012156963,9.85771942138672,1.38174712657928,0.10182938724756,-0.34873780608177
82,991695003,-1.04255616664886,0.22389072179794,15.33329010009766,-0.01170920394361,-0.18110282719135,9.87452793121338,1.26878821849823,0.14998413622379,-0.31397929787636
83,991703336,-1.04274487495422,0.22394239902496,15.33299255371094,-0.03697304427624,-0.18211138248444,9.87030792236328,1.29609310626984,0.15518385171890,-0.33575138449669
84,991711669,-1.04233133792877,0.22394897043705,15.33240890502930,-0.04552784562111,-0.17327761650085,9.85493659973145,1.36742877960205,0.15057326853275,-0.38003844022751
85,991720002,-1.04276132583618,0.22356994450092,15.33250999450684,-0.04564970359206,-0.17701855301857,9.86213111877441,1.26650869846344,0.10049744695425,-0.30147954821587
86,991728335,-1.04361701011658,0.22439916431904,15.33288669586182,-0.06402509659529,-0.18617419898510,9.83030986785889,1.21581804752350,0.24698524177074,-0.26428765058517
87,991736668,-1.04368889331818,0.22427195310593,15.33233356475830,-0.06089215353131,-0.18216860294342,9.84144687652588,1.30884897708893,0.13394963741302,-0.36797410249710
88,991745001,-1.04382967948914,0.22493848204613,15.33238792419434,-0.07478297501802,-0.15422244369984,9.86938571929932,1.30165135860443,0.22823563218117,-0.30176129937172
89,991753334,-1.04370331764221,0.22559052705765,15.33193588256836,-0.06833841651678,-0.17264817655087,9.83918476104736,1.33315694332123,0.22621209919453,-0.34366619586945
90,991761667,-1.04347741603851,0.22523383796215,15.33190345764160,-0.08627043664455,-0.18819129467010,9.85132408142090,1.34468328952789,0.10533854365349,-0.31472209095955
91,991770000,-1.04351127147675,0.22569215297699,15.33177185058594,-0.09522593766451,-0.16127514839172,9.84324073791504,1.31448400020599,0.20310807228088,-0.31792387366295
92,991778333,-1.04368662834167,0.22614724934101,15.33095550537109,-0.10574781149626,-0.17248366773129,9.86575794219971,1.29739940166473,0.20438876748085,-0.40747120976448
93,991786666,-1.06487202644348,0.23162938654423,15.33008480072021,-0.09603407233953,-0.19462884962559,9.85131740570068,1.26553535461426,0.15241751074791,-0.25014862418175
94,991794999,-1.06491374969482,0.23176267743111,15.32945442199707,-0.08025489747524,-0.18536593019962,9.85235404968262,1.31394624710083,0.16545516252518,-0.38495638966560
95,991803332,-1.06466925144196,0.23154170811176,15.32923984527588,-0.08635627478361,-0.16586726903915,9.86174583435059,1.34860217571259,0.12032286822796,-0.32870748639107
96,991811665,-1.06451296806335,0.23166726529598,15.32936954498291,-0.10365184396505,-0.17868517339230,9.84332752227783,1.33786988258362,0.16327792406082,-0.29423069953918
97,991819998,-1.06425929069519,0.23146198689938,15.32901954650879,-0.05599245429039,-0.18730434775352,9.86708259582520,1.34852540493011,0.12411376833916,-0.33959349989891
98,991828331,-1.06482350826263,0.23137001693249,15.32794666290283,-0.07538381218910,-0.18802678585052,9.84893512725830,1.25367581844330,0.13884195685387,-0.43900230526924
99,991836664,-1.06518983840942,0.23197035491467,15.32767677307129,-0.05057760700583,-0.17997267842293,9.84891510009766,1.27489721775055,0.21948836743832,-0.33517503738403
100,991844997,-1.06449913978577,0.23330657184124,15.32729434967041,-0.05689371377230,-0.16699026525021,9.84850597381592,1.40205919742584,0.30909979343414,-0.35388627648354
101,991853330,-1.06424748897552,0.23308874666691,15.32802772521973,-0.06083492934704,-0.18573072552681,9.85786247253418,1.34873032569885,0.11788952350616,-0.21623538434505
102,991861663,-1.06411588191986,0.23313096165657,15.32816028594971,-0.04047092050314,-0.20140258967876,9.86239624023438,1.33497548103333,0.15300662815571,-0.29410263895988
103,991869996,-1.06406879425049,0.23315379023552,15.32877731323242,-0.03709454461932,-0.18030172586441,9.90319061279297,1.32334661483765,0.14872907102108,-0.21854063868523
104,991878329,-1.06413125991821,0.23312115669250,15.32789039611816,-0.00971356034279,-0.18271937966347,9.87377738952637,1.31240928173065,0.14498937129974,-0.41623130440712
105,991886662,-1.06505894660950,0.23368443548679,15.32728481292725,0.01463471632451,-0.18360632658005,9.86430644989014,1.20836436748505,0.21591518819332,-0.37401905655861
106,991894995,-1.06556308269501,0.23401907086372,15.32779979705811,0.01318984199315,-0.19848424196243,9.82561016082764,1.25913166999817,0.18712478876114,-0.24817630648613
107,991903328,-1.06621670722961,0.23460747301579,15.32755565643311,0.00364822917618,-0.19103094935417,9.85121154785156,1.24002361297607,0.21839979290962,-0.32376390695572
108,991911661,-1.06592655181885,0.23387581110001,15.32722949981689,0.00772490631789,-0.18040898442268,9.86281776428223,1.35426294803619,0.05974519997835,-0.35137605667114
109,991919994,-1.06581282615662,0.23411770164967,15.32692432403564,-0.00789673905820,-0.17063106596470,9.84825611114502,1.33187603950500,0.17762190103531,-0.33418887853622
110,991928327,-1.06567621231079,0.23394827544689,15.32665443420410,0.01374792214483,-0.18629580736160,9.86445808410645,1.33748567104340,0.12785343825817,-0.34282094240189
111,991936660,-1.06485056877136,0.23435983061790,15.32645320892334,0.01499967183918,-0.18263354897499,9.85885047912598,1.41727399826050,0.19683258235455,-0.32532638311386
112,991944993,-1.06465494632721,0.23467139899731,15.32646846771240,-0.00874792691320,-0.16501608490944,9.81554603576660,1.34209620952606,0.18443527817726,-0.30606448650360
113,991953326,-1.06510519981384,0.23582732677460,15.32654380798340,-0.01773917675018,-0.18706116080284,9.81549453735352,1.26566326618195,0.28597012162209,-0.28905662894249
114,991961659,-1.06456506252289,0.23607052862644,15.32664203643799,-0.00957050360739,-0.18618135154247,9.82633209228516,1.38330948352814,0.17639242112637,-0.29807281494141
115,991969992,-1.06489205360413,0.23567260801792,15.32681465148926,-0.03843937814236,-0.15583899617195,9.86766147613525,1.27962315082550,0.09975463896990,-0.28255060315132
116,991978325,-1.06418323516846,0.23581220209599,15.32740783691406,-0.02953408844769,-0.18515133857727,9.86872768402100,1.40333986282349,0.16297055780888,-0.23900638520718
117,991986658,-1.06439006328583,0.23597426712513,15.32739543914795,-0.04650076478720,-0.19995056092739,9.85580062866211,1.29473543167114,0.16558320820332,-0.30555218458176
118,991994991,-1.06429874897003,0.23595513403416,15.32719230651855,-0.04985546693206,-0.17754070460796,9.86966991424561,1.33044183254242,0.14637255668640,-0.33436819911003
119,992003324,-1.06486928462982,0.23644304275513,15.32686138153076,-0.05215853080153,-0.15420813858509,9.89119434356689,1.25014102458954,0.20684774219990,-0.33849209547043
120,992011657,-1.06495964527130,0.23591291904449,15.32664394378662,-0.07559124380350,-0.17052377760410,9.87268257141113,1.30774748325348,0.08494961261749,-0.33731386065483
121,992019990,-1.06438887119293,0.23649705946445,15.32605648040771,-0.09228598326445,-0.19450725615025,9.87128829956055,1.38745915889740,0.21834854781628,-0.36546391248703
122,992028323,-1.06465959548950,0.23686143755913,15.32710170745850,-0.08302304893732,-0.18015150725842,9.84367084503174,1.28689754009247,0.18878971040249,-0.18411511182785
123,992036656,-1.06515038013458,0.23685145378113,15.32725334167480,-0.08869525045156,-0.18379229307175,9.86739730834961,1.25956702232361,0.14560410380363,-0.26415959000587
124,992044989,-1.06550705432892,0.23749643564224,15.32701301574707,-0.10402364283800,-0.18461486697197,9.88417911529541,1.27598583698273,0.22488015890121,-0.33667346835136
125,992053322,-1.06569087505341,0.23838613927364,15.32743263244629,-0.09702821075916,-0.17812010645866,9.84591102600098,1.29729688167572,0.25313267111778,-0.23713657259941
126,992061655,-1.06651937961578,0.23837313055992,15.32686138153076,-0.09537600725889,-0.21661669015884,9.86084461212158,1.22081279754639,0.14762763679028,-0.37688782811165
127,992069988,-1.06666862964630,0.23864638805389,15.32600688934326,-0.07686445116997,-0.19718241691589,9.84191131591797,1.30008900165558,0.18151527643204,-0.43418693542480
128,992078321,-1.06663548946381,0.23869940638542,15.32660961151123,-0.07961829751730,-0.14925837516785,9.88031482696533,1.32352578639984,0.15362136065960,-0.23746956884861
129,992086654,-1.06629443168640,0.23923802375793,15.32674980163574,-0.07457540929317,-0.18940013647079,9.84509563446045,1.35992372035980,0.21043373644352,-0.28014287352562
130,992094987,-1.06660997867584,0.23918101191521,15.32697010040283,-0.08506863564253,-0.19647429883480,9.84752750396729,1.28228700160980,0.14007145166397,-0.28411307930946
131,992103320,-1.06691718101501,0.23901435732841,15.32714653015137,-0.05756620317698,-0.18205414712429,9.84770393371582,1.28141605854034,0.12713624536991,-0.28160288929939
132,992111653,-1.06693315505981,0.23991127312183,15.32692623138428,-0.06095668300986,-0.16841369867325,9.85467815399170,1.31658446788788,0.25538673996925,-0.33452188968658
133,992119986,-1.06707859039307,0.23961341381073,15.32667636871338,-0.02931950241327,-0.17761939764023,9.83864974975586,1.30236852169037,0.11263860017061,-0.33598193526268
134,992128319,-1.06769108772278,0.23960371315479,15.32615280151367,-0.01203092094511,-0.17495854198933,9.85995769500732,1.24660634994507,0.14788377285004,-0.37407028675079
135,992136652,-1.06762921810150,0.24021752178669,15.32579231262207,-0.02137254551053,-0.17852780222893,9.85131835937500,1.32601058483124,0.22083315253258,-0.32232955098152
136,992144985,-1.06709778308868,0.23969258368015,15.32565689086914,-0.01752431131899,-0.16974411904812,9.84735584259033,1.38225936889648,0.08551312237978,-0.32722184062004
137,992153318,-1.06698286533356,0.23890978097916,15.32580757141113,0.00424163602293,-0.16969405114651,9.86184597015381,1.33228588104248,0.05190724134445,-0.27778634428978
138,992161651,-1.06661212444305,0.23941814899445,15.32518100738525,-0.00706700887531,-0.18985791504383,9.85412120819092,1.36438059806824,0.20940916240215,-0.38498190045357
139,992169984,-1.06619226932526,0.23937083780766,15.32466697692871,0.00964220147580,-0.18892805278301,9.84153366088867,1.36996448040009,0.14276093244553,-0.35929086804390
140,992178317,-1.06554365158081,0.23947823047638,15.32451343536377,0.00689534051344,-0.16125369071960,9.85463619232178,1.39703869819641,0.16102388501167,-0.32788780331612
141,992186650,-1.06589257717133,0.23930758237839,15.32460212707520,-0.01463459059596,-0.19711090624332,9.85800647735596,1.27724099159241,0.12631659209728,-0.28334465622902
142,992194983,-1.06569850444794,0.23962795734406,15.32486820220947,0.00184543349314,-0.20158857107162,9.86450672149658,1.34168648719788,0.18505007028580,-0.27770954370499
143,992203316,-1.06598770618439,0.24015191197395,15.32475185394287,0.00567935733125,-0.16783431172371,9.87995052337646,1.28474593162537,0.21035690605640,-0.31741163134575
144,992211649,-1.06603932380676,0.24047265946865,15.32476902008057,0.00539310416207,-0.18758329749107,9.85625171661377,1.31287050247192,0.18661251664162,-0.30568030476570
145,992219982,-1.06646430492401,0.24133083224297,15.32508850097656,-0.00360514968634,-0.20245407521725,9.83180999755859,1.26730263233185,0.24908560514450,-0.26357045769691
146,992228315,-1.06663119792938,0.24153462052345,15.32532787322998,-0.01268914341927,-0.16201189160347,9.85729694366455,1.30014002323151,0.17160254716873,-0.27901583909988
147,992236648,-1.06751060485840,0.24123641848564,15.32560920715332,-0.02418376132846,-0.18610982596874,9.86980056762695,1.21202719211578,0.11120421439409,-0.26877018809319
148,992244981,-1.06758558750153,0.24128776788712,15.32568836212158,-0.03823194652796,-0.18730434775352,9.86543750762939,1.31158959865570,0.15377505123615,-0.30109530687332
149,992253314,-1.06768536567688,0.24143302440643,15.32478141784668,-0.05524121969938,-0.17734043300152,9.87196159362793,1.30713295936584,0.16640289127827,-0.41318324208260
150,992261647,-1.06807589530945,0.24236115813255,15.32489776611328,-0.09059790521860,-0.17976525425911,9.87842655181885,1.27211821079254,0.25938254594803,-0.29499912261963
151,992269980,-1.06838274002075,0.24195051193237,15.32472133636475,-0.08006177097559,-0.19826965034008,9.83475875854492,1.28162097930908,0.09714198112488,-0.32635098695755
152,992278313,-1.06831121444702,0.24185809493065,15.32476902008057,-0.06747262924910,-0.17711870372295,9.84263515472412,1.32910978794098,0.13756123185158,-0.30375918745995
153,992286646,-1.06877446174622,0.24215707182884,15.32475090026855,-0.08568377792835,-0.16069577634335,9.84721279144287,1.26210308074951,0.18197633326054,-0.29499915242195
154,992294979,-1.06866276264191,0.24268808960915,15.32468891143799,-0.09859478473663,-0.19487205147743,9.84273433685303,1.33323359489441,0.21284148097038,-0.31646385788918
155,992303312,-1.06906020641327,0.24314871430397,15.32448387145996,-0.09959632903337,-0.17081704735756,9.85989189147949,1.27104234695435,0.20190420746803,-0.33019310235977
156,992311645,-1.06893801689148,0.24293321371078,15.32403659820557,-0.08903858810663,-0.17153948545456,9.86012935638428,1.33441197872162,0.12308920174837,-0.36446490883827
157,992319978,-1.06870460510254,0.24355603754520,15.32478141784668,-0.10482491552830,-0.19011540710926,9.86075210571289,1.34629702568054,0.21904014050961,-0.20529809594154
158,992328311,-1.06857168674469,0.24337247014046,15.32489395141602,-0.08406735956669,-0.19006533920765,9.83590984344482,1.33518028259277,0.12621413171291,-0.29735562205315
159,992336644,-1.06863665580750,0.24264784157276,15.32414913177490,-0.07100627571344,-0.16035959124565,9.83869934082031,1.31215322017670,0.06171750277281,-0.39842939376831
160,992344977,-1.06903982162476,0.24245195090771,15.32382678985596,-0.08202880620956,-0.18790517747402,9.87402057647705,1.27065825462341,0.12501028180122,-0.34937819838524
161,992353310,-1.06950962543488,0.24224947392941,15.32386112213135,-0.05888935551047,-0.19349154829979,9.85877037048340,1.26210296154022,0.12203902006149,-0.28751975297928
162,992361643,-1.06916069984436,0.24313011765480,15.32435798645020,-0.06712216138840,-0.17514452338219,9.86703300476074,1.36125576496124,0.25318387150764,-0.24804824590683
163,992369976,-1.06871140003204,0.24386209249496,15.32474899291992,-0.05327437445521,-0.16769124567509,9.87110233306885,1.37316632270813,0.23264130949974,-0.25194162130356
164,992378309,-1.06888580322266,0.24467092752457,15.32451438903809,-0.03844653069973,-0.19580192863941,9.87549400329590,1.29852640628815,0.24634489417076,-0.33505982160568
165,992386642,-1.06970906257629,0.24450530111790,15.32464504241943,-0.02725948393345,-0.15328542888165,9.86507225036621,1.21861016750336,0.12590678036213,-0.29330861568451
166,992394975,-1.06928002834320,0.24503976106644,15.32500457763672,-0.01407679449767,-0.18755470216274,9.84412193298340,1.37088680267334,0.21102288365364,-0.26439014077187
167,992403308,-1.06904590129852,0.24463085830212,15.32485675811768,-0.02062164619565,-0.20693889260292,9.84629631042480,1.34762895107269,0.09880691021681,-0.30690976977348
168,992411641,-1.06911921501160,0.24505403637886,15.32466697692871,0.01364762429148,-0.16634652018547,9.85942840576172,1.31020653247833,0.19870242476463,-0.33080783486366
169,992419974,-1.06971156597137,0.24600183963776,15.32514476776123,-0.01586500555277,-0.17208309471607,9.85632419586182,1.24699056148529,0.25904953479767,-0.24208010733128
170,992428307,-1.06928312778473,0.24658676981926,15.32484054565430,-0.00655200425535,-0.20138829946518,9.83000946044922,1.37193691730499,0.21919383108616,-0.34504938125610
171,992436640,-1.06944727897644,0.24718619883060,15.32522678375244,0.00520726945251,-0.16344246268272,9.86215400695801,1.29865455627441,0.21824607253075,-0.25247949361801
172,992444973,-1.06931281089783,0.24635478854179,15.32555675506592,-0.00170237664133,-0.16374288499355,9.88831138610840,1.33569264411926,0.04632334038615,-0.27209997177124
173,992453306,-1.06878089904785,0.24626098573208,15.32622718811035,0.00460643088445,-0.20806904137135,9.88276863098145,1.38151669502258,0.13464123010635,-0.21592801809311
174,992461639,-1.06843411922455,0.24648125469685,15.32563972473145,-0.00271092751063,-0.19144584238529,9.86874198913574,1.36176788806915,0.17628996074200,-0.38006404042244
175,992469972,-1.06877946853638,0.24708531796932,15.32484054565430,0.00440615136176,-0.14950157701969,9.88782501220703,1.27813756465912,0.22075627744198,-0.39333218336105
176,992478305,-1.06843745708466,0.24759142100811,15.32546615600586,-0.01743147894740,-0.20027245581150,9.88935661315918,1.35910415649414,0.20643793046474,-0.23252603411674
177,992486638,-1.06841528415680,0.24715331196785,15.32583808898926,-0.03506335616112,-0.17344212532043,9.85562896728516,1.32216835021973,0.09396581351757,-0.26577329635620
178,992494971,-1.06924462318420,0.24767856299877,15.32590293884277,-0.04077835753560,-0.16083167493343,9.84319210052490,1.21973705291748,0.21158637106419,-0.30063426494598
179,992503304,-1.06909775733948,0.24722233414650,15.32584190368652,-0.04010584577918,-0.19950710237026,9.86530208587646,1.33605134487152,0.09117386490107,-0.31236559152603
180,992511637,-1.06870818138123,0.24668423831463,15.32584857940674,-0.05441167578101,-0.19093799591064,9.86370563507080,1.36663472652435,0.08451417088509,-0.31044453382492
181,992519970,-1.06849884986877,0.24661494791508,15.32590293884277,-0.05168657004833,-0.16015930473804,9.85577201843262,1.34278762340546,0.13794545829296,-0.27768388390541
182,992528303,-1.06790995597839,0.24605710804462,15.32676410675049,-0.06705790013075,-0.21941345930099,9.85764789581299,1.39050710201263,0.07887902855873,-0.20719353854656
183,992536636,-1.06781053543091,0.24633291363716,15.32750797271729,-0.07685720175505,-0.18035179376602,9.86082458496094,1.32918667793274,0.17862085998058,-0.21482658386230
184,992544969,-1.06750655174255,0.24607400596142,15.32766532897949,-0.07472588121891,-0.13702701032162,9.86712360382080,1.35585105419159,0.11525123566389,-0.29092645645142
185,992553302,-1.06750226020813,0.24567054212093,15.32779884338379,-0.07858828455210,-0.22543615102768,9.83965778350830,1.31970942020416,0.09829461574554,-0.28844186663628
186,992561635,-1.06734192371368,0.24624705314636,15.32811450958252,-0.08122052997351,-0.21067267656326,9.83574581146240,1.33894574642181,0.21717028319836,-0.26979470252991
187,992569968,-1.06733381748199,0.24652813374996,15.32852077484131,-0.09080545604229,-0.13923008739948,9.85442733764648,1.31904339790344,0.17936369776726,-0.25060966610909
188,992578301,-1.06718611717224,0.24581483006477,15.32852268218994,-0.09760755300522,-0.18450045585632,9.85081768035889,1.33676862716675,0.06292136758566,-0.31136664748192
189,992586634,-1.06748580932617,0.24527963995934,15.32851028442383,-0.08240790665150,-0.21707448363304,9.86117362976074,1.28305530548096,0.08297730982304,-0.30096724629402
190,992594967,-1.06776630878448,0.24459977447987,15.32868957519531,-0.07179308682680,-0.16974411904812,9.83818435668945,1.28551435470581,0.06512418389320,-0.28974822163582
191,992603300,-1.06824517250061,0.24536880850792,15.32912158966064,-0.09643485397100,-0.17837046086788,9.84669494628906,1.25979781150818,0.23832763731480,-0.24610158801079
192,992611633,-1.06904458999634,0.24508789181709,15.32921600341797,-0.08793015033007,-0.18583801388741,9.85335445404053,1.22473168373108,0.11322771757841,-0.29912301898003
193,992619966,-1.06881928443909,0.24503189325333,15.32833480834961,-0.07157831639051,-0.17035211622715,9.85211277008057,1.34537494182587,0.14227426052094,-0.39945399761200
194,992628299,-1.06834590435028,0.24473038315773,15.32813453674316,-0.04239489883184,-0.17482262849808,9.83994388580322,1.37626564502716,0.11245929449797,-0.33411207795143
195,992636632,-1.06877458095551,0.24523136019707,15.32805252075195,-0.04567103832960,-0.19201807677746,9.85075855255127,1.26661098003387,0.20687334239483,-0.31938385963440
196,992644965,-1.06933975219727,0.24533501267433,15.32796764373779,-0.04257399961352,-0.14999513328075,9.86751747131348,1.25224161148071,0.16094703972340,-0.31871795654297
197,992653298,-1.06927847862244,0.24496419727802,15.32744884490967,-0.01036430150270,-0.18455766141415,9.85094642639160,1.32567763328552,0.10331502556801,-0.36666777729988
198,992661631,-1.06815683841705,0.24482493102551,15.32688522338867,-0.01041453890502,-0.20515069365501,9.87759017944336,1.45587468147278,0.13287383317947,-0.37847590446472
199,992669964,-1.06758427619934,0.24460183084011,15.32678794860840,-0.01568618416786,-0.16068862378597,9.86619567871094,1.38605022430420,0.12009232491255,-0.31794947385788
200,992678297,-1.06866788864136,0.24485193192959,15.32697391510010,0.00843343976885,-0.18103130161762,9.87652492523193,1.19030618667603,0.17785242199898,-0.28654640913010
201,992686630,-1.06846857070923,0.24558132886887,15.32651138305664,0.01889049448073,-0.20258997380733,9.83344841003418,1.34207069873810,0.23430623114109,-0.35265681147575
202,992694963,-1.06870234012604,0.24588996171951,15.32672595977783,-0.01698084920645,-0.16651102900505,9.84151840209961,1.29171311855316,0.18533179163933,-0.28229448199272
203,992703296,-1.06765890121460,0.24662746489048,15.32703495025635,-0.01287511736155,-0.18108852207661,9.84971523284912,1.44309318065643,0.23440864682198,-0.29010683298111
204,992711629,-1.06692481040955,0.24623501300812,15.32649230957031,0.01162355300039,-0.20096628367901,9.88103103637695,1.40820670127869,0.10308448970318,-0.37634998559952
205,992719962,-1.06670546531677,0.24606439471245,15.32558345794678,0.00901973526925,-0.17024481296539,9.85917854309082,1.34514427185059,0.12752045691013,-0.40245079994202
206,992728295,-1.06653475761414,0.24617350101471,15.32493305206299,-0.01794648356736,-0.15533828735352,9.83726882934570,1.33994448184967,0.16266319155693,-0.38700541853905
207,992736628,-1.06724667549133,0.24742214381695,15.32522678375244,-0.01311116106808,-0.18829859793186,9.87284755706787,1.23349177837372,0.29567790031433,-0.26582449674606
208,992744961,-1.06746411323547,0.24715375900269,15.32490730285645,-0.00655915681273,-0.17419318854809,9.85454368591309,1.29394149780273,0.11714670062065,-0.34855848550797
209,992753294,-1.06728041172028,0.24711805582047,15.32598972320557,-0.03125792369246,-0.17698994278908,9.83992958068848,1.33979094028473,0.14045564830303,-0.18096455931664
210,992761627,-1.06690537929535,0.24632033705711,15.32550907135010,-0.03094302490354,-0.19576618075371,9.85185527801514,1.36571252346039,0.05216338485479,-0.36925479769707
211,992769960,-1.06772184371948,0.24619150161743,15.32482719421387,-0.04296679794788,-0.19261175394058,9.85986614227295,1.21945512294769,0.13443630933762,-0.38708227872849
212,992778293,-1.06783413887024,0.24678258597851,15.32487487792969,-0.05009122192860,-0.16938646137714,9.83951663970947,1.30695354938507,0.21714466810226,-0.30334937572479
213,992786626,-1.06779348850250,0.24598227441311,15.32509231567383,-0.08054101467133,-0.18952888250351,9.82792758941650,1.32362842559814,0.05162549018860,-0.27947694063187
214,992794959,-1.06768572330475,0.24553553760052,15.32491302490234,-0.09922438859940,-0.18620994687080,9.85914134979248,1.33226037025452,0.09483669698238,-0.33301064372063
215,992803292,-1.06758093833923,0.24553911387920,15.32476615905762,-0.08038365095854,-0.14371491968632,9.89872646331787,1.33039057254791,0.14749956130981,-0.31356945633888
216,992811625,-1.06795334815979,0.24573527276516,15.32541084289551,-0.08823052048683,-0.20758265256882,9.84005069732666,1.27419281005859,0.17021939158440,-0.23293584585190
217,992819958,-1.06733286380768,0.24579215049744,15.32481861114502,-0.09679942578077,-0.20081606507301,9.87605857849121,1.39447724819183,0.15428733825684,-0.37588885426521
218,992828291,-1.06681573390961,0.24528436362743,15.32493019104004,-0.09019019454718,-0.15770588815212,9.85653209686279,1.38118362426758,0.08592294901609,-0.29766300320625
219,992836624,-1.06614327430725,0.24596312642097,15.32504463195801,-0.09049763530493,-0.17377831041813,9.85901546478271,1.39862680435181,0.22938828170300,-0.28500956296921
220,992844957,-1.06613838672638,0.24604511260986,15.32496356964111,-0.07783709466457,-0.21746790409088,9.84507369995117,1.32027292251587,0.15692558884621,-0.31869226694107
221,992853290,-1.06566715240479,0.24680726230145,15.32499504089355,-0.09017603099346,-0.16224794089794,9.85793972015381,1.37621438503265,0.23812273144722,-0.29517841339111
222,992861623,-1.06585574150085,0.24689170718193,15.32557678222656,-0.08961081504822,-0.15060311555862,9.88815402984619,1.29681026935577,0.15677191317081,-0.23982605338097
223,992869956,-1.06596672534943,0.24716489017010,15.32590293884277,-0.08905289322138,-0.19796922802925,9.88550758361816,1.30505812168121,0.17867210507393,-0.25534832477570
224,992878289,-1.06567752361298,0.24773027002811,15.32652759552002,-0.06195077300072,-0.16799166798592,9.86504364013672,1.35375070571899,0.21404537558556,-0.23308955132961
225,992886622,-1.06651818752289,0.24757346510887,15.32625484466553,-0.05137171968818,-0.15280617773533,9.84739017486572,1.21814882755280,0.13008189201355,-0.34312826395035
226,992894955,-1.06671500205994,0.24781711399555,15.32717704772949,-0.05353903025389,-0.21903435885906,9.85821247100830,1.29596507549286,0.17452257871628,-0.19915066659451
227,992903288,-1.06637108325958,0.24778218567371,15.32759666442871,-0.04640764370561,-0.17675390839577,9.86101627349854,1.35953950881958,0.14132654666901,-0.24015903472900
228,992911621,-1.06698799133301,0.24736784398556,15.32775402069092,-0.03584264591336,-0.16179731488228,9.85922241210938,1.24501836299896,0.09819217026234,-0.29049101471901
229,992919954,-1.06733644008636,0.24735268950462,15.32741069793701,-0.03959098458290,-0.21969957649708,9.86256885528564,1.27634441852570,0.14606517553329,-0.34840479493141
230,992928287,-1.06670308113098,0.24734292924404,15.32648849487305,0.00494241155684,-0.18852032721043,9.86338996887207,1.39706444740295,0.14767888188362,-0.41956114768982
231,992936620,-1.06711852550507,0.24775217473507,15.32608604431152,-0.00433477805927,-0.16093897819519,9.86900520324707,1.26835274696350,0.19811330735683,-0.35163220763206
232,992944953,-1.06750941276550,0.24745911359787,15.32638072967529,-0.01293949317187,-0.20168870687485,9.86012935638428,1.27237427234650,0.11202386766672,-0.27637758851051
233,992953286,-1.06728255748749,0.24715197086334,15.32606315612793,-0.00467080622911,-0.19390642642975,9.86220359802246,1.34629702568054,0.10987225919962,-0.34025949239731
234,992961619,-1.06749987602234,0.24704407155514,15.32537174224854,0.00199564313516,-0.15093213319778,9.84256935119629,1.29299366474152,0.13717702031136,-0.39353713393211
235,992969952,-1.06744301319122,0.24625377357006,15.32545948028564,-0.00456351367757,-0.19957147538662,9.84376430511475,1.32577991485596,0.05190724134445,-0.29115697741508
236,992978285,-1.06691265106201,0.24616391956806,15.32553291320801,-0.00469941785559,-0.21119484305382,9.85884952545166,1.38259232044220,0.13566578924656,-0.30168440937996
237,992986618,-1.06667864322662,0.24623811244965,15.32553291320801,-0.00191682006698,-0.15241278707981,9.85331439971924,1.34762883186340,0.15656699240208,-0.30391290783882
238,992994951,-1.06693339347839,0.24564829468727,15.32535648345947,-0.00825452804565,-0.19947847723961,9.82135963439941,1.28828072547913,0.07711164653301,-0.33178117871284
239,993003284,-1.06769716739655,0.24640795588493,15.32545089721680,-0.02301784791052,-0.20839807391167,9.85243988037109,1.22829210758209,0.23858378827572,-0.28646957874298
240,993011617,-1.06763517856598,0.24602971971035,15.32647895812988,-0.01898364536464,-0.18073087930679,9.87864112854004,1.32601058483124,0.09931919723749,-0.18870007991791
241,993019950,-1.06811070442200,0.24602533876896,15.32627391815186,-0.04750216752291,-0.19110248982906,9.83791160583496,1.26120662689209,0.14696167409420,-0.32148426771164
242,993028283,-1.06842553615570,0.24642132222652,15.32610607147217,-0.04425478726625,-0.21567966043949,9.86618709564209,1.28226137161255,0.19608980417252,-0.32842573523521
243,993036616,-1.06844675540924,0.24668200314045,15.32624816894531,-0.04955489560962,-0.16813471913338,9.86844158172607,1.31522703170776,0.17687910795212,-0.28395944833755
244,993044949,-1.06835353374481,0.24683474004269,15.32680130004883,-0.07912486046553,-0.17745487391949,9.85139465332031,1.33105635643005,0.16548076272011,-0.24313026666641
245,993053282,-1.06803643703461,0.24618113040924,15.32613372802734,-0.07902478426695,-0.22314722836018,9.85932731628418,1.35679876804352,0.06945298612118,-0.37809169292450
246,993061615,-1.06770491600037,0.24707771837711,15.32611465454102,-0.06873895972967,-0.13836461305618,9.85701656341553,1.35884797573090,0.25623202323914,-0.30936875939369
247,993069948,-1.06842160224915,0.24632680416107,15.32639694213867,-0.08287283778191,-0.18178950250149,9.86911392211914,1.23267221450806,0.05726061761379,-0.27386736869812
248,993078281,-1.06866705417633,0.24617642164230,15.32618522644043,-0.08983255177736,-0.21320478618145,9.82854270935059,1.29017615318298,0.12839135527611,-0.33549520373344
249,993086614,-1.06946122646332,0.24578553438187,15.32603454589844,-0.11035405844450,-0.15701921284199,9.86706066131592,1.22432196140289,0.10190623253584,-0.31771892309189
250,993094947,-1.07003736495972,0.24625308811665,15.32574462890625,-0.10031862556934,-0.18746170401573,9.84525871276855,1.25084555149078,0.20368438959122,-0.34388390183449
251,993103280,-1.06966543197632,0.24583494663239,15.32448101043701,-0.08785100281239,-0.20279026031494,9.84606170654297,1.36340725421906,0.09949849545956,-0.45490878820419
252,993111613,-1.06989169120789,0.24628245830536,15.32441711425781,-0.08533327281475,-0.15332834422588,9.86543846130371,1.29304504394531,0.20157122612000,-0.31651511788368
253,993119946,-1.06972301006317,0.24590916931629,15.32421970367432,-0.08939623087645,-0.15902200341225,9.87359142303467,1.33822846412659,0.10241852700710,-0.33178117871284
254,993128279,-1.06943762302399,0.24622978270054,15.32457828521729,-0.08994700014591,-0.23002827167511,9.85366344451904,1.35393011569977,0.18535743653774,-0.26672104001045
255,993136612,-1.06871259212494,0.24654626846313,15.32495403289795,-0.08164254575968,-0.16285592317581,9.87238979339600,1.40428757667542,0.18423037230968,-0.26536348462105
256,993144945,-1.06870877742767,0.24622762203217,15.32413101196289,-0.06989758461714,-0.16426503658295,9.86740398406982,1.32060587406158,0.11212630569935,-0.40931543707848
257,993153278,-1.06917488574982,0.24672994017601,15.32468605041504,-0.04405414685607,-0.22394835948944,9.87151813507080,1.26282024383545,0.20679651200771,-0.24097870290279
258,993161611,-1.06883060932159,0.24670048058033,15.32478332519531,-0.04185128584504,-0.17698994278908,9.87537956237793,1.35982131958008,0.14322198927402,-0.29814967513084
259,993169944,-1.06846523284912,0.24650433659554,15.32526588439941,-0.03753085061908,-0.16446532309055,9.85354995727539,1.36307430267334,0.12339657545090,-0.24932895600796
260,993178277,-1.06913936138153,0.24630683660507,15.32540988922119,-0.01017134264112,-0.22685241699219,9.85789775848389,1.23871719837189,0.12334534525871,-0.29192543029785
261,993186610,-1.06921505928040,0.24682144820690,15.32577705383301,-0.01319699548185,-0.19027993083000,9.89290428161621,1.30902826786041,0.20641231536865,-0.25652655959129
262,993194943,-1.06921815872192,0.24713268876076,15.32658767700195,-0.00537893781438,-0.14039599895477,9.85999393463135,1.31891524791718,0.18402546644211,-0.21221393346786
263,993203276,-1.06957745552063,0.24765223264694,15.32697010040283,-0.00261090253480,-0.22111582756042,9.81475067138672,1.27598583698273,0.20794916152954,-0.25834515690804
264,993211609,-1.06920468807220,0.24751037359238,15.32603263854980,-0.00874057505280,-0.19889912009239,9.87326335906982,1.36327934265137,0.13366790115833,-0.42258366942406
265,993219942,-1.07002413272858,0.24709688127041,15.32654190063477,0.00777514046058,-0.13270670175552,9.86590957641602,1.22040295600891,0.09547705203295,-0.24497450888157
266,993228275,-1.07077586650848,0.24666537344456,15.32638645172119,0.00012847072503,-0.18726857006550,9.86311817169189,1.22977781295776,0.09665530920029,-0.32975763082504
267,993236608,-1.07038402557373,0.24757038056850,15.32597351074219,0.01732402108610,-0.19423545897007,9.84504985809326,1.36517465114594,0.25605273246765,-0.34768763184547
268,993244941,-1.07042813301086,0.24793408811092,15.32638263702393,-0.00023604382295,-0.14664043486118,9.83808422088623,1.31427907943726,0.19094130396843,-0.25826835632324
269,993253274,-1.07071304321289,0.24770401418209,15.32681655883789,-0.01375491730869,-0.19844132661819,9.86469268798828,1.28425920009613,0.11845302581787,-0.25163424015045
270,993261607,-1.07104492187500,0.24736058712006,15.32648181915283,-0.00842589419335,-0.21292583644390,9.83209133148193,1.27995610237122,0.10633750259876,-0.35068449378014
271,993269940,-1.07124090194702,0.24725861847401,15.32629394531250,-0.03381849452853,-0.15192638337612,9.87163257598877,1.29522228240967,0.13566578924656,-0.32773411273956
272,993278273,-1.07135915756226,0.24770988523960,15.32642745971680,-0.02896186150610,-0.17801280319691,9.84869194030762,1.30510950088501,0.20177614688873,-0.29417952895164
273,993286606,-1.07106423377991,0.24811695516109,15.32657432556152,-0.03797430917621,-0.20813342928886,9.85711193084717,1.35367381572723,0.19616661965847,-0.27863165736198
274,993294939,-1.07089912891388,0.24723574519157,15.32639503479004,-0.04395421966910,-0.17000161111355,9.88163852691650,1.34079003334045,0.04219945892692,-0.33385595679283
275,993303272,-1.07173752784729,0.24736064672470,15.32684516906738,-0.05630717799067,-0.19752575457096,9.83741188049316,1.21674013137817,0.16176670789719,-0.25073772668839
276,993311605,-1.07131898403168,0.24700771272182,15.32691383361816,-0.05838136374950,-0.21901291608810,9.84766387939453,1.36958026885986,0.10554344952106,-0.30194059014320
277,993319938,-1.07072436809540,0.24764382839203,15.32733440399170,-0.07105621695518,-0.14822836220264,9.87356376647949,1.39063513278961,0.22196014225483,-0.26098343729973
278,993328271,-1.07127296924591,0.24823461472988,15.32722091674805,-0.07627049088478,-0.16628211736679,9.85207653045654,1.25341975688934,0.21837416291237,-0.32166352868080
279,993336604,-1.07131755352020,0.24840931594372,15.32710552215576,-0.08656356483698,-0.21915596723557,9.84159088134766,1.31358766555786,0.16932290792465,-0.31369754672050
280,993344937,-1.07076227664948,0.24902650713921,15.32695007324219,-0.06343856453896,-0.17679682374001,9.85514450073242,1.38499999046326,0.22147345542908,-0.32676076889038
281,993353270,-1.07097148895264,0.24837280809879,15.32702636718750,-0.08706440776587,-0.17283414304256,9.84334945678711,1.29396712779999,0.06768561154604,-0.28921028971672
282,993361603,-1.07070648670197,0.24890644848347,15.32674694061279,-0.09149185568094,-0.20918488502502,9.86537361145020,1.35226511955261,0.21194496750832,-0.34256476163864
283,993369936,-1.07141220569611,0.24900895357132,15.32621765136719,-0.07775140553713,-0.14492374658585,9.83598136901855,1.23364555835724,0.16115194559097,-0.35352769494057
284,993378269,-1.07180297374725,0.24908721446991,15.32624149322510,-0.08197157830000,-0.16303475201130,9.87374877929688,1.27275860309601,0.15684877336025,-0.30775505304337
285,993386602,-1.07202136516571,0.24955751001835,15.32632827758789,-0.08368825912476,-0.20415644347668,9.87633800506592,1.29263508319855,0.20403018593788,-0.29297560453415
286,993394935,-1.07118082046509,0.24864375591278,15.32643890380859,-0.09645608812571,-0.18267644941807,9.87506484985352,1.41916942596436,0.03687169402838,-0.29994270205498
287,993403268,-1.07119739055634,0.24838164448738,15.32669734954834,-0.06414669752121,-0.15923659503460,9.87442111968994,1.31717360019684,0.11520001292229,-0.27087053656578
288,993411601,-1.07102239131927,0.24865119159222,15.32716369628906,-0.04464804753661,-0.22962771356106,9.83250522613525,1.34035444259644,0.17990155518055,-0.25222334265709
289,993419934,-1.07075953483582,0.24819745123386,15.32590007781982,-0.04112169519067,-0.18320576846600,9.84922122955322,1.35085642337799,0.09478548169136,-0.45513936877251
290,993428267,-1.07134413719177,0.24801065027714,15.32632827758789,-0.02554280310869,-0.14593945443630,9.84992980957031,1.24901413917542,0.12370394170284,-0.25890868902206
291,993436600,-1.07073378562927,0.24827083945274,15.32602405548096,-0.01933396793902,-0.22976364195347,9.85526657104492,1.39091682434082,0.17982470989227,-0.34394794702530
292,993444933,-1.07070350646973,0.24826982617378,15.32565879821777,-0.02808206155896,-0.21283283829689,9.82778453826904,1.32385885715485,0.14857535064220,-0.35360446572304
293,993453266,-1.07038581371307,0.24824461340904,15.32523727416992,-0.00557206477970,-0.15288487076759,9.88357639312744,1.35641455650330,0.14493814110756,-0.35588416457176
294,993461599,-1.07037508487701,0.24864138662815,15.32477760314941,0.00485678017139,-0.19406378269196,9.86098766326904,1.32196342945099,0.19542379677296,-0.36418318748474
295,993469932,-1.07022869586945,0.24896277487278,15.32539749145508,-0.01469898689538,-0.20363429188728,9.85066795349121,1.33443760871887,0.18415355682373,-0.22642984986305
296,993478265,-1.06991207599640,0.24886819720268,15.32570648193359,0.00970640778542,-0.15529537200928,9.85250473022461,1.35818207263947,0.13702335953712,-0.27366247773170
297,993486598,-1.07035851478577,0.24896433949471,15.32614231109619,-0.00587270129472,-0.18829859793186,9.85444927215576,1.26392173767090,0.15664385259151,-0.24684436619282
298,993494931,-1.07075548171997,0.24912488460541,15.32603645324707,0.01464186981320,-0.20697467029095,9.86415672302246,1.27260482311249,0.16806779801846,-0.32125374674797
299,993503264,-1.07071471214294,0.24907867610455,15.32642745971680,0.00061514449771,-0.14313554763794,9.88698101043701,1.32265508174896,0.14040441811085,-0.25929290056229
300,993511597,-1.07129156589508,0.24886581301689,15.32685279846191,0.00209555914626,-0.18647460639477,9.86984920501709,1.25016665458679,0.12155234068632,-0.25783285498619
301,993519930,-1.07119333744049,0.24935959279537,15.32686805725098,-0.00012159832841,-0.23055759072304,9.87045860290527,1.33154320716858,0.20607930421829,-0.29866197705269
302,993528263,-1.07152497768402,0.24946169555187,15.32682037353516,-0.01190948393196,-0.14306400716305,9.86960697174072,1.27911078929901,0.15989686548710,-0.31374877691269
303,993536596,-1.07228529453278,0.24992273747921,15.32642936706543,-0.02680199593306,-0.19558019936085,9.86650848388672,1.22777986526489,0.20344105362892,-0.34456264972687
304,993544929,-1.07277071475983,0.25076815485954,15.32608604431152,-0.03670854121447,-0.21360535919666,9.85228157043457,1.26092481613159,0.25026389956474,-0.34773886203766
305,993553262,-1.07209360599518,0.24947917461395,15.32708835601807,-0.05685794726014,-0.16857105493546,9.89316177368164,1.39908778667450,-0.01001516543329,-0.18775233626366
306,993561595,-1.07234692573547,0.24921868741512,15.32735252380371,-0.05715121701360,-0.16047403216362,9.86590957641602,1.29027855396271,0.11571230739355,-0.27650564908981
307,993569928,-1.07222759723663,0.24946986138821,15.32733726501465,-0.05382514372468,-0.21057254076004,9.87338352203369,1.33249080181122,0.17787803709507,-0.30268341302872
308,993578261,-1.07150840759277,0.24990525841713,15.32717704772949,-0.05510550364852,-0.18211853504181,9.84972953796387,1.40597808361053,0.19908665120602,-0.32760605216026
309,993586594,-1.07161641120911,0.24987374246120,15.32683849334717,-0.07638520747423,-0.18518710136414,9.88487148284912,1.30572402477264,0.14486129581928,-0.34878900647163
310,993594927,-1.07174253463745,0.24995160102844,15.32705783843994,-0.06961861997843,-0.20478589832783,9.87145233154297,1.30523741245270,0.15633650124073,-0.28278118371964
311,993603260,-1.07171213626862,0.24902534484863,15.32706069946289,-0.09456058591604,-0.17917871475220,9.85517311096191,1.32147669792175,0.03615449368954,-0.28946647047997
312,993611593,-1.07211494445801,0.24778787791729,15.32672595977783,-0.09937445074320,-0.16038104891777,9.84266281127930,1.27127277851105,-0.00130632589571,-0.35352766513824
313,993619926,-1.07201373577118,0.24765281379223,15.32693481445312,-0.09822998940945,-0.21383424103260,9.88400554656982,1.33100533485413,0.13082469999790,-0.27455899119377
314,993628259,-1.07131016254425,0.24792146682739,15.32655906677246,-0.09168531000614,-0.18919268250465,9.85067272186279,1.40349352359772,0.18184827268124,-0.35383501648903
315,993636592,-1.07078957557678,0.24786828458309,15.32699108123779,-0.08481125533581,-0.19022986292839,9.86874198913574,1.38074815273285,0.13884197175503,-0.25286373496056
316,993644925,-1.07110893726349,0.24748934805393,15.32685756683350,-0.08288714289665,-0.19603081047535,9.86311244964600,1.28203082084656,0.10275150090456,-0.32527518272400
317,993653258,-1.07072055339813,0.24731397628784,15.32650756835938,-0.04561384394765,-0.18819129467010,9.87596511840820,1.36604559421539,0.12639345228672,-0.34973677992821
318,993661591,-1.07046413421631,0.24736264348030,15.32636928558350,-0.05602821707726,-0.16008777916431,9.83630371093750,1.35011351108551,0.15467154979706,-0.32627409696579
319,993669924,-1.07062125205994,0.24649785459042,15.32637405395508,-0.03645804151893,-0.20419935882092,9.85016536712646,1.30006337165833,0.04399244859815,-0.31372314691544
320,993678257,-1.07032656669617,0.24594230949879,15.32671451568604,-0.04210163280368,-0.18511557579041,9.84694004058838,1.35449349880219,0.07895587384701,-0.26964104175568
321,993686590,-1.07042026519775,0.24602544307709,15.32731151580811,-0.03930487111211,-0.14084662497044,9.84138965606689,1.30785000324249,0.15597788989544,-0.23969799280167
322,993694923,-1.07044672966003,0.24590124189854,15.32704162597656,-0.00703839724883,-0.18876352906227,9.85689640045166,1.31657147407532,0.13316839933395,-0.34247511625290
323,993703256,-1.06977689266205,0.24523493647575,15.32688522338867,-0.00638049282134,-0.20369149744511,9.86735248565674,1.39831960201263,0.06737824529409,-0.32489097118378
324,993711589,-1.06992495059967,0.24544450640678,15.32672309875488,-0.01249601691961,-0.15613940358162,9.84392166137695,1.30116474628448,0.17324188351631,-0.32896363735199
325,993719922,-1.07071661949158,0.24518437683582,15.32654380798340,-0.02023539319634,-0.20369151234627,9.86709690093994,1.22396349906921,0.11714670807123,-0.32898926734924
326,993728255,-1.06993722915649,0.24504023790359,15.32672309875488,0.01040738634765,-0.20266865193844,9.84354972839355,1.41297090053558,0.13074786961079,-0.28933840990067
327,993736588,-1.06967127323151,0.24575400352478,15.32629108428955,-0.01066472381353,-0.15682607889175,9.83939456939697,1.35159909725189,0.23379392921925,-0.35252872109413
328,993744921,-1.06929445266724,0.24658878147602,15.32647705078125,0.00058639753843,-0.19903501868248,9.84353351593018,1.36371457576752,0.24726702272892,-0.28465098142624
329,993753254,-1.06903529167175,0.24654865264893,15.32620716094971,-0.01332574617118,-0.18289104104042,9.85628128051758,1.35001099109650,0.14148022234440,-0.33383029699326
330,993761587,-1.06813859939575,0.24555011093616,15.32541275024414,0.00944175291806,-0.15875734388828,9.85389995574951,1.42851853370667,0.03080111555755,-0.40662595629692
331,993769920,-1.06861829757690,0.24562214314938,15.32579231262207,-0.00065090868156,-0.19283349812031,9.83709049224854,1.26018190383911,0.15359574556351,-0.25790974497795
332,993778253,-1.06839597225189,0.24527123570442,15.32501983642578,-0.00906246528029,-0.21466398239136,9.84054660797119,1.34670686721802,0.10871961712837,-0.40301436185837
333,993786586,-1.06395876407623,0.23639850318432,15.32141399383545,-0.00775368185714,-0.17136065661907,9.87485027313232,1.22104334831238,0.17698155343533,-0.34238550066948
334,993794919,-1.06446039676666,0.23611548542976,15.32179641723633,-0.01271775458008,-0.17987969517708,9.84274864196777,1.25992572307587,0.11445720493793,-0.26523539423943
335,993803252,-1.06552708148956,0.23535796999931,15.32108783721924,-0.04072082042694,-0.20084469020367,9.86970901489258,1.19107460975647,0.05769606307149,-0.38316333293915
336,993811585,-1.06472611427307,0.23471361398697,15.32115936279297,-0.04452659189701,-0.17000159621239,9.85240364074707,1.41437959671021,0.07070809602737,-0.30165883898735
337,993819918,-1.06472325325012,0.23488540947437,15.32105731964111,-0.03841792047024,-0.16629645228386,9.87384891510010,1.31945323944092,0.16793972253799,-0.31736037135124
338,993828251,-1.06416022777557,0.23509332537651,15.32052135467529,-0.07064881175756,-0.21630913019180,9.84385585784912,1.38722848892212,0.17559838294983,-0.37409588694572
339,993836584,-1.06383109092712,0.23504225909710,15.31935977935791,-0.06619956344366,-0.16473712027073,9.88168811798096,1.35828435420990,0.14335006475449,-0.44399717450142
340,993844917,-1.06410419940948,0.23493620753288,15.31946086883545,-0.06969729810953,-0.16253404319286,9.85038757324219,1.28638517856598,0.13692088425159,-0.29858511686325
341,993853250,-1.06409740447998,0.23487168550491,15.31925201416016,-0.07780862599611,-0.19607372581959,9.87023639678955,1.31999123096466,0.13963599503040,-0.33160185813904
342,993861583,-1.06448340415955,0.23490644991398,15.31874179840088,-0.09843725711107,-0.18140326440334,9.85495948791504,1.27321958541870,0.15410803258419,-0.37035623192787
343,993869916,-1.06406092643738,0.23556669056416,15.31926727294922,-0.08838053047657,-0.16163279116154,9.84292697906494,1.36950337886810,0.22505943477154,-0.23844289779663
344,993878249,-1.06424129009247,0.23520682752132,15.31939029693604,-0.08423902839422,-0.19853430986404,9.89614391326904,1.29609322547913,0.10569715499878,-0.29510161280632
345,993886582,-1.06457209587097,0.23502264916897,15.31902980804443,-0.06797330826521,-0.19841271638870,9.84287071228027,1.28013539314270,0.12577868998051,-0.34850722551346
346,993894915,-1.06429469585419,0.23473660647869,15.31932735443115,-0.09333744645119,-0.18275514245033,9.86895656585693,1.35236752033234,0.11381684988737,-0.27525058388710
347,993903248,-1.06405973434448,0.23494575917721,15.31938552856445,-0.08021913468838,-0.19585914909840,9.88955688476562,1.34609210491180,0.17275521159172,-0.29589563608170
348,993911581,-1.06362497806549,0.23473247885704,15.32016944885254,-0.08350228518248,-0.18213284015656,9.86429977416992,1.37196242809296,0.12106567621231,-0.21651712059975
349,993919914,-1.06314206123352,0.23454363644123,15.32009887695312,-0.09054068475962,-0.16565269231796,9.85230445861816,1.37626564502716,0.12490780651569,-0.31047013401985
350,993928247,-1.06410026550293,0.23410284519196,15.31960391998291,-0.05565626919270,-0.20969274640083,9.85265445709229,1.20449650287628,0.09734690189362,-0.37063798308372
351,993936580,-1.06397950649261,0.23451054096222,15.31877708435059,-0.05697954818606,-0.19054459035397,9.83815574645996,1.33379721641541,0.19713993370533,-0.40683087706566
352,993944913,-1.06397187709808,0.23521715402603,15.31783962249756,-0.04720142111182,-0.15350715816021,9.85638236999512,1.31924831867218,0.23535639047623,-0.42004781961441
353,993953246,-1.06475973129272,0.23502603173256,15.31830596923828,-0.01953462325037,-0.21802578866482,9.84905624389648,1.22429656982422,0.12314043939114,-0.24556368589401
354,993961579,-1.06559050083160,0.23465459048748,15.31891918182373,-0.00831875670701,-0.19761873781681,9.86447143554688,1.21948087215424,0.10375044494867,-0.23780253529549
355,993969912,-1.06584799289703,0.23501154780388,15.31833553314209,-0.00168807094451,-0.16857105493546,9.84337806701660,1.28758907318115,0.19142796099186,-0.37775871157646
356,993978245,-1.06579124927521,0.23495891690254,15.31906795501709,-0.01749585382640,-0.19728972017765,9.85559463500977,1.32639467716217,0.13999460637569,-0.22099959850311
357,993986578,-1.06530880928040,0.23514983057976,15.31900501251221,-0.00742450263351,-0.19275481998920,9.86184787750244,1.37603521347046,0.17016817629337,-0.31144350767136
358,993994911,-1.06504535675049,0.23558981716633,15.31860542297363,-0.00181682209950,-0.15918652713299,9.87982177734375,1.35111236572266,0.20385089516640,-0.35678070783615
359,994003244,-1.06521022319794,0.23501801490784,15.31885242462158,-0.00268946890719,-0.18208992481232,9.85091686248779,1.29908990859985,0.07816183567047,-0.26917997002602
360,994011577,-1.06439828872681,0.23459029197693,15.31873798370361,-0.00992099288851,-0.18357771635056,9.85767650604248,1.41627502441406,0.09673216193914,-0.32404571771622
361,994019910,-1.06367814540863,0.23499487340450,15.31917667388916,0.00339032779448,-0.16055986285210,9.87243843078613,1.40567088127136,0.19462975859642,-0.24410368502140
362,994028243,-1.06389796733856,0.23535548150539,15.31951713562012,-0.00375512149185,-0.17324902117252,9.85987377166748,1.29237890243530,0.19089005887508,-0.26923123002052
363,994036576,-1.06393265724182,0.23472175002098,15.31999492645264,-0.01924125477672,-0.20153132081032,9.87465572357178,1.31330585479736,0.07139967381954,-0.24072259664536
364,994044909,-1.06339597702026,0.23420633375645,15.31990623474121,-0.01237441785634,-0.16666840016842,9.84861373901367,1.38412904739380,0.08671697974205,-0.32266250252724
365,994053242,-1.06346571445465,0.23418506979942,15.32065105438232,-0.02642965503037,-0.18591670691967,9.84724903106689,1.31071865558624,0.14306829869747,-0.22120451927185
366,994061575,-1.06369507312775,0.23405052721500,15.32128429412842,-0.03165132924914,-0.20138829946518,9.87324047088623,1.29045796394348,0.13166998326778,-0.23457519710064
367,994069908,-1.06360793113708,0.23351202905178,15.32063865661621,-0.03725217655301,-0.16940076649189,9.83859825134277,1.33028805255890,0.08456540107727,-0.37850153446198
368,994078241,-1.06340372562408,0.23339685797691,15.32138442993164,-0.05799515172839,-0.18972916901112,9.82768535614014,1.34263420104980,0.13174681365490,-0.22064100205898
369,994086574,-1.06364619731903,0.23345509171486,15.32160377502441,-0.05089259520173,-0.19911368191242,9.85775375366211,1.28917729854584,0.15561927855015,-0.27171581983566
370,994094907,-1.06405925750732,0.23250602185726,15.32081413269043,-0.04203010350466,-0.16330656409264,9.86824798583984,1.27022266387939,0.03633379191160,-0.40739437937737
371,994103240,-1.06380116939545,0.23202213644981,15.31955242156982,-0.06758005917072,-0.17075982689857,9.83068847656250,1.34908890724182,0.09166053682566,-0.45447337627411
372,994111573,-1.06322658061981,0.23219068348408,15.31913471221924,-0.08436778187752,-0.20740383863449,9.84181880950928,1.38914966583252,0.17011693120003,-0.35831752419472
373,994119906,-1.06363153457642,0.23232603073120,15.31986522674561,-0.08072698861361,-0.18832005560398,9.85838413238525,1.26901888847351,0.16135686635971,-0.21403254568577
374,994128239,-1.06398439407349,0.23265163600445,15.31912708282471,-0.08507574349642,-0.17801278829575,9.84430885314941,1.27729225158691,0.18940445780754,-0.39689257740974
375,994136572,-1.06381189823151,0.23247739672661,15.31876850128174,-0.08759386837482,-0.19921381771564,9.83256149291992,1.33963727951050,0.12759730219841,-0.34259036183357
376,994144905,-1.06394898891449,0.23238825798035,15.31940269470215,-0.06894624978304,-0.17505152523518,9.87944984436035,1.30254769325256,0.13717702031136,-0.23308952152729
377,994153238,-1.06440639495850,0.23256330192089,15.31916332244873,-0.09761484712362,-0.16004486382008,9.83987998962402,1.26376795768738,0.16776044666767,-0.33083346486092
378,994161571,-1.06437420845032,0.23288792371750,15.31856918334961,-0.07731524854898,-0.18907110393047,9.84244632720947,1.32260382175446,0.18896900117397,-0.37950047850609
379,994169904,-1.06464409828186,0.23223926126957,15.31787776947021,-0.08532642573118,-0.18542313575745,9.85505676269531,1.28758907318115,0.07152774930000,-0.37071478366852
380,994178237,-1.06355464458466,0.23245167732239,15.31771373748779,-0.07185762375593,-0.18177518248558,9.85839748382568,1.45041871070862,0.17347241938114,-0.32983449101448
381,994186570,-1.06322669982910,0.23312719166279,15.31799697875977,-0.05570646747947,-0.18683940172195,9.82847023010254,1.35685002803802,0.22956757247448,-0.26587572693825
382,994194903,-1.06264436244965,0.23285980522633,15.31807613372803,-0.05056344717741,-0.18088109791279,9.87609481811523,1.38978993892670,0.11520001292229,-0.29971215128899
383,994203236,-1.06173491477966,0.23420734703541,15.31743049621582,-0.05155750364065,-0.19241860508919,9.86659717559814,1.42839050292969,0.31030365824699,-0.38065314292908
384,994211569,-1.06148004531860,0.23384228348732,15.31775665283203,-0.03826055675745,-0.19580192863941,9.84465122222900,1.34844851493835,0.10464695841074,-0.27240738272667
385,994219902,-1.06142032146454,0.23435758054256,15.31813716888428,-0.02637956850231,-0.18231166899204,9.85712623596191,1.32611298561096,0.20828212797642,-0.25094264745712
386,994228235,-1.06091570854187,0.23464308679104,15.31865310668945,-0.02142276428640,-0.15257729589939,9.83861351013184,1.37933933734894,0.18215562403202,-0.24707488715649
387,994236568,-1.06050884723663,0.23568624258041,15.31912612915039,-0.02659427002072,-0.20718209445477,9.85934257507324,1.36745417118073,0.27088332176208,-0.24108116328716
388,994244901,-1.05946075916290,0.23602125048637,15.31887435913086,-0.01092954445630,-0.18365639448166,9.82728385925293,1.44573140144348,0.18909709155560,-0.34010580182076
389,994253234,-1.05867099761963,0.23677013814449,15.31878089904785,0.00050785182975,-0.17056669294834,9.87296199798584,1.41268897056580,0.23791782557964,-0.31159716844559
390,994261567,-1.05857586860657,0.23719881474972,15.31921672821045,-0.01844718120992,-0.19130279123783,9.84608173370361,1.33021116256714,0.19906100630760,-0.25568124651909
391,994269900,-1.05823147296906,0.23731729388237,15.31923484802246,0.00760347209871,-0.17331337928772,9.84804153442383,1.35982131958008,0.16194599866867,-0.31485018134117
392,994278233,-1.05829477310181,0.23733571171761,15.31920909881592,-0.00834736786783,-0.17241927981377,9.87669563293457,1.31233251094818,0.15136732161045,-0.31321084499359
393,994286566,-1.05833530426025,0.23725055158138,15.31929492950439,0.00815424136817,-0.18326298892498,9.83842086791992,1.31342113018036,0.13744598627090,-0.30211994051933
394,994294899,-1.05787873268127,0.23721309006214,15.31976127624512,-0.01838292740285,-0.21053676307201,9.85198879241943,1.37396037578583,0.14332444965839,-0.25388830900192
395,994303232,-1.05789434909821,0.23715136945248,15.31981086730957,-0.02182332426310,-0.16972981393337,9.88156700134277,1.31543183326721,0.13945668935776,-0.29812407493591
396,994311565,-1.05749940872192,0.23702391982079,15.32034206390381,-0.03286731243134,-0.19245439767838,9.84214019775391,1.36645543575287,0.13248963654041,-0.24497452378273
397,994319898,-1.05726361274719,0.23649196326733,15.32009887695312,-0.03206619620323,-0.20429234206676,9.83248424530029,1.34755218029022,0.08328468352556,-0.33572578430176
398,994328231,-1.05720078945160,0.23651072382927,15.32038211822510,-0.03167278692126,-0.18331305682659,9.88612270355225,1.32713747024536,0.15003538131714,-0.27440527081490
399,994336564,-1.05713939666748,0.23616935312748,15.32076168060303,-0.05368912220001,-0.18046623468399,9.87151813507080,1.32598507404327,0.10618381947279,-0.25537395477295
400,994344897,-1.05713641643524,0.23652884364128,15.31988430023193,-0.06628539413214,-0.19242578744888,9.87546539306641,1.31924819946289,0.19442483782768,-0.41361865401268
401,994353230,-1.05664777755737,0.23715683817863,15.31917381286621,-0.05830979347229,-0.17217607796192,9.87927150726318,1.37752068042755,0.22411173582077,-0.38544297218323
402,994361563,-1.05650496482849,0.23674333095551,15.31988430023193,-0.06532691419125,-0.18320576846600,9.84795570373535,1.33643543720245,0.09773111343384,-0.22558455169201
403,994369896,-1.05671560764313,0.23746667802334,15.31904888153076,-0.08488278836012,-0.20471437275410,9.83192634582520,1.29322445392609,0.23563817143440,-0.40670284628868
404,994378229,-1.05687415599823,0.23737007379532,15.31874847412109,-0.06301639229059,-0.19243294000626,9.83666992187500,1.30116474628448,0.13835528492928,-0.34609949588776
405,994386562,-1.05687880516052,0.23792798817158,15.31816959381104,-0.08672822266817,-0.16057416796684,9.87816238403320,1.31835186481476,0.21486499905586,-0.37432643771172
406,994394895,-1.05736017227173,0.23802486062050,15.31777191162109,-0.08345221728086,-0.19114542007446,9.86216068267822,1.26123213768005,0.16038352251053,-0.35688313841820
407,994403228,-1.05719995498657,0.23781427741051,15.31721019744873,-0.08601293712854,-0.20721785724163,9.84303474426270,1.33886873722076,0.12370394170284,-0.36912667751312
408,994411561,-1.05757772922516,0.23772503435612,15.31737709045410,-0.09652046114206,-0.17178982496262,9.88227462768555,1.27357816696167,0.13840651512146,-0.29002997279167
409,994419894,-1.05754435062408,0.23795546591282,15.31741619110107,-0.08141365647316,-0.20532235503197,9.85738277435303,1.32268071174622,0.17482995986938,-0.29738125205040
410,994428227,-1.05684936046600,0.23771613836288,15.31722545623779,-0.07562700659037,-0.18811976909637,9.84343528747559,1.40177738666534,0.11947757750750,-0.33283132314682
411,994436560,-1.05649328231812,0.23801682889462,15.31649780273438,-0.06513360887766,-0.19314821064472,9.84733486175537,1.36194717884064,0.18592092394829,-0.38649320602417
412,994444893,-1.05611491203308,0.23922954499722,15.31620788574219,-0.06366013735533,-0.20232531428337,9.85967350006104,1.36484158039093,0.29421788454056,-0.34230858087540
413,994453226,-1.05606353282928,0.23939114809036,15.31567668914795,-0.06099944561720,-0.19884188473225,9.86965751647949,1.32516515254974,0.16832394897938,-0.35977751016617
414,994461559,-1.05582058429718,0.23922185599804,15.31568813323975,-0.05142178758979,-0.16937217116356,9.85971450805664,1.34780812263489,0.12836574018002,-0.30929186940193
415,994469892,-1.05609738826752,0.23893490433693,15.31488132476807,-0.04373248293996,-0.20656694471836,9.83909988403320,1.28546309471130,0.11450842767954,-0.39261496067047
416,994478225,-1.05581319332123,0.23908883333206,15.31474971771240,-0.05323145911098,-0.19001527130604,9.82051753997803,1.35359692573547,0.16773481667042,-0.32635095715523
417,994486558,-1.05595970153809,0.23968148231506,15.31437397003174,-0.02499918639660,-0.15475176274776,9.85888481140137,1.30193305015564,0.21947556734085,-0.34128406643867
418,994494891,-1.05647230148315,0.24044241011143,15.31385993957520,-0.03474135696888,-0.19515816867352,9.85420703887939,1.25790214538574,0.24035115540028,-0.36953654885292
419,994503224,-1.05607509613037,0.24087281525135,15.31400489807129,0.00319732073694,-0.20363429188728,9.84201908111572,1.36586630344391,0.19995751976967,-0.28910785913467
420,994511557,-1.05515480041504,0.24128614366055,15.31366157531738,0.00046493479749,-0.16322071850300,9.86213207244873,1.42923593521118,0.19854873418808,-0.35012096166611
421,994519890,-1.05505669116974,0.24092867970467,15.31332492828369,-0.01186656672508,-0.18973630666733,9.85144615173340,1.33072352409363,0.10474941134453,-0.34530547261238
422,994528223,-1.05514967441559,0.24076977372169,15.31384468078613,0.00270377472043,-0.21209609508514,9.84331321716309,1.30795252323151,0.12772537767887,-0.24776647984982
423,994536556,-1.05618751049042,0.24109935760498,15.31350326538086,0.01148718502373,-0.18215432763100,9.84261131286621,1.19432771205902,0.18902026116848,-0.33874824643135
424,994544889,-1.05707216262817,0.24179728329182,15.31350612640381,0.00575803872198,-0.16563838720322,9.86191749572754,1.21243691444397,0.23120689392090,-0.30719149112701
425,994553222,-1.05717062950134,0.24237929284573,15.31377220153809,-0.01781773194671,-0.19748283922672,9.87470722198486,1.30744016170502,0.21750326454639,-0.25929290056229
426,994561555,-1.05697941780090,0.24206259846687,15.31338882446289,-0.02463439106941,-0.18398542702198,9.86952877044678,1.34268534183502,0.11051261425018,-0.35578170418739
427,994569888,-1.05829703807831,0.24120306968689,15.31348609924316,-0.01614396646619,-0.15445134043694,9.86628150939941,1.16031205654144,0.04514508694410,-0.29984021186829
428,994578221,-1.05813670158386,0.24031010270119,15.31436538696289,-0.01185941323638,-0.19461454451084,9.85063076019287,1.33825397491455,0.03879275545478,-0.20747530460358
429,994586554,-1.05829000473022,0.24015113711357,15.31441116333008,-0.01929850317538,-0.19850568473339,9.85789680480957,1.29949986934662,0.12890364229679,-0.29361599683762
430,994594887,-1.05787062644958,0.23862725496292,15.31400012969971,-0.02384059689939,-0.17982244491577,9.86743164062500,1.36911916732788,-0.03424623236060,-0.36210843920708
431,994603220,-1.05805838108063,0.23899433016777,15.31411933898926,-0.05328880995512,-0.21021488308907,9.89008426666260,1.29727125167847,0.19247815012932,-0.29261702299118
432,994611553,-1.05759727954865,0.23842146992683,15.31417942047119,-0.06211514770985,-0.17316317558289,9.85447978973389,1.37447249889374,0.07944253832102,-0.30273461341858
433,994619886,-1.05714690685272,0.23865135014057,15.31476688385010,-0.09731442481279,-0.18267644941807,9.85161781311035,1.37226974964142,0.17285765707493,-0.21498025953770
434,994628219,-1.05706191062927,0.23820556700230,15.31447315216064,-0.08514759689569,-0.20482164621353,9.85705280303955,1.32954525947571,0.09632232040167,-0.34597146511078
435,994636552,-1.05771231651306,0.23815591633320,15.31348609924316,-0.10672775655985,-0.17769807577133,9.85261249542236,1.24122738838196,0.14286339282990,-0.41825482249260
436,994644885,-1.05737137794495,0.23812790215015,15.31278610229492,-0.10053339600563,-0.15125401318073,9.86733150482178,1.35948812961578,0.14662869274616,-0.39328092336655
437,994653218,-1.05809712409973,0.23851840198040,15.31200027465820,-0.08433917164803,-0.19865590333939,9.83305644989014,1.23239052295685,0.19696064293385,-0.39082199335098
438,994661551,-1.05790483951569,0.23833961784840,15.31210803985596,-0.07942503690720,-0.20717495679855,9.82367992401123,1.34186565876007,0.12675203382969,-0.29725319147110
439,994669884,-1.05847024917603,0.23830226063728,15.31188964843750,-0.07560554891825,-0.15728385746479,9.84115314483643,1.25085842609406,0.14306829869747,-0.32719621062279
440,994678217,-1.05881464481354,0.23778159916401,15.31189632415771,-0.07408199459314,-0.17763370275497,9.83035278320312,1.27793252468109,0.08561557531357,-0.30972731113434
441,994686550,-1.05888533592224,0.23851965367794,15.31201362609863,-0.08797281235456,-0.20022952556610,9.83380699157715,1.31100046634674,0.23561255633831,-0.27965623140335
442,994694883,-1.05799484252930,0.23854249715805,15.31263732910156,-0.06183621287346,-0.17836329340935,9.86940097808838,1.42634141445160,0.15100872516632,-0.23544602096081
443,994703216,-1.05815625190735,0.23894363641739,15.31259250640869,-0.06324557960033,-0.19415676593781,9.87941265106201,1.29832148551941,0.19460412859917,-0.31095680594444
444,994711549,-1.05795967578888,0.23951417207718,15.31241512298584,-0.07146405428648,-0.20211789011955,9.88616561889648,1.34401738643646,0.21742644906044,-0.32932224869728
445,994719882,-1.05800366401672,0.23999844491482,15.31206989288330,-0.05501982197165,-0.18111714720726,9.86347579956055,1.31369006633759,0.20759057998657,-0.34005460143089
446,994728215,-1.05832040309906,0.24012061953545,15.31239986419678,-0.05971205234528,-0.17347788810730,9.84975719451904,1.27982807159424,0.16227898001671,-0.26869332790375
447,994736548,-1.05813896656036,0.24030716717243,15.31235218048096,-0.06180771440268,-0.19010825455189,9.89045810699463,1.34094357490540,0.16873377561569,-0.30470693111420
448,994744881,-1.05870127677917,0.24005012214184,15.31254291534424,-0.02163019776344,-0.16534511744976,9.85885620117188,1.25160109996796,0.11832495778799,-0.28652080893517
449,994753214,-1.05834162235260,0.24058973789215,15.31269645690918,-0.01014273148030,-0.17447929084301,9.82231235504150,1.36199843883514,0.21104848384857,-0.28536817431450
450,994761547,-1.05805051326752,0.24063581228256,15.31249523162842,-0.00172383512836,-0.20773287117481,9.87801170349121,1.35433971881866,0.15423609316349,-0.33365097641945
451,994769880,-1.05841028690338,0.23992118239403,15.31145000457764,-0.01000701449811,-0.15352146327496,9.86296081542969,1.27578091621399,0.06491927802563,-0.42599031329155
452,994778213,-1.05826008319855,0.23900753259659,15.31113815307617,-0.00065090868156,-0.16153265535831,9.85829830169678,1.33794665336609,0.03838292881846,-0.35006973147392
453,994786546,-1.05867874622345,0.23890195786953,15.31152534484863,-0.00599408242851,-0.22429884970188,9.82963752746582,1.26758456230164,0.13476930558681,-0.24920089542866
454,994794879,-1.05848073959351,0.23817804455757,15.31091785430908,0.00352635164745,-0.17569528520107,9.85047340393066,1.34391498565674,0.06376664340496,-0.38365003466606
455,994803212,-1.05794453620911,0.23748952150345,15.31047058105469,-0.00776083441451,-0.14681209623814,9.85360622406006,1.38274598121643,0.06463751941919,-0.35706242918968
456,994811545,-1.05844128131866,0.23751732707024,15.31035423278809,-0.01159489993006,-0.19506517052650,9.85927009582520,1.25961828231812,0.15336522459984,-0.32409691810608
457,994819878,-1.05807673931122,0.23738624155521,15.30983829498291,-0.02901193127036,-0.20379164814949,9.83019542694092,1.36340725421906,0.13220787048340,-0.36482354998589
458,994828211,-1.05804920196533,0.23779274523258,15.31020545959473,-0.01225997321308,-0.16373573243618,9.87819766998291,1.32165598869324,0.19726802408695,-0.26428765058517
459,994836544,-1.05778431892395,0.23770152032375,15.30991172790527,-0.01917677186430,-0.18299832940102,9.87497138977051,1.35077929496765,0.13615244626999,-0.33564889431000
460,994844877,-1.05821371078491,0.23799759149551,15.31034088134766,-0.01600090973079,-0.19519393146038,9.85197544097900,1.26737952232361,0.18353880941868,-0.25650095939636
461,994853210,-1.05826723575592,0.23852826654911,15.31020259857178,-0.02737393043935,-0.17834183573723,9.88907718658447,1.31194841861725,0.21140708029270,-0.33014190196991
462,994861543,-1.05906498432159,0.23901148140430,15.31052017211914,-0.05328867956996,-0.18497967720032,9.86598110198975,1.22380959987640,0.20661720633507,-0.27035823464394
463,994869876,-1.05866515636444,0.23866090178490,15.31005573272705,-0.05704409629107,-0.19404946267605,9.86311149597168,1.36627602577209,0.10682415962219,-0.37266150116920
464,994878209,-1.05872952938080,0.23884144425392,15.31052112579346,-0.06319525837898,-0.14636862277985,9.87671089172363,1.31248617172241,0.16888745129108,-0.25373461842537
465,994886542,-1.05895650386810,0.23799940943718,15.31113815307617,-0.07283730059862,-0.20266868174076,9.87268447875977,1.29048359394073,0.04417174309492,-0.21751607954502
466,994894875,-1.05917060375214,0.23761355876923,15.31032657623291,-0.08135661482811,-0.22075103223324,9.86815357208252,1.29419744014740,0.10400659590960,-0.40736874938011
467,994903208,-1.05860269069672,0.23792950809002,15.31064796447754,-0.09147770702839,-0.17112462222576,9.87651634216309,1.38540983200073,0.18489636480808,-0.27348318696022
468,994911541,-1.05938065052032,0.23731270432472,15.31058979034424,-0.07072015851736,-0.18858470022678,9.86961460113525,1.22590994834900,0.07431970536709,-0.31631013751030
469,994919874,-1.05930638313293,0.23712226748466,15.31012725830078,-0.07684282958508,-0.19829827547073,9.84199142456055,1.32834148406982,0.12657272815704,-0.35498768091202
470,994928207,-1.05966448783875,0.23668423295021,15.30966567993164,-0.10301508754492,-0.16814188659191,9.84397983551025,1.27596032619476,0.09770550578833,-0.36566883325577
471,994936540,-1.05993187427521,0.23703774809837,15.31005191802979,-0.07975419610739,-0.18299832940102,9.83891391754150,1.28776836395264,0.18743215501308,-0.25760233402252
472,994944873,-1.06116390228271,0.23765666782856,15.30995845794678,-0.08169951289892,-0.19890624284744,9.86233425140381,1.17163348197937,0.22411176562309,-0.32012671232224
473,994953206,-1.06126797199249,0.23781576752663,15.31080627441406,-0.06735116988420,-0.15755566954613,9.84923553466797,1.30492997169495,0.16432812809944,-0.20332577824593
474,994961539,-1.06015515327454,0.23819537460804,15.31091785430908,-0.07190752774477,-0.18893519043922,9.84667491912842,1.45369744300842,0.19329781830311,-0.29530650377274
475,994969872,-1.05940532684326,0.23841208219528,15.31156444549561,-0.07785142958164,-0.20766134560108,9.85260581970215,1.40789926052094,0.17219167947769,-0.22640420496464
476,994978205,-1.05862164497375,0.23875112831593,15.31052017211914,-0.06825222074986,-0.16594594717026,9.88385009765625,1.41325259208679,0.19232448935509,-0.43364903330803
477,994986538,-1.05917215347290,0.23839902877808,15.31114292144775,-0.06293071061373,-0.18095977604389,9.86779785156250,1.25280499458313,0.10433958470821,-0.23034879565239
478,994994871,-1.05930352210999,0.23910510540009,15.31027030944824,-0.03868972882628,-0.20158857107162,9.86106681823730,1.30349564552307,0.23369145393372,-0.41241481900215
479,995003204,-1.05974209308624,0.23928034305573,15.30959796905518,-0.03668676316738,-0.16676136851311,9.88119602203369,1.26684176921844,0.17101344466209,-0.38400861620903
480,995011537,-1.06005239486694,0.23928327858448,15.31011295318604,-0.02526384219527,-0.16482296586037,9.86783313751221,1.28128790855408,0.14698727428913,-0.24738228321075
481,995019870,-1.05993556976318,0.23953658342361,15.31043815612793,-0.01169502548873,-0.20866271853447,9.83890628814697,1.33254206180573,0.17754507064819,-0.27568599581718
482,995028203,-1.05974197387695,0.23955720663071,15.31009292602539,0.00101553997956,-0.16946515440941,9.88609313964844,1.34358179569244,0.15159784257412,-0.35101744532585
483,995036536,-1.06030881404877,0.23937486112118,15.31076717376709,-0.01070780586451,-0.13952335715294,9.84779071807861,1.24929571151733,0.12454921007156,-0.22230593860149
484,995044869,-1.06031870841980,0.23952096700668,15.31025695800781,0.01699498482049,-0.20407059788704,9.85552883148193,1.31827509403229,0.16663341224194,-0.37140643596649
485,995053202,-1.05999732017517,0.23986400663853,15.31043815612793,0.00173098803498,-0.18038038909435,9.86393451690674,1.35687541961670,0.18825179338455,-0.28862118721008
486,995061535,-1.05993258953094,0.24054741859436,15.31015586853027,0.00395552208647,-0.15932242572308,9.82822036743164,1.32752168178558,0.23233389854431,-0.34125843644142
487,995069868,-1.05997061729431,0.24000313878059,15.30978202819824,-0.01412702817470,-0.19922812283039,9.86881160736084,1.31553423404694,0.08179905265570,-0.35767716169357
488,995078201,-1.05955338478088,0.23956288397312,15.30898475646973,-0.00707416189834,-0.18236888945103,9.84789848327637,1.36868369579315,0.09773110598326,-0.40603682398796
489,995086534,-1.05996370315552,0.24023835361004,15.30810546875000,-0.00281822006218,-0.16814188659191,9.85836315155029,1.27019703388214,0.23095074295998,-0.40698456764221
490,995094867,-1.05986690521240,0.24026095867157,15.30859184265137,-0.03918327391148,-0.21721753478050,9.83790588378906,1.33080041408539,0.14919011294842,-0.24984122812748
491,995103200,-1.06010317802429,0.24047265946865,15.30747318267822,-0.02705205231905,-0.20706765353680,9.85877037048340,1.29094457626343,0.17544469237328,-0.43316230177879
492,995111533,-1.05977189540863,0.24023416638374,15.30774879455566,-0.04439769685268,-0.13303571939468,9.85916423797607,1.35854065418243,0.11929830163717,-0.27699232101440
493,995119866,-1.06022930145264,0.24007135629654,15.30851364135742,-0.03471274673939,-0.21061545610428,9.83191871643066,1.26310193538666,0.12713626027107,-0.21152234077454
494,995128199,-1.05936884880066,0.24026986956596,15.30833053588867,-0.05184380710125,-0.19133855402470,9.86390590667725,1.42265307903290,0.17231976985931,-0.33155068755150
495,995136532,-1.05847895145416,0.24018323421478,15.30818367004395,-0.05829582735896,-0.15114672482014,9.88531398773193,1.42554736137390,0.13707457482815,-0.31828245520592
496,995144865,-1.05849230289459,0.24006551504135,15.30813980102539,-0.07641381770372,-0.18020157516003,9.87354850769043,1.31719923019409,0.13579387962818,-0.31533688306808
497,995153198,-1.05890119075775,0.23959639668465,15.30800819396973,-0.08215054124594,-0.19972166419029,9.84380531311035,1.27055561542511,0.09055912494659,-0.31905087828636
498,995161531,-1.05860722064972,0.23917436599731,15.30804061889648,-0.10064765065908,-0.16243390738964,9.83932876586914,1.35408353805542,0.09744934737682,-0.30578267574310
499,995169864,-1.05900812149048,0.23976181447506,15.30822658538818,-0.08354508131742,-0.17479403316975,9.86255550384521,1.26924932003021,0.21796432137489,-0.28544503450394
500,995178197,-1.05850756168365,0.23952427506447,15.30811595916748,-0.09003283083439,-0.21982832252979,9.85768318176270,1.38090169429779,0.12088637053967,-0.32176598906517
501,995186530,-1.05806946754456,0.23965464532375,15.30783748626709,-0.07145705819130,-0.16845659911633,9.85529327392578,1.36998999118805,0.16320107877254,-0.33951663970947
502,995194863,-1.05748593807220,0.23955477774143,15.30784225463867,-0.07820903509855,-0.18560913205147,9.86907863616943,1.38932895660400,0.13733074069023,-0.31011152267456
503,995203196,-1.05754399299622,0.23967581987381,15.30727577209473,-0.08355252444744,-0.21105892956257,9.88826751708984,1.31228137016296,0.16281688213348,-0.36361965537071
504,995211529,-1.05692315101624,0.24030464887619,15.30654430389404,-0.08139219880104,-0.16405045986176,9.85678958892822,1.39332473278046,0.22529003024101,-0.39696943759918
505,995219862,-1.05733084678650,0.24116069078445,15.30671882629395,-0.06442565470934,-0.17837044596672,9.88306903839111,1.26981294155121,0.25028949975967,-0.27901586890221
506,995228195,-1.05754101276398,0.24076946079731,15.30635356903076,-0.06824512034655,-0.20841954648495,9.86842060089111,1.29419755935669,0.10275150835514,-0.35375818610191
507,995236528,-1.05705273151398,0.24167792499065,15.30587196350098,-0.06415385007858,-0.15855707228184,9.85205364227295,1.37621462345123,0.25751271843910,-0.35744670033455
508,995244861,-1.05685627460480,0.24132205545902,15.30578517913818,-0.05374646186829,-0.16756965219975,9.86217498779297,1.34332573413849,0.10485187917948,-0.32191970944405
509,995253194,-1.05696463584900,0.24186551570892,15.30535602569580,-0.06206538900733,-0.21683128178120,9.86114406585693,1.30692791938782,0.21522359549999,-0.37668296694756
510,995261527,-1.05667805671692,0.24206019937992,15.30552482604980,-0.05091393738985,-0.18471501767635,9.84597396850586,1.35280299186707,0.17126956582069,-0.28833943605423
511,995269860,-1.05613887310028,0.24322436749935,15.30607986450195,-0.03278147801757,-0.14037454128265,9.86745452880859,1.38330960273743,0.28566274046898,-0.24254119396210
512,995278193,-1.05604052543640,0.24358971416950,15.30582237243652,-0.00833290535957,-0.20749682188034,9.84727764129639,1.33049297332764,0.19352832436562,-0.33928614854813
513,995286526,-1.05577874183655,0.24299831688404,15.30554866790771,-0.02911922335625,-0.18729004263878,9.84228324890137,1.35101008415222,0.07603585720062,-0.33078223466873
514,995294859,-1.05560469627380,0.24286749958992,15.30542945861816,-0.02030707150698,-0.15513084828854,9.85796070098877,1.34002161026001,0.13351419568062,-0.32507026195526
515,995303192,-1.05590021610260,0.24284735321999,15.30561733245850,-0.00326872896403,-0.18847027420998,9.86938667297363,1.28244066238403,0.14519429206848,-0.26997402310371
516,995311525,-1.05616486072540,0.24264810979366,15.30504035949707,-0.00394121650606,-0.18519425392151,9.84395027160645,1.28781986236572,0.12465168535709,-0.37942370772362
517,995319858,-1.05576598644257,0.24335427582264,15.30420207977295,-0.01567903161049,-0.16209056973457,9.83195495605469,1.36735188961029,0.23422938585281,-0.40365472435951
518,995328191,-1.05599725246429,0.24438960850239,15.30408096313477,-0.01327567640692,-0.20948530733585,9.84526634216309,1.29204595088959,0.27326548099518,-0.32084390521049
519,995336524,-1.05553889274597,0.24460041522980,15.30393695831299,-0.00669506099075,-0.20582304894924,9.85738277435303,1.37370419502258,0.17413838207722,-0.32578742504120
520,995344857,-1.05489206314087,0.24420554935932,15.30430984497070,-0.01855447515845,-0.14264199137688,9.85220432281494,1.39580941200256,0.09916550666094,-0.26492801308632
521,995353190,-1.05472075939178,0.24487997591496,15.30496692657471,-0.03848944976926,-0.18869915604591,9.87996482849121,1.33958601951599,0.22698052227497,-0.21946275234222
522,995361523,-1.05457758903503,0.24509011209011,15.30472087860107,-0.02573592960835,-0.21714600920677,9.86176776885986,1.33553898334503,0.17393344640732,-0.33844086527824
523,995369856,-1.05503988265991,0.24505491554737,15.30428886413574,-0.02680170163512,-0.15749129652977,9.83865642547607,1.26394724845886,0.14488691091537,-0.35526940226555
524,995378189,-1.05534315109253,0.24539989233017,15.30452156066895,-0.03543518483639,-0.17473679780960,9.88993549346924,1.28326034545898,0.18958376348019,-0.28052708506584
525,995386522,-1.05545020103455,0.24485480785370,15.30499553680420,-0.06098514050245,-0.22137333452702,9.84274864196777,1.30551910400391,0.08159413933754,-0.24681876599789
526,995394855,-1.05588686466217,0.24452140927315,15.30569076538086,-0.04730175063014,-0.16123223304749,9.85492229461670,1.26658546924591,0.10620941966772,-0.22786423563957
527,995403188,-1.05597651004791,0.24456943571568,15.30529785156250,-0.06480491161346,-0.16130375862122,9.86938381195068,1.30761945247650,0.15479962527752,-0.35355326533318
528,995411521,-1.05562233924866,0.24426795542240,15.30536842346191,-0.08707170188427,-0.20585881173611,9.87191581726074,1.36092257499695,0.11107612401247,-0.30140268802643
529,995419854,-1.05534195899963,0.24434196949005,15.30529499053955,-0.09273660928011,-0.18335597217083,9.86592388153076,1.35364818572998,0.15713050961494,-0.30442515015602
530,995428187,-1.05507171154022,0.24421691894531,15.30543422698975,-0.09089117497206,-0.17068113386631,9.89282512664795,1.35067701339722,0.13366788625717,-0.29423069953918
531,995436520,-1.05551624298096,0.24474456906319,15.30540084838867,-0.11004649102688,-0.19436420500278,9.86299800872803,1.26497185230255,0.21063864231110,-0.30626940727234
532,995444853,-1.05546879768372,0.24463804066181,15.30552005767822,-0.07996878772974,-0.17264817655087,9.86472129821777,1.32493460178375,0.13569140434265,-0.29453805088997
533,995453186,-1.05564975738525,0.24389520287514,15.30503177642822,-0.09874515235424,-0.15356436371803,9.82373428344727,1.29668223857880,0.05900239571929,-0.35795894265175
534,995461519,-1.05596077442169,0.24379882216454,15.30568218231201,-0.09530448168516,-0.22616574168205,9.83807754516602,1.28200519084930,0.13584508001804,-0.23306390643120
535,995469852,-1.05557692050934,0.24379095435143,15.30494594573975,-0.08440354466438,-0.16509476304054,9.85959339141846,1.36586618423462,0.14726902544498,-0.38326579332352
536,995478185,-1.05535459518433,0.24423718452454,15.30464935302734,-0.06677194684744,-0.15099652111530,9.85638046264648,1.34555411338806,0.20374841988087,-0.34335878491402
537,995486518,-1.05551421642303,0.24337074160576,15.30374431610107,-0.07054848968983,-0.21070845425129,9.83983707427979,1.30039608478546,0.04488893970847,-0.42056003212929
538,995494851,-1.05499231815338,0.24420642852783,15.30322647094727,-0.07445394247770,-0.20346976816654,9.86984348297119,1.38079941272736,0.25028946995735,-0.36994636058807
539,995503184,-1.05495893955231,0.24474996328354,15.30285072326660,-0.04924017190933,-0.12812171876431,9.88941383361816,1.32362842559814,0.21368674933910,-0.34825116395950
540,995511517,-1.05448162555695,0.24540475010872,15.30292797088623,-0.05929005891085,-0.19923529028893,9.84134483337402,1.37739276885986,0.22603283822536,-0.29978898167610
541,995519850,-1.05456662178040,0.24566027522087,15.30284595489502,-0.04017752036452,-0.18986506760120,9.84155368804932,1.30831098556519,0.17872332036495,-0.31367188692093
542,995528183,-1.05398130416870,0.24545720219612,15.30236148834229,-0.02612218260765,-0.13088272511959,9.84173965454102,1.38856029510498,0.12552255392075,-0.36807653307915
543,995536516,-1.05379867553711,0.24541366100311,15.30296707153320,-0.01814676262438,-0.18841303884983,9.86598777770996,1.34022629261017,0.13966161012650,-0.23703408241272
544,995544849,-1.05339634418488,0.24570746719837,15.30277061462402,-0.01028562989086,-0.20191761851311,9.85352134704590,1.36804342269897,0.18499879539013,-0.33239588141441
545,995553182,-1.05260872840881,0.24624991416931,15.30194091796875,0.00334037770517,-0.15090352296829,9.85934257507324,1.41432833671570,0.21384042501450,-0.40583190321922
546,995561515,-1.05255067348480,0.24592752754688,15.30304431915283,0.00582241406664,-0.19814805686474,9.87290477752686,1.32580554485321,0.10702908039093,-0.17599542438984
547,995569848,-1.05231869220734,0.24589970707893,15.30280017852783,-0.00232467404567,-0.21045809984207,9.84617424011230,1.34652757644653,0.14550165832043,-0.32125374674797
548,995578181,-1.05249738693237,0.24661950767040,15.30317401885986,-0.00034333646181,-0.12674838304520,9.86276149749756,1.29647731781006,0.23340968787670,-0.26431328058243
549,995586514,-1.05249333381653,0.24684789776802,15.30254936218262,-0.00728159397840,-0.19919952750206,9.82932949066162,1.31991434097290,0.17582890391350,-0.36454176902771
550,995594847,-1.05197596549988,0.24734063446522,15.30274391174316,0.00085118832067,-0.22157362103462,9.85053062438965,1.38120913505554,0.20800039172173,-0.28641831874847
551,995603180,-1.05190026760101,0.24766506254673,15.30365848541260,-0.04088572785258,-0.14968039095402,9.89068508148193,1.32793164253235,0.18405108153820,-0.17012976109982
552,995611513,-1.05246233940125,0.24752928316593,15.30314159393311,-0.03064261749387,-0.16769839823246,9.87085914611816,1.25137054920197,0.13328367471695,-0.37173941731453
553,995619846,-1.05248725414276,0.24758584797382,15.30383682250977,-0.02290329895914,-0.22386969625950,9.85238456726074,1.31543183326721,0.15341645479202,-0.22522597014904
554,995628179,-1.05301249027252,0.24784877896309,15.30443954467773,-0.05505543202162,-0.15794192254543,9.84465122222900,1.25521278381348,0.17841595411301,-0.23652185499668
555,995636512,-1.05275344848633,0.24757792055607,15.30502796173096,-0.03784558176994,-0.16334232687950,9.88127422332764,1.34980607032776,0.11307403445244,-0.23657307028770
556,995644845,-1.05359649658203,0.24702043831348,15.30475044250488,-0.02374028600752,-0.22505705058575,9.83927917480469,1.21894311904907,0.08290047943592,-0.34456267952919
557,995653178,-1.05358207225800,0.24734796583652,15.30371856689453,-0.04286698624492,-0.18340604007244,9.86144542694092,1.32050347328186,0.18973745405674,-0.42898720502853
558,995661511,-1.05359196662903,0.24752809107304,15.30395412445068,-0.06071320548654,-0.15945833921432,9.86311340332031,1.31812131404877,0.16814464330673,-0.28091129660606
559,995669844,-1.05422663688660,0.24787493050098,15.30387783050537,-0.07435379922390,-0.21114477515221,9.86765480041504,1.24181640148163,0.18948130309582,-0.30491185188293
560,995678177,-1.05360615253448,0.24782285094261,15.30364990234375,-0.09069788455963,-0.18374939262867,9.88037300109863,1.39501512050629,0.14306829869747,-0.33695521950722
561,995686510,-1.05347001552582,0.24782709777355,15.30371189117432,-0.08710017055273,-0.15751275420189,9.88966369628906,1.33492422103882,0.14785815775394,-0.29773983359337
562,995694843,-1.05388438701630,0.24768003821373,15.30383682250977,-0.09179958701134,-0.20359852910042,9.82551002502441,1.26855766773224,0.13151627779007,-0.29548579454422
563,995703176,-1.05331909656525,0.24758243560791,15.30389308929443,-0.09077672660351,-0.18389244377613,9.83505153656006,1.38715171813965,0.13561457395554,-0.29261702299118
564,995711509,-1.05389499664307,0.24717931449413,15.30445957183838,-0.08496861904860,-0.15706928074360,9.86655330657959,1.25037169456482,0.09788479655981,-0.24143977463245
565,995719842,-1.05345690250397,0.24743811786175,15.30410575866699,-0.08627060055733,-0.20257565379143,9.87504959106445,1.37150132656097,0.17987595498562,-0.35101744532585
566,995728175,-1.05303788185120,0.24757143855095,15.30399990081787,-0.07020515203476,-0.20686736702919,9.85977172851562,1.36942660808563,0.16478917002678,-0.32284182310104
567,995736508,-1.05326282978058,0.24749174714088,15.30400848388672,-0.05559891462326,-0.13421595096588,9.84887218475342,1.29260933399200,0.13774053752422,-0.29937914013863
568,995744841,-1.05384576320648,0.24800190329552,15.30441379547119,-0.07151412218809,-0.17059530317783,9.86794090270996,1.24763083457947,0.20823091268539,-0.26001009345055
569,995753174,-1.05323970317841,0.24782943725586,15.30473804473877,-0.07391747832298,-0.21565106511116,9.86585903167725,1.39206969738007,0.12621413171291,-0.26800173521042
570,995761507,-1.05316305160522,0.24803112447262,15.30423069000244,-0.06325957179070,-0.16254836320877,9.81816482543945,1.32900738716125,0.17329309880733,-0.37048426270485
571,995769840,-1.05311501026154,0.24804472923279,15.30448722839355,-0.04795254766941,-0.17502291500568,9.86320686340332,1.32401263713837,0.14954869449139,-0.24876546859741
572,995778173,-1.05319941043854,0.24780161678791,15.30363655090332,-0.04084970057011,-0.20435672998428,9.88210487365723,1.30849015712738,0.12052777409554,-0.41300392150879
573,995786506,-1.05767726898193,0.24281960725784,15.31210994720459,-0.04448338225484,-0.16483011841774,9.87613201141357,1.40500473976135,0.18077245354652,-0.31049573421478
574,995794839,-1.05711448192596,0.24307776987553,15.31262683868408,-0.01776050962508,-0.18158207833767,9.83287048339844,1.38612711429596,0.17874893546104,-0.24710050225258
575,995803172,-1.05766916275024,0.24315065145493,15.31260967254639,-0.00028636679053,-0.20665994286537,9.83902740478516,1.25277948379517,0.15533754229546,-0.29123386740685
576,995811505,-1.05756652355194,0.24277158081532,15.31211280822754,0.00163817172870,-0.16818480193615,9.87383556365967,1.33228588104248,0.10433958470821,-0.37038183212280
577,995819838,-1.05772268772125,0.24275191128254,15.31169319152832,-0.01085801515728,-0.18676072359085,9.84763336181641,1.30172824859619,0.14752517640591,-0.34638127684593
578,995828171,-1.05656170845032,0.24275082349777,15.31152343750000,-0.00441330391914,-0.21750365197659,9.84164714813232,1.45841050148010,0.14837045967579,-0.33024433255196
579,995836504,-1.05611526966095,0.24163272976875,15.31117248535156,0.01441297866404,-0.16812041401863,9.86555862426758,1.37252604961395,0.01479222066700,-0.35006973147392
580,995844837,-1.05639994144440,0.24171674251556,15.31077098846436,0.00248219561763,-0.16043111681938,9.84985923767090,1.28523278236389,0.16056282818317,-0.35747227072716
581,995853170,-1.05598413944244,0.24187473952770,15.31052494049072,-0.00557206477970,-0.23501381278038,9.84406471252441,1.37034869194031,0.16740183532238,-0.33224219083786
582,995861503,-1.05527925491333,0.24184240400791,15.31037616729736,-0.03107194975019,-0.18075233697891,9.88286113739014,1.40323746204376,0.14486129581928,-0.32788783311844
583,995869836,-1.05479586124420,0.24128164350986,15.31019687652588,-0.02142260968685,-0.15028123557568,9.85316371917725,1.37787938117981,0.08082571625710,-0.32545447349548
584,995878169,-1.05465602874756,0.24087457358837,15.30986881256104,-0.01661605387926,-0.21101601421833,9.86699676513672,1.33582067489624,0.10165008157492,-0.35065883398056
585,995886502,-1.05436575412750,0.24104616045952,15.30982971191406,-0.02137269452214,-0.18805539608002,9.86985778808594,1.35398125648499,0.16676150262356,-0.30281150341034
586,995894835,-1.05444765090942,0.24163006246090,15.30961608886719,-0.01733133755624,-0.12708456814289,9.87970733642578,1.31051385402679,0.22065383195877,-0.33526471257210
587,995903168,-1.05523908138275,0.24114738404751,15.30973434448242,-0.03318203985691,-0.20918488502502,9.86050891876221,1.22345113754272,0.08884298056364,-0.29105454683304
588,995911501,-1.05530858039856,0.24083855748177,15.31046199798584,-0.05964050441980,-0.21446368098259,9.86517143249512,1.31092357635498,0.11058945208788,-0.22374033927917
589,995919834,-1.05503070354462,0.24072134494781,15.31032848358154,-0.05473370477557,-0.15137560665607,9.86110877990723,1.35262382030487,0.13353981077671,-0.31761652231216
590,995928167,-1.05473339557648,0.24067300558090,15.31114292144775,-0.08024059236050,-0.20343400537968,9.87681674957275,1.35462164878845,0.14176197350025,-0.21244448423386
591,995936500,-1.05438268184662,0.24036513268948,15.31224250793457,-0.08099879324436,-0.20453554391861,9.87489318847656,1.36194729804993,0.10769506543875,-0.16267602145672
592,995944833,-1.05414795875549,0.23986488580704,15.31235218048096,-0.08920310437679,-0.14349317550659,9.89145946502686,1.34647619724274,0.08874050527811,-0.29807284474373
593,995953166,-1.05431878566742,0.23934714496136,15.31209564208984,-0.07551241666079,-0.19270475208759,9.84730625152588,1.29875695705414,0.08643522858620,-0.33675032854080
594,995961499,-1.05440890789032,0.23909303545952,15.31272411346436,-0.09039762616158,-0.22840458154678,9.87565135955811,1.30907952785492,0.11753090471029,-0.23531797528267
595,995969832,-1.05355834960938,0.23931619524956,15.31206512451172,-0.10435979813337,-0.14101114869118,9.87664699554443,1.42101359367371,0.17531663179398,-0.36044350266457
596,995978165,-1.05439293384552,0.23987971246243,15.31175136566162,-0.07978996634483,-0.19300515949726,9.85446453094482,1.21896862983704,0.21816924214363,-0.34530550241470
597,995986498,-1.05468142032623,0.23925982415676,15.31144905090332,-0.08885976672173,-0.22175958752632,9.83932876586914,1.28556561470032,0.07365373522043,-0.33659663796425
598,995994831,-1.05441987514496,0.23930013179779,15.31083774566650,-0.06060604006052,-0.14094677567482,9.88326168060303,1.35024166107178,0.15464594960213,-0.38326579332352
599,996003164,-1.05516803264618,0.23924864828587,15.31122684478760,-0.07832363247871,-0.15647558867931,9.85708236694336,1.22949612140656,0.14117284119129,-0.25514337420464
600,996011497,-1.05398941040039,0.23954869806767,15.31096172332764,-0.08353805541992,-0.23417691886425,9.84521579742432,1.46145868301392,0.18561354279518,-0.34141215682030
601,996019830,-1.05284273624420,0.23943743109703,15.31055545806885,-0.05614266544580,-0.17186850309372,9.84652519226074,1.45559298992157,0.13435947895050,-0.35803580284119
602,996028163,-1.05237555503845,0.24010775983334,15.31044101715088,-0.04200149327517,-0.15971583127975,9.86804103851318,1.37613761425018,0.23072022199631,-0.32222706079483
603,996036496,-1.05335092544556,0.24104991555214,15.31029605865479,-0.05287381634116,-0.20876286923885,9.82020282745361,1.20219123363495,0.26040711998940,-0.31011152267456
604,996044829,-1.05342340469360,0.24196079373360,15.30967998504639,-0.04743782803416,-0.17799134552479,9.84534358978271,1.31133341789246,0.25981795787811,-0.38203629851341
605,996053162,-1.05315542221069,0.24186478555202,15.30945110321045,-0.04509852081537,-0.15987320244312,9.85359287261963,1.35172712802887,0.13602438569069,-0.33211416006088
606,996061495,-1.05365514755249,0.24099078774452,15.30929756164551,-0.01360470708460,-0.21497154235840,9.86867046356201,1.25949037075043,0.04460719227791,-0.33047482371330
607,996069828,-1.05338811874390,0.24135003983974,15.30846023559570,-0.01862600259483,-0.19508664309978,9.85211086273193,1.35172712802887,0.19299045205116,-0.40959724783897
608,996078161,-1.05366492271423,0.24150681495667,15.30813407897949,-0.00585817825049,-0.15595343708992,9.84533786773682,1.28664135932922,0.16776044666767,-0.34827676415443
609,996086494,-1.05369234085083,0.24158120155334,15.30810546875000,-0.00432733306661,-0.20145267248154,9.88457965850830,1.31481707096100,0.15807825326920,-0.29884126782417
610,996094827,-1.05344760417938,0.24248713254929,15.30844688415527,0.00902688782662,-0.19944986701012,9.89098739624023,1.35006225109100,0.25605273246765,-0.26774558424950
611,996103160,-1.05340158939362,0.24305179715157,15.30795669555664,-0.00887667853385,-0.14421561360359,9.85371398925781,1.32406389713287,0.21617132425308,-0.35918840765953
612,996111493,-1.05373978614807,0.24276581406593,15.30783748626709,-0.01169489789754,-0.19667457044125,9.83635330200195,1.27982807159424,0.11537931859493,-0.32565936446190
613,996119826,-1.05359566211700,0.24255499243736,15.30720329284668,-0.01096513308585,-0.18977923691273,9.85919380187988,1.33551347255707,0.12370395660400,-0.37965422868729
614,996128159,-1.05320775508881,0.24191249907017,15.30716609954834,-0.02369736880064,-0.13631887733936,9.85765457153320,1.36607110500336,0.07180950790644,-0.31520876288414
615,996136492,-1.05432713031769,0.24250346422195,15.30689620971680,-0.03369704261422,-0.18193970620632,9.83175468444824,1.18441498279572,0.22039765119553,-0.33326679468155
616,996144825,-1.05420160293579,0.24230000376701,15.30629062652588,-0.02942679636180,-0.22114445269108,9.85336303710938,1.33528268337250,0.12457481026649,-0.38277912139893
617,996153158,-1.05407178401947,0.24254629015923,15.30651378631592,-0.04363234341145,-0.15405793488026,9.85837745666504,1.33505213260651,0.17777559161186,-0.28334465622902
618,996161491,-1.05537319183350,0.24204237759113,15.30614471435547,-0.03154403716326,-0.18093831837177,9.84847736358643,1.16389811038971,0.08961141109467,-0.35542318224907
619,996169824,-1.05567252635956,0.24197058379650,15.30547237396240,-0.03228061273694,-0.20810481905937,9.83879375457764,1.28341388702393,0.14073741436005,-0.37827098369598
620,996178157,-1.05551040172577,0.24217262864113,15.30453109741211,-0.04828903824091,-0.17947913706303,9.87360477447510,1.33932995796204,0.17536787688732,-0.42286545038223
621,996186490,-1.05674409866333,0.24255509674549,15.30508136749268,-0.06440419703722,-0.15724809467793,9.85646057128906,1.16966116428375,0.19114620983601,-0.23524112999439
622,996194823,-1.05661892890930,0.24300351738930,15.30363655090332,-0.07722924649715,-0.21696718037128,9.83924293518066,1.33630728721619,0.20651474595070,-0.48213666677475
623,996203156,-1.05662155151367,0.24311698973179,15.30356311798096,-0.07540526986122,-0.13302141427994,9.83727645874023,1.31758344173431,0.16115194559097,-0.30993223190308
624,996211489,-1.05698025226593,0.24372756481171,15.30408954620361,-0.07252267748117,-0.17222614586353,9.86316967010498,1.27747154235840,0.22211383283138,-0.24471840262413
625,996219822,-1.05748426914215,0.24295175075531,15.30466651916504,-0.09750755876303,-0.21687419712543,9.83619594573975,1.25861942768097,0.05224023014307,-0.23882712423801
626,996228155,-1.05727469921112,0.24203786253929,15.30386734008789,-0.08411743491888,-0.15202651917934,9.86096668243408,1.34519553184509,0.04071382433176,-0.40903368592262
627,996236488,-1.05704545974731,0.24177826941013,15.30405330657959,-0.07703598588705,-0.18612413108349,9.86397933959961,1.34565651416779,0.11714670062065,-0.28926154971123
628,996244821,-1.05747234821320,0.24203816056252,15.30444812774658,-0.07938951253891,-0.23708096146584,9.84775352478027,1.26868581771851,0.17977350950241,-0.26190555095673
629,996253154,-1.05760633945465,0.24178974330425,15.30331516265869,-0.09054048359394,-0.16363559663296,9.85884380340576,1.30359792709351,0.11983618885279,-0.44128200411797
630,996261487,-1.05750477313995,0.24267673492432,15.30338191986084,-0.05669357627630,-0.15993042290211,9.86377620697021,1.33118462562561,0.25487443804741,-0.30014762282372
631,996269820,-1.05733990669250,0.24309553205967,15.30364131927490,-0.06150729581714,-0.21417757868767,9.86723995208740,1.33810031414032,0.19877927005291,-0.27379056811333
632,996278153,-1.05655741691589,0.24288228154182,15.30409049987793,-0.04326742142439,-0.17867086827755,9.86444377899170,1.41343188285828,0.12178287655115,-0.25724375247955
633,996286486,-1.05599772930145,0.24315510690212,15.30437946319580,-0.07204356044531,-0.13905125856400,9.84763240814209,1.38638317584991,0.18008087575436,-0.26864212751389
634,996294819,-1.05576336383820,0.24283926188946,15.30407714843750,-0.05720128491521,-0.20199628174305,9.87341213226318,1.34837162494659,0.11107612401247,-0.34576654434204
635,996303152,-1.05499446392059,0.24314133822918,15.30309200286865,-0.04318150132895,-0.19253307580948,9.83677673339844,1.41104972362518,0.18656128644943,-0.43864375352859
636,996311485,-1.05560147762299,0.24316708743572,15.30289936065674,-0.02731670811772,-0.16760541498661,9.86191749572754,1.24719548225403,0.15264803171158,-0.33416330814362
637,996319818,-1.05548310279846,0.24228799343109,15.30322360992432,-0.04223753884435,-0.20825502276421,9.85697555541992,1.33354115486145,0.04117488116026,-0.26625999808311
638,996328151,-1.05527353286743,0.24260370433331,15.30335617065430,0.00282537285239,-0.19191077351570,9.84585285186768,1.34491384029388,0.18671499192715,-0.29289880394936
639,996336484,-1.05598747730255,0.24262867867947,15.30368804931641,-0.00826868601143,-0.16036674380302,9.87135982513428,1.23362004756927,0.14952309429646,-0.26106026768684
640,996344817,-1.05597805976868,0.24199910461903,15.30307674407959,0.01565059460700,-0.19213967025280,9.83453845977783,1.32045233249664,0.07508813589811,-0.38610899448395
641,996353150,-1.05566322803497,0.24167715013027,15.30336475372314,-0.00391962938011,-0.18190395832062,9.83370780944824,1.35687541961670,0.10869400203228,-0.27471265196800
642,996361483,-1.05583298206329,0.24108541011810,15.30366230010986,0.00614429218695,-0.16395030915737,9.84369277954102,1.29970455169678,0.07703480124474,-0.27537864446640
643,996369816,-1.05599844455719,0.24144476652145,15.30410766601562,-0.00175971572753,-0.17721167206764,9.83862686157227,1.29814207553864,0.19019849598408,-0.25801214575768
644,996378149,-1.05571079254150,0.24148961901665,15.30283260345459,-0.02995610609651,-0.19160319864750,9.83753395080566,1.35485208034515,0.15795016288757,-0.46231129765511
645,996386482,-1.05506920814514,0.24122856557369,15.30186748504639,-0.01439152006060,-0.15240561962128,9.86085224151611,1.39637267589569,0.11827373504639,-0.40652346611023
646,996394815,-1.05448532104492,0.24056084454060,15.30140018463135,-0.02089345455170,-0.17565236985683,9.86453533172607,1.39045572280884,0.07017018646002,-0.36887058615685
647,996403148,-1.05418586730957,0.24046935141087,15.30187129974365,-0.01980610378087,-0.21110901236534,9.86473751068115,1.35408377647400,0.13525596261024,-0.25324797630310
648,996411481,-1.05356860160828,0.24016757309437,15.30135345458984,-0.02925530821085,-0.17191141843796,9.87761688232422,1.39504086971283,0.11391931027174,-0.37345555424690
649,996419814,-1.05406236648560,0.24006327986717,15.30115890502930,-0.03626491501927,-0.17401435971260,9.86868476867676,1.25946474075317,0.13548648357391,-0.32568499445915
650,996428147,-1.05352425575256,0.24087361991405,15.30061817169189,-0.04422602802515,-0.19249016046524,9.83008098602295,1.38418042659760,0.24777927994728,-0.37217485904694
651,996436480,-1.05401861667633,0.24112750589848,15.30110645294189,-0.03317488729954,-0.17064537107944,9.86842727661133,1.25956714153290,0.17593137919903,-0.24044080078602
652,996444813,-1.05427455902100,0.24068184196949,15.30056858062744,-0.05081379786134,-0.17467957735062,9.84776210784912,1.28938221931458,0.09796164184809,-0.37499240040779
653,996453146,-1.05454611778259,0.24104554951191,15.30058002471924,-0.07081314176321,-0.20793314278126,9.87798309326172,1.28641080856323,0.19142796099186,-0.29492226243019
654,996461479,-1.05429208278656,0.24164329469204,15.30045223236084,-0.07612755894661,-0.18621711432934,9.85815715789795,1.34929370880127,0.22101242840290,-0.32412248849869
655,996469812,-1.05399143695831,0.24109487235546,15.30045223236084,-0.09436745941639,-0.19061611592770,9.85237598419189,1.35628652572632,0.08080009371042,-0.32017791271210
656,996478145,-1.05378377437592,0.24161005020142,15.29947376251221,-0.10883765667677,-0.19347009062767,9.84314155578613,1.34404289722443,0.21291831135750,-0.42552927136421
657,996486478,-1.05425560474396,0.24125441908836,15.29942798614502,-0.09057644754648,-0.15664726495743,9.87994289398193,1.26279449462891,0.10608135163784,-0.30163320899010
658,996494811,-1.05437290668488,0.24057191610336,15.29945278167725,-0.08586973696947,-0.17212603986263,9.85387897491455,1.30603146553040,0.06699404120445,-0.30729401111603
659,996503144,-1.05457913875580,0.24002763628960,15.29967689514160,-0.08716441690922,-0.19570894539356,9.85307788848877,1.29401826858521,0.08210642635822,-0.28549629449844
660,996511477,-1.05434787273407,0.23977971076965,15.29981899261475,-0.07933218032122,-0.17329192161560,9.85291957855225,1.34601509571075,0.11840179562569,-0.29369279742241
661,996519810,-1.05385148525238,0.23915544152260,15.29998111724854,-0.06538413465023,-0.15518093109131,9.86501502990723,1.37877571582794,0.07265476882458,-0.28547063469887
662,996528143,-1.05397045612335,0.23917044699192,15.29963207244873,-0.06764427572489,-0.20423513650894,9.84604740142822,1.30557024478912,0.15152099728584,-0.35137605667114
663,996536476,-1.05388677120209,0.23927718400955,15.29936408996582,-0.06767304986715,-0.19530121982098,9.85917091369629,1.33008313179016,0.16158738732338,-0.35086378455162
664,996544809,-1.05403363704681,0.23914256691933,15.29863357543945,-0.06338831782341,-0.14211268723011,9.86315631866455,1.30131840705872,0.13418015837669,-0.39727675914764
665,996553142,-1.05439209938049,0.23918044567108,15.29828643798828,-0.02972006238997,-0.19638130068779,9.85982894897461,1.27647256851196,0.15269927680492,-0.34845605492592
666,996561475,-1.05343556404114,0.23855687677860,15.29782581329346,-0.03763825818896,-0.17553076148033,9.85246849060059,1.43469178676605,0.07647129148245,-0.36628353595734
667,996569808,-1.05336022377014,0.23874419927597,15.29755973815918,-0.05002698302269,-0.17267678678036,9.87915611267090,1.32926344871521,0.16904114186764,-0.33498296141624
668,996578141,-1.05305457115173,0.23903736472130,15.29818248748779,-0.04489124193788,-0.19696068763733,9.84974384307861,1.35536444187164,0.18323141336441,-0.23590713739395
669,996586474,-1.05266046524048,0.23915684223175,15.29809761047363,0.00020743244386,-0.17474395036697,9.87460708618164,1.36701881885529,0.16322670876980,-0.31210944056511
670,996594807,-1.05274212360382,0.23829847574234,15.29820632934570,-0.01854003407061,-0.18027313053608,9.86380767822266,1.30946373939514,0.04573421180248,-0.29960969090462
671,996603140,-1.05255508422852,0.23784030973911,15.29770088195801,0.00023621154833,-0.21174561977386,9.84913730621338,1.34184002876282,0.09381212294102,-0.36203157901764
672,996611473,-1.05219924449921,0.23768369853497,15.29769134521484,0.00942014716566,-0.18349902331829,9.85682392120361,1.36276710033417,0.12954398989677,-0.31303155422211
673,996619806,-1.05208337306976,0.23751011490822,15.29783916473389,0.00097993947566,-0.16462983191013,9.84597396850586,1.33264446258545,0.12634220719337,-0.28232008218765
674,996628139,-1.05209696292877,0.23758688569069,15.29672241210938,-0.01133745908737,-0.20551548898220,9.86916255950928,1.31853115558624,0.16128002107143,-0.44287011027336
675,996636472,-1.05181550979614,0.23789207637310,15.29714965820312,-0.00354781001806,-0.17472964525223,9.85902786254883,1.35282874107361,0.18364124000072,-0.25452864170074
676,996644805,-1.05196440219879,0.23730735480785,15.29682350158691,0.00398413371295,-0.16028805077076,9.84729766845703,1.30162560939789,0.07980113476515,-0.35109430551529
677,996653138,-1.05117404460907,0.23675119876862,15.29661655426025,-0.01460594311357,-0.18669636547565,9.88399314880371,1.41350877285004,0.08123554289341,-0.32996258139610
678,996661471,-1.05127823352814,0.23691260814667,15.29708957672119,-0.01705237850547,-0.20045842230320,9.87854862213135,1.30697917938232,0.16642849147320,-0.25470796227455
679,996669804,-1.05145525932312,0.23566500842571,15.29722309112549,-0.03667249158025,-0.14851449429989,9.84537410736084,1.29891061782837,-0.00153685407713,-0.29896932840347
680,996678137,-1.05212175846100,0.23544916510582,15.29779720306396,-0.02585752680898,-0.17771238088608,9.88197422027588,1.23915255069733,0.12137304991484,-0.24169591069221
681,996686470,-1.05211472511292,0.23574861884117,15.29762268066406,-0.04794550687075,-0.20713202655315,9.84357833862305,1.31978631019592,0.18487074971199,-0.32842573523521
682,996694803,-1.05231153964996,0.23543336987495,15.29757308959961,-0.05018434673548,-0.18458627164364,9.85649585723877,1.29601621627808,0.11169087141752,-0.31782141327858
683,996703136,-1.05329453945160,0.23522165417671,15.29799365997314,-0.05944012477994,-0.19095230102539,9.86882781982422,1.19947612285614,0.12052778899670,-0.25278687477112
684,996711469,-1.05285835266113,0.23435004055500,15.29783630371094,-0.07248690724373,-0.18098838627338,9.85912799835205,1.37288451194763,0.04488893970847,-0.33047482371330
685,996719802,-1.05313110351562,0.23499050736427,15.29913043975830,-0.05949734896421,-0.17161101102829,9.85059452056885,1.28492522239685,0.22221627831459,-0.13905967772007
686,996728135,-1.05377662181854,0.23568157851696,15.29871559143066,-0.08073429018259,-0.21165263652802,9.85732650756836,1.24345588684082,0.23248758912086,-0.35708802938461
687,996736468,-1.05444061756134,0.23594483733177,15.29906940460205,-0.08049831539392,-0.20776148140430,9.86082267761230,1.23894762992859,0.17869772017002,-0.26293012499809
688,996744801,-1.05394148826599,0.23584797978401,15.29984283447266,-0.07943947613239,-0.14924407005310,9.86371994018555,1.37898075580597,0.13540965318680,-0.21764414012432
689,996753134,-1.05294299125671,0.23606702685356,15.29881668090820,-0.06717234849930,-0.18734726309776,9.86883449554443,1.43919980525970,0.17636682093143,-0.42476084828377
690,996761467,-1.05235517024994,0.23622818291187,15.29900932312012,-0.08958220481873,-0.21460674703121,9.86617374420166,1.38950824737549,0.16768360137939,-0.28567558526993
691,996769800,-1.05170965194702,0.23612909018993,15.29924297332764,-0.07841661572456,-0.18764053285122,9.85779094696045,1.39711558818817,0.13605000078678,-0.29656159877777
692,996778133,-1.05092883110046,0.23668080568314,15.29889106750488,-0.09006877243519,-0.14768475294113,9.86645889282227,1.41315019130707,0.21542851626873,-0.35135042667389
693,996786466,-1.05144095420837,0.23673988878727,15.29946136474609,-0.06661442667246,-0.18004420399666,9.86630249023438,1.25803041458130,0.15456910431385,-0.24292539060116
694,996794799,-1.05121171474457,0.23753403127193,15.29863357543945,-0.07464706897736,-0.19502942264080,9.82164001464844,1.34693729877472,0.24465438723564,-0.40782985091209
695,996803132,-1.05089104175568,0.23795354366302,15.29931163787842,-0.05126442387700,-0.16472996771336,9.84310626983643,1.35733687877655,0.19742172956467,-0.21989822387695
696,996811465,-1.05067634582520,0.23832888901234,15.29932880401611,-0.04113585874438,-0.20241831243038,9.86581039428711,1.34598958492279,0.19404064118862,-0.30762696266174
