sep=,
DeviceTag:,Xsens DOT
FirmwareVersion:,3.0.0
AppVersion:,2023.6.0
StartTime: ,2025-03-06_12:21:16_000 PST
© Movella Technologies B. V. 2005-2025

PacketCounter,SampleTimeFine,Euler_X,Euler_Y,Euler_Z,Acc_X,Acc_Y,Acc_Z,Gyr_X,Gyr_Y,Gyr_Z
0,699806679,-1.01242268085480,0.24780648946762,15.81158065795898,0.00000000000000,0.00000000000000,0.00000000000000,0.00000000000000,0.00000000000000,0.00000000000000
1,699815012,-1.01281523704529,0.24854186177254,15.81245994567871,-0.00450638867915,-0.18731148540974,9.89096450805664,1.27342450618744,0.23522832989693,-0.21828450262547
2,699823345,-1.01290130615234,0.24816083908081,15.81218910217285,0.04354650899768,-0.21758948266506,9.82948684692383,1.30682539939880,0.10423712432384,-0.34484440088272
3,699831678,-1.01215636730194,0.24772703647614,15.81153774261475,0.04182267189026,-0.16296322643757,9.86837673187256,1.41148507595062,0.09714197367430,-0.37996152043343
4,699840011,-1.01250040531158,0.24733008444309,15.81098270416260,0.06726516783237,-0.15067462623119,9.87124347686768,1.27521741390228,0.10321255773306,-0.37665733695030
5,699848344,-1.01243937015533,0.24743615090847,15.81087017059326,0.07893877476454,-0.21536494791508,9.86821937561035,1.32918667793274,0.16199721395969,-0.32729867100716
6,699856677,-1.01189625263214,0.24758796393871,15.81059074401855,0.12489595264196,-0.18683226406574,9.86015224456787,1.38182389736176,0.16873377561569,-0.34330758452415
7,699865010,-1.01193380355835,0.24721366167068,15.81069755554199,0.12290730327368,-0.13186265528202,9.86528682708740,1.31607222557068,0.10272589325905,-0.30698660016060
8,699873343,-1.01220011711121,0.24751952290535,15.81115722656250,0.11317943036556,-0.20024384558201,9.87031555175781,1.28487396240234,0.18576723337173,-0.25496408343315
9,699881676,-1.01253163814545,0.24773256480694,15.81209945678711,0.10401663929224,-0.20210358500481,9.86830520629883,1.28133928775787,0.17272959649563,-0.22076909244061
10,699890009,-1.01221549510956,0.24796858429909,15.81179428100586,0.09851627051830,-0.16307051479816,9.85672569274902,1.35528755187988,0.17803175747395,-0.34638130664825
11,699898342,-1.01221561431885,0.24828594923019,15.81237316131592,0.07108495384455,-0.20398478209972,9.85277652740479,1.32152795791626,0.18594650924206,-0.26410835981369
12,699906675,-1.01218831539154,0.24777674674988,15.81209278106689,0.05344588682055,-0.16473712027073,9.85905551910400,1.32011926174164,0.08909910917282,-0.34479323029518
13,699915008,-1.01214253902435,0.24768550693989,15.81179618835449,0.01952726207674,-0.17270539700985,9.82119655609131,1.32716310024261,0.13863706588745,-0.34284651279449
14,699923341,-1.01245570182800,0.24841775000095,15.81201934814453,-0.00501414295286,-0.20857690274715,9.87060165405273,1.27936697006226,0.23822517693043,-0.28109058737755
15,699931674,-1.01258218288422,0.24795316159725,15.81291103363037,-0.03214487805963,-0.16828493773937,9.84397125244141,1.30562150478363,0.09132755547762,-0.24338646233082
16,699940007,-1.01321709156036,0.24801212549210,15.81289196014404,-0.06991904228926,-0.15493772923946,9.84759807586670,1.24084317684174,0.15720735490322,-0.31085434556007
17,699948340,-1.01376152038574,0.24846085906029,15.81350708007812,-0.09755762666464,-0.20615923404694,9.84834194183350,1.25500786304474,0.20116139948368,-0.24062012135983
18,699956673,-1.01442086696625,0.24872723221779,15.81374454498291,-0.14088238775730,-0.18060213327408,9.84666061401367,1.23728275299072,0.18138720095158,-0.28150042891502
19,699965006,-1.01504921913147,0.24904550611973,15.81394386291504,-0.12895861268044,-0.15949408710003,9.87146663665771,1.24614524841309,0.18661251664162,-0.28229448199272
20,699973339,-1.01576709747314,0.24927619099617,15.81429576873779,-0.17392137646675,-0.20261858403683,9.82827758789062,1.23087918758392,0.17764751613140,-0.26697716116905
21,699981672,-1.01599359512329,0.24939796328545,15.81380081176758,-0.19674609601498,-0.20392039418221,9.83852767944336,1.29476094245911,0.16427688300610,-0.37673413753510
22,699990005,-1.01567459106445,0.24882392585278,15.81335830688477,-0.20587313175201,-0.15462300181389,9.83538055419922,1.35426294803619,0.08187589794397,-0.36548948287964
23,699998338,-1.01616680622101,0.24854604899883,15.81325721740723,-0.21097309887409,-0.18817698955536,9.86396312713623,1.26305067539215,0.11584038287401,-0.34420409798622
24,700006671,-1.01623439788818,0.24904406070709,15.81283378601074,-0.19990067183971,-0.21223916113377,9.87679481506348,1.30892574787140,0.21076673269272,-0.35898348689079
25,700015004,-1.01576912403107,0.24915631115437,15.81263923645020,-0.18465779721737,-0.16327793896198,9.85172462463379,1.37667560577393,0.16179232299328,-0.34146335721016
26,700023337,-1.01584756374359,0.24954296648502,15.81400585174561,-0.19070188701153,-0.17575965821743,9.83951663970947,1.30777323246002,0.19375889003277,-0.14571937918663
27,700031670,-1.01585340499878,0.24896611273289,15.81375980377197,-0.14209838211536,-0.21122345328331,9.84881401062012,1.32086205482483,0.08008290082216,-0.34704723954201
28,700040003,-1.01494371891022,0.24897371232510,15.81311798095703,-0.11981011927128,-0.17844912409782,9.84940719604492,1.42541933059692,0.15177714824677,-0.38662126660347
29,700048336,-1.01527023315430,0.24887987971306,15.81256294250488,-0.07924634963274,-0.18379229307175,9.84776210784912,1.28249192237854,0.13820160925388,-0.38088369369507
30,700056669,-1.01546752452850,0.24910596013069,15.81204032897949,-0.07541242241859,-0.19859868288040,9.85075187683105,1.29422330856323,0.17762190103531,-0.37243095040321
31,700065002,-1.01455128192902,0.24975270032883,15.81177902221680,-0.03586418181658,-0.17518742382526,9.84994506835938,1.43146419525146,0.22675001621246,-0.34412723779678
32,700073335,-1.01459908485413,0.24942484498024,15.81165885925293,-0.01213122159243,-0.16897876560688,9.85088062286377,1.31112861633301,0.11174209415913,-0.32601794600487
33,700081668,-1.01468300819397,0.24959525465965,15.81128692626953,0.01461325772107,-0.19539421796799,9.85922813415527,1.31079566478729,0.16865694522858,-0.36198037862778
34,700090001,-1.01507437229156,0.24984954297543,15.81097316741943,0.02193061634898,-0.17932891845703,9.87098789215088,1.26988971233368,0.18223246932030,-0.34804621338844
35,700098334,-1.01492881774902,0.24982367455959,15.81176185607910,0.07094189524651,-0.16328509151936,9.86695384979248,1.33938109874725,0.14263287186623,-0.22299751639366
36,700106667,-1.01474726200104,0.24940820038319,15.81223964691162,0.08706440776587,-0.19291932880878,9.83399295806885,1.33753681182861,0.09837146848440,-0.25475916266441
37,700115000,-1.01504063606262,0.24896490573883,15.81170368194580,0.11000373959541,-0.17610299587250,9.85234165191650,1.28771722316742,0.09742373973131,-0.38915705680847
38,700123333,-1.01529753208160,0.24921993911266,15.81168842315674,0.12383730709553,-0.15174041688442,9.88166141510010,1.28528392314911,0.18033702671528,-0.31108486652374
39,700131666,-1.01554369926453,0.24944120645523,15.81157398223877,0.12496717274189,-0.19991479814053,9.86040687561035,1.29222524166107,0.17557275295258,-0.33395838737488
40,700139999,-1.01560473442078,0.25037160515785,15.81154155731201,0.12413758784533,-0.20841953158379,9.85738277435303,1.30966854095459,0.26035585999489,-0.31236556172371
41,700148332,-1.01519250869751,0.25052285194397,15.81177902221680,0.11857254058123,-0.15615370869637,9.85203170776367,1.37037432193756,0.16763235628605,-0.27957937121391
42,700156665,-1.01592457294464,0.24997727572918,15.81286144256592,0.07632083445787,-0.18909971415997,9.85912799835205,1.22870206832886,0.08113308995962,-0.18140001595020
43,700164998,-1.01604044437408,0.25054031610489,15.81297969818115,0.05793102458119,-0.20349122583866,9.87137508392334,1.30695354938507,0.21647870540619,-0.32266250252724
44,700173331,-1.01664030551910,0.25096881389618,15.81344890594482,0.03522775322199,-0.16977272927761,9.85665321350098,1.24481344223022,0.20103335380554,-0.25196725130081
45,700181664,-1.01669287681580,0.25180527567863,15.81378364562988,-0.01020710729063,-0.18884935975075,9.84524440765381,1.31415104866028,0.24900877475739,-0.27955374121666
46,700189997,-1.01634514331818,0.25296431779861,15.81287193298340,-0.02105777151883,-0.18868482112885,9.84322834014893,1.35964190959930,0.29037576913834,-0.41866466403008
47,700198330,-1.01721012592316,0.25312489271164,15.81311798095703,-0.05628572031856,-0.14332151412964,9.87922096252441,1.21676588058472,0.16870817542076,-0.29315492510796
48,700206663,-1.01718652248383,0.25304436683655,15.81379032135010,-0.08962512016296,-0.19253307580948,9.84585285186768,1.32009351253510,0.13807353377342,-0.22878633439541
49,700214996,-1.01687860488892,0.25287753343582,15.81410408020020,-0.09978216141462,-0.19521538913250,9.82057476043701,1.35746490955353,0.12877558171749,-0.29125946760178
50,700223329,-1.01666367053986,0.25289401412010,15.81332588195801,-0.13737750053406,-0.16347822546959,9.85497951507568,1.34378683567047,0.15454347431660,-0.40391084551811
51,700231662,-1.01747465133667,0.25315380096436,15.81325721740723,-0.14079655706882,-0.20042981207371,9.83841323852539,1.22288739681244,0.18013209104538,-0.32045966386795
52,700239995,-1.01810348033905,0.25325393676758,15.81335353851318,-0.18587377667427,-0.21933478116989,9.85466480255127,1.24135541915894,0.16171547770500,-0.29820090532303
53,700248328,-1.01803457736969,0.25322666764259,15.81300449371338,-0.19118118286133,-0.18029455840588,9.81682586669922,1.33128714561462,0.14542481303215,-0.35339960455894
54,700256661,-1.01809155941010,0.25271266698837,15.81340789794922,-0.19470754265785,-0.18432876467705,9.85527324676514,1.30961740016937,0.08771594613791,-0.26421079039574
55,700264994,-1.01766884326935,0.25250118970871,15.81372547149658,-0.20089474320412,-0.19057320058346,9.86540126800537,1.37183427810669,0.12283305823803,-0.27599337697029
56,700273327,-1.01687765121460,0.25213140249252,15.81397819519043,-0.20174594223499,-0.16769839823246,9.83831310272217,1.41153633594513,0.10449326783419,-0.28065517544746
57,700281660,-1.01725041866302,0.25270330905914,15.81354141235352,-0.18460074067116,-0.17178983986378,9.84815406799316,1.27690792083740,0.21811801195145,-0.36449053883553
58,700289993,-1.01717042922974,0.25292393565178,15.81334972381592,-0.15716941654682,-0.20580159127712,9.87030124664307,1.32659983634949,0.17813420295715,-0.33224228024483
59,700298326,-1.01756083965302,0.25312176346779,15.81272315979004,-0.14643299579620,-0.16051694750786,9.85132408142090,1.27480781078339,0.17301136255264,-0.39243569970131
60,700306659,-1.01812934875488,0.25224044919014,15.81220722198486,-0.11281432211399,-0.16653965413570,9.86608886718750,1.25011539459229,0.04545245692134,-0.37258461117744
61,700314992,-1.01822113990784,0.25257301330566,15.81085014343262,-0.09154208749533,-0.21889129281044,9.86936378479004,1.31051385402679,0.19037781655788,-0.47598931193352
62,700323325,-1.01753616333008,0.25233581662178,15.81126308441162,-0.05966888740659,-0.15852130949497,9.85530281066895,1.39890861511230,0.12211585789919,-0.25975394248962
63,700331658,-1.01794123649597,0.25252908468246,15.81089401245117,-0.01653006300330,-0.17167538404465,9.88679695129395,1.27291214466095,0.17111589014530,-0.35396310687065
64,700339991,-1.01757299900055,0.25224635004997,15.81031227111816,0.01256754528731,-0.20448547601700,9.86044406890869,1.36128127574921,0.11763337254524,-0.37901380658150
65,700348324,-1.01691555976868,0.25268983840942,15.80988693237305,0.01406964194030,-0.16161133348942,9.83718299865723,1.40072715282440,0.20167365670204,-0.36200597882271
66,700356657,-1.01618933677673,0.25225105881691,15.81034469604492,0.05749455094337,-0.16292031109333,9.84356403350830,1.40439009666443,0.09732128679752,-0.25593745708466
67,700364990,-1.01625955104828,0.25248694419861,15.81043338775635,0.06599213182926,-0.21517182886600,9.86307621002197,1.31243503093719,0.17564961314201,-0.31200698018074
68,700373323,-1.01660180091858,0.25233685970306,15.81006431579590,0.09042624384165,-0.16727638244629,9.85670375823975,1.27583229541779,0.13387279212475,-0.35524380207062
69,700381656,-1.01755142211914,0.25229316949844,15.80959987640381,0.10863707214594,-0.16251260042191,9.83198928833008,1.20741653442383,0.14368304610252,-0.37350678443909
70,700389989,-1.01783943176270,0.25173220038414,15.81005954742432,0.10630555450916,-0.20872710645199,9.83749771118164,1.28246629238129,0.08187589794397,-0.25552758574486
71,700398322,-1.01750075817108,0.25190868973732,15.80890655517578,0.10562603175640,-0.17090287804604,9.85600948333740,1.36189603805542,0.17229413986206,-0.43746551871300
72,700406655,-1.01762127876282,0.25209093093872,15.81000804901123,0.12003892660141,-0.16057416796684,9.86888313293457,1.30236864089966,0.16945098340511,-0.17801895737648
73,700414988,-1.01814687252045,0.25197294354439,15.81007480621338,0.10264329612255,-0.20877002179623,9.85010147094727,1.25884997844696,0.13479490578175,-0.30301639437675
74,700423321,-1.01816117763519,0.25118520855904,15.81013965606689,0.05709399282932,-0.17204733192921,9.81403636932373,1.31502187252045,0.05439182370901,-0.30404096841812
75,700431654,-1.01780652999878,0.25127935409546,15.81083965301514,0.05504123121500,-0.14659751951694,9.88801288604736,1.36353528499603,0.15841121971607,-0.22489294409752
76,700439987,-1.01896095275879,0.25155994296074,15.81054115295410,0.01656626723707,-0.19843414425850,9.83146190643311,1.17885673046112,0.18566478788853,-0.34525427222252
77,700448320,-1.01944565773010,0.25179201364517,15.81034755706787,-0.01006390433758,-0.19113112986088,9.85062503814697,1.26225686073303,0.17687912285328,-0.33183243870735
78,700456653,-1.02017760276794,0.25258430838585,15.81087017059326,-0.04387553781271,-0.15818512439728,9.83750534057617,1.22898375988007,0.24493610858917,-0.24605034291744
79,700464986,-1.02041590213776,0.25329911708832,15.81127643585205,-0.05969762802124,-0.20821210741997,9.87238979339600,1.29214859008789,0.23384515941143,-0.26587575674057
80,700473319,-1.02079916000366,0.25246766209602,15.81179618835449,-0.09372348338366,-0.19192509353161,9.84784221649170,1.27147769927979,0.04765528067946,-0.24902157485485
81,700481652,-1.02057349681854,0.25228008627892,15.81243801116943,-0.11470309644938,-0.16530218720436,9.86205291748047,1.34811556339264,0.12664958834648,-0.22876073420048
82,700489985,-1.02073895931244,0.25160327553749,15.81314182281494,-0.14377224445343,-0.22434888780117,9.86208820343018,1.29606735706329,0.06602068990469,-0.22686527669430
83,700498318,-1.02064239978790,0.25127306580544,15.81212711334229,-0.16767674684525,-0.20168872177601,9.86837768554688,1.33331060409546,0.11189578473568,-0.42832121253014
84,700506651,-1.02094793319702,0.25090286135674,15.81148529052734,-0.18963600695133,-0.14438728988171,9.86273479461670,1.28105747699738,0.10733645409346,-0.38777390122414
85,700514984,-1.02119743824005,0.25158959627151,15.81101417541504,-0.20203936100006,-0.20532950758934,9.84782505035400,1.29199492931366,0.23087392747402,-0.35550001263618
86,700523317,-1.02083754539490,0.25142660737038,15.81111145019531,-0.18104560673237,-0.20808336138725,9.84406471252441,1.35971879959106,0.13174681365490,-0.29873880743980
87,700531650,-1.02097713947296,0.25178721547127,15.81186771392822,-0.18852032721043,-0.15555287897587,9.86472892761230,1.30377733707428,0.19076199829578,-0.22025679051876
88,700539983,-1.02179467678070,0.25130981206894,15.81291389465332,-0.19465032219887,-0.16162563860416,9.86882019042969,1.21907114982605,0.09017492085695,-0.18524213135242
89,700548316,-1.02174162864685,0.25049856305122,15.81246185302734,-0.17570227384567,-0.19120982289314,9.84513092041016,1.32695817947388,0.05159987881780,-0.36922916769981
90,700556649,-1.02191722393036,0.24973605573177,15.81306934356689,-0.14804954826832,-0.14410832524300,9.84971523284912,1.29609310626984,0.05818273499608,-0.23859660327435
91,700564982,-1.02167737483978,0.24959133565426,15.81335830688477,-0.12535370886326,-0.19345578551292,9.86998462677002,1.34990882873535,0.13067103922367,-0.28403627872467
92,700573315,-1.02187168598175,0.24932804703712,15.81301498413086,-0.09114883095026,-0.20718207955360,9.87088584899902,1.29401826858521,0.11863233149052,-0.35096624493599
93,700581648,-1.02182126045227,0.24945041537285,15.81258010864258,-0.05758753791451,-0.16691873967648,9.87331962585449,1.32767534255981,0.16486601531506,-0.37074041366577
94,700589981,-1.02146244049072,0.24959626793861,15.81320953369141,-0.02629373967648,-0.17978671193123,9.85700511932373,1.35992372035980,0.16548076272011,-0.23344813287258
95,700598314,-1.02161312103271,0.24918809533119,15.81289863586426,0.01120151486248,-0.21721039712429,9.86920070648193,1.30372607707977,0.09988270699978,-0.36162176728249
96,700606647,-1.02060210704803,0.24853450059891,15.81236648559570,0.01735279709101,-0.13742756843567,9.88190269470215,1.43779110908508,0.07273162156343,-0.37453135848045
97,700614980,-1.02123928070068,0.24817191064358,15.81235599517822,0.02624378167093,-0.15967291593552,9.87958526611328,1.24594044685364,0.10538976639509,-0.31098240613937
98,700623313,-1.02139210700989,0.24823269248009,15.81172275543213,0.06416815519333,-0.21240366995335,9.83408641815186,1.29819333553314,0.15953823924065,-0.38690301775932
99,700631646,-1.02148807048798,0.24836058914661,15.81106853485107,0.07741522043943,-0.15651850402355,9.86480045318604,1.31046259403229,0.16373899579048,-0.36794847249985
100,700639979,-1.02148079872131,0.24779248237610,15.81083965301514,0.10423853993416,-0.14309263229370,9.85875797271729,1.31737852096558,0.08343836665154,-0.33769804239273
101,700648312,-1.02221751213074,0.24819885194302,15.81036186218262,0.10501804202795,-0.19162465631962,9.87619495391846,1.23359429836273,0.19752416014671,-0.38595530390739
102,700656645,-1.02210426330566,0.24913881719112,15.80954551696777,0.11405904591084,-0.19090938568115,9.85553646087646,1.33031356334686,0.26527383923531,-0.40526840090752
103,700664978,-1.02263391017914,0.24904145300388,15.80971240997314,0.10553304851055,-0.15226256847382,9.87413501739502,1.25859391689301,0.13653668761253,-0.31956323981285
104,700673311,-1.02312600612640,0.24855637550354,15.80880069732666,0.07163590192795,-0.22231036424637,9.84312725067139,1.25797891616821,0.09422195702791,-0.42027834057808
105,700681644,-1.02347755432129,0.24827188253403,15.80815029144287,0.07222242653370,-0.17849920690060,9.84940147399902,1.27893161773682,0.11607090383768,-0.39092445373535
106,700689977,-1.02421557903290,0.24843700230122,15.80843925476074,0.06413977593184,-0.18764767050743,9.87496566772461,1.22854828834534,0.16929727792740,-0.27573719620705
107,700698310,-1.02468299865723,0.24906928837299,15.80826091766357,0.03675846010447,-0.20423512160778,9.87101650238037,1.26527905464172,0.22511067986488,-0.33651980757713
108,700706643,-1.02425956726074,0.24889098107815,15.80841350555420,0.01620834134519,-0.18041615188122,9.87569427490234,1.36765933036804,0.12936468422413,-0.29225844144821
109,700714976,-1.02529907226562,0.24991326034069,15.80848312377930,-0.03399030864239,-0.16900737583637,9.84378528594971,1.19676101207733,0.27108824253082,-0.30660238862038
110,700723309,-1.02599501609802,0.25029733777046,15.80860996246338,-0.07000487297773,-0.20703904330730,9.86243247985840,1.23262095451355,0.19637152552605,-0.29325738549232
111,700731642,-1.02697777748108,0.25108772516251,15.80799674987793,-0.08461780846119,-0.18187530338764,9.86676120758057,1.20436847209930,0.24401400983334,-0.37742573022842
112,700739975,-1.02741479873657,0.25066208839417,15.80700588226318,-0.10598386079073,-0.15724094212055,9.86144447326660,1.26438260078430,0.10188061743975,-0.42932015657425
113,700748308,-1.02733349800110,0.25120601058006,15.80761909484863,-0.13261370360851,-0.19636699557304,9.86550140380859,1.33090293407440,0.21378920972347,-0.26295572519302
114,700756641,-1.02764189243317,0.25084167718887,15.80771827697754,-0.15764865279198,-0.19947132468224,9.84914970397949,1.27957177162170,0.10631187260151,-0.29822653532028
115,700764974,-1.02768361568451,0.25113150477409,15.80749320983887,-0.15957263112068,-0.16098189353943,9.84964466094971,1.31681489944458,0.18374370038509,-0.33838963508606
116,700773307,-1.02821707725525,0.25057089328766,15.80816555023193,-0.18451473116875,-0.19273334741592,9.79532527923584,1.25285613536835,0.08156852424145,-0.23142461478710
117,700781640,-1.02895665168762,0.25085383653641,15.80768394470215,-0.18703936040401,-0.20213931798935,9.84704113006592,1.23274910449982,0.18405108153820,-0.37919309735298
118,700789973,-1.02857148647308,0.25107711553574,15.80758857727051,-0.20286193490028,-0.16121077537537,9.86532115936279,1.36309993267059,0.17785242199898,-0.31961441040039
119,700798306,-1.02896153926849,0.25155863165855,15.80809402465820,-0.19877751171589,-0.20219656825066,9.86380577087402,1.27498710155487,0.20500352978706,-0.25450301170349
120,700806639,-1.02888441085815,0.25157696008682,15.80715465545654,-0.18546606600285,-0.18450757861137,9.86892795562744,1.32565176486969,0.15472277998924,-0.42337769269943
121,700814972,-1.02873706817627,0.25195980072021,15.80718231201172,-0.15753406286240,-0.14027440547943,9.86993026733398,1.33912503719330,0.19447605311871,-0.31118732690811
122,700823305,-1.02874195575714,0.25193849205971,15.80739688873291,-0.13060362637043,-0.19618102908134,9.86902904510498,1.31617474555969,0.14744834601879,-0.28452292084694
123,700831638,-1.02738380432129,0.25264087319374,15.80783271789551,-0.09971763938665,-0.22265368700027,9.85872173309326,1.48343551158905,0.23156546056271,-0.28475344181061
124,700839971,-1.02747058868408,0.25265228748322,15.80738735198975,-0.07099196314812,-0.12270702421665,9.86595249176025,1.30774748325348,0.15298102796078,-0.36456736922264
125,700848304,-1.02811908721924,0.25220710039139,15.80729866027832,-0.05856775492430,-0.17381407320499,9.85856914520264,1.24332773685455,0.09632232040167,-0.32322600483894
126,700856637,-1.02749276161194,0.25137671828270,15.80807018280029,-0.01090808585286,-0.23721688985825,9.81912231445312,1.39073777198792,0.04803949967027,-0.21994945406914
127,700864970,-1.02719140052795,0.25226706266403,15.80826091766357,0.00806110445410,-0.17602431774139,9.88019180297852,1.35764420032501,0.25538673996925,-0.31674563884735
128,700873303,-1.02689790725708,0.25240501761436,15.80851364135742,0.03612900897861,-0.14329290390015,9.86831283569336,1.35267508029938,0.16642850637436,-0.27722287178040
129,700881636,-1.02666914463043,0.25225785374641,15.80884170532227,0.05909678712487,-0.22894103825092,9.86314773559570,1.34847414493561,0.12951837480068,-0.27135720849037
130,700889969,-1.02603471279144,0.25272363424301,15.80893039703369,0.07671424001455,-0.16988717019558,9.85340595245361,1.39324784278870,0.20605370402336,-0.29840582609177
131,700898302,-1.02685177326202,0.25192981958389,15.80915927886963,0.09697824716568,-0.15309944748878,9.85652446746826,1.22309243679047,0.05321357026696,-0.29148998856544
132,700906635,-1.02683091163635,0.25191116333008,15.80917644500732,0.09290126711130,-0.19249731302261,9.86535930633545,1.31958150863647,0.14734591543674,-0.30747330188751
133,700914968,-1.02704048156738,0.25159657001495,15.80937480926514,0.10305815935135,-0.18061643838882,9.86917114257812,1.29588830471039,0.11130666732788,-0.28695628046989
134,700923301,-1.02717125415802,0.25180962681770,15.80985641479492,0.09436030685902,-0.18073803186417,9.86060905456543,1.30160009860992,0.17516295611858,-0.25181356072426
135,700931634,-1.02699041366577,0.25194993615150,15.81063175201416,0.10642714798450,-0.20379880070686,9.86357021331787,1.34194254875183,0.16391830146313,-0.22427822649479
136,700939967,-1.02681100368500,0.25257533788681,15.81106853485107,0.08537633717060,-0.15699060261250,9.87384891510010,1.33881771564484,0.22439348697662,-0.25726938247681
137,700948300,-1.02749478816986,0.25214946269989,15.81151199340820,0.04369671642780,-0.13978086411953,9.88917732238770,1.23782062530518,0.09750057756901,-0.25729495286942
138,700956633,-1.02772653102875,0.25234901905060,15.81193923950195,0.03946950286627,-0.23644439876080,9.84831428527832,1.28966379165649,0.17237098515034,-0.25906237959862
139,700964966,-1.02723085880280,0.25235939025879,15.81154346466064,-0.00379100674763,-0.17746202647686,9.86841964721680,1.38102984428406,0.15072695910931,-0.34079736471176
140,700973299,-1.02755594253540,0.25266399979591,15.81128501892090,-0.01208815351129,-0.14683356881142,9.88502311706543,1.27788138389587,0.18756023049355,-0.34015706181526
141,700981632,-1.02778697013855,0.25296434760094,15.81134510040283,-0.05504112690687,-0.21586564183235,9.86909961700439,1.29350602626801,0.18505004048347,-0.29348790645599
142,700989965,-1.02710032463074,0.25327593088150,15.81122875213623,-0.09020449966192,-0.19781902432442,9.83216190338135,1.39939522743225,0.18781636655331,-0.32276493310928
143,700998298,-1.02687430381775,0.25395950675011,15.81167316436768,-0.09898819029331,-0.16591019928455,9.84653949737549,1.34747529029846,0.23005427420139,-0.23926259577274
144,701006631,-1.02740252017975,0.25429052114487,15.81156730651855,-0.12240660190582,-0.19726826250553,9.85156059265137,1.25418829917908,0.19022411108017,-0.32148426771164
145,701014964,-1.02809262275696,0.25415894389153,15.81161117553711,-0.16094636917114,-0.19316968321800,9.83756828308105,1.23899888992310,0.13297629356384,-0.30509114265442
146,701023297,-1.02852034568787,0.25403645634651,15.81216812133789,-0.17216913402081,-0.16171863675117,9.85680961608887,1.26509976387024,0.13441069424152,-0.24400119483471
147,701031630,-1.02945971488953,0.25399589538574,15.81299972534180,-0.17091003060341,-0.19048735499382,9.84502983093262,1.20767271518707,0.14222303032875,-0.20452967286110
148,701039963,-1.02931427955627,0.25321525335312,15.81305599212646,-0.18535877764225,-0.22442759573460,9.87576580047607,1.33489859104156,0.05751676484942,-0.30493745207787
149,701048296,-1.02945232391357,0.25323587656021,15.81404304504395,-0.17681828141212,-0.13667652010918,9.84473705291748,1.30423855781555,0.14831922948360,-0.19728083908558
150,701056629,-1.02931618690491,0.25413382053375,15.81467819213867,-0.18573072552681,-0.20008647441864,9.83014488220215,1.33300316333771,0.25656497478485,-0.23260286450386
151,701064962,-1.02918970584869,0.25451773405075,15.81569957733154,-0.18053051829338,-0.21607309579849,9.87333488464355,1.33551335334778,0.19342589378357,-0.19305449724197
152,701073295,-1.02880132198334,0.25429335236549,15.81557273864746,-0.16803458333015,-0.15410800278187,9.87811183929443,1.36371469497681,0.12293552607298,-0.32460919022560
153,701081628,-1.02918386459351,0.25380301475525,15.81548404693604,-0.13191272318363,-0.18962186574936,9.87085914611816,1.27680563926697,0.09063596278429,-0.31874355673790
154,701089961,-1.02884626388550,0.25397804379463,15.81517219543457,-0.13410848379135,-0.24600774049759,9.86213397979736,1.35659384727478,0.17231976985931,-0.34727779030800
155,701098294,-1.02810382843018,0.25456157326698,15.81534290313721,-0.08805879205465,-0.16578859090805,9.85271835327148,1.41130590438843,0.21709343791008,-0.29307806491852
156,701106627,-1.02840960025787,0.25406685471535,15.81676101684570,-0.04245915263891,-0.15628962218761,9.88146781921387,1.27903389930725,0.08925279974937,-0.13985373079777
157,701114960,-1.02898919582367,0.25400826334953,15.81669616699219,-0.01602952182293,-0.20795460045338,9.87600898742676,1.25101196765900,0.14081424474716,-0.31861546635628
158,701123293,-1.02857673168182,0.25347176194191,15.81685066223145,0.02227395214140,-0.16888578236103,9.86879158020020,1.36691653728485,0.08569242805243,-0.29230964183807
159,701131626,-1.02858328819275,0.25321376323700,15.81639289855957,0.02412670664489,-0.17579543590546,9.84674072265625,1.32147681713104,0.11922146379948,-0.36513096094131
160,701139959,-1.02762103080750,0.25290846824646,15.81662845611572,0.06340280175209,-0.19164611399174,9.86683940887451,1.43246328830719,0.11189578473568,-0.28216639161110
161,701148292,-1.02699232101440,0.25230282545090,15.81662273406982,0.06455426663160,-0.17862793803215,9.86532115936279,1.39598858356476,0.07588216662407,-0.29999393224716
162,701156625,-1.02656090259552,0.25302672386169,15.81631755828857,0.08314464986324,-0.15846408903599,9.86004352569580,1.36919617652893,0.23804591596127,-0.34443458914757
163,701164958,-1.02644419670105,0.25214111804962,15.81717109680176,0.09257914870977,-0.19718240201473,9.84253215789795,1.33433520793915,0.04061136767268,-0.20732161402702
164,701173291,-1.02575623989105,0.25160109996796,15.81750297546387,0.12433786690235,-0.17465811967850,9.84819889068604,1.39926719665527,0.08459100872278,-0.27084487676620
165,701181624,-1.02589893341064,0.25084200501442,15.81749534606934,0.11219234019518,-0.13001006841660,9.88391971588135,1.30452024936676,0.05813150852919,-0.30145391821861
166,701189957,-1.02624726295471,0.25150334835052,15.81817150115967,0.10158467292786,-0.22911271452904,9.82843494415283,1.27485883235931,0.22828686237335,-0.22817160189152
167,701198290,-1.02605569362640,0.25181841850281,15.81869602203369,0.09018292278051,-0.18888510763645,9.86306095123291,1.34386360645294,0.18576724827290,-0.25714129209518
168,701206623,-1.02599239349365,0.25127515196800,15.81929588317871,0.05117848515511,-0.12674121558666,9.86253929138184,1.32426881790161,0.08366889506578,-0.24049203097820
169,701214956,-1.02636039257050,0.25118783116341,15.82014942169189,0.05011281743646,-0.21160970628262,9.87379169464111,1.27657496929169,0.13725386559963,-0.20921705663204
170,701223289,-1.02609586715698,0.25052875280380,15.82014942169189,0.03051402792335,-0.20892024040222,9.86596679687500,1.34903764724731,0.07052879780531,-0.31221190094948
171,701231622,-1.02674996852875,0.25057059526443,15.82025146484375,0.00359072722495,-0.11883018165827,9.87145996093750,1.24258494377136,0.15444102883339,-0.30744764208794
172,701239955,-1.02649235725403,0.25030517578125,15.82174777984619,-0.04189420118928,-0.17140357196331,9.87799072265625,1.34696292877197,0.11614774167538,-0.13119609653950
173,701248288,-1.02679145336151,0.24975454807281,15.82204151153564,-0.03761680051684,-0.19766882061958,9.86868476867676,1.28528404235840,0.08313100785017,-0.28316536545753
174,701256621,-1.02699029445648,0.25031420588493,15.82307243347168,-0.10149876028299,-0.15261305868626,9.85721206665039,1.29327547550201,0.21422463655472,-0.18613862991333
175,701264954,-1.02762055397034,0.25107246637344,15.82356739044189,-0.10647007077932,-0.18629579246044,9.84703254699707,1.24468529224396,0.23914730548859,-0.23836608231068
176,701273287,-1.02717161178589,0.25038751959801,15.82287788391113,-0.13116882741451,-0.20533666014671,9.86105918884277,1.37221848964691,0.06986282765865,-0.39486902952194
177,701281620,-1.02815318107605,0.25045046210289,15.82271099090576,-0.17365671694279,-0.14784210920334,9.85698223114014,1.20298528671265,0.15730983018875,-0.34348684549332
178,701289953,-1.02890825271606,0.25058892369270,15.82350158691406,-0.17584548890591,-0.18748316168785,9.85960006713867,1.22616612911224,0.16514776647091,-0.21518518030643
179,701298286,-1.02976047992706,0.25049841403961,15.82377243041992,-0.17071689665318,-0.22293265163898,9.85862731933594,1.21853327751160,0.13832968473434,-0.28014290332794
180,701306619,-1.02989578247070,0.25046673417091,15.82355403900146,-0.19798353314400,-0.15865720808506,9.84347057342529,1.30149781703949,0.14747396111488,-0.33764687180519
181,701314952,-1.02971875667572,0.25115340948105,15.82339572906494,-0.20709641277790,-0.19228988885880,9.83868408203125,1.34224987030029,0.23179599642754,-0.33838963508606
182,701323285,-1.02955996990204,0.25113818049431,15.82284069061279,-0.19324836134911,-0.23199531435966,9.84413623809814,1.33635866641998,0.15029151737690,-0.37763062119484
183,701331618,-1.02983462810516,0.25204783678055,15.82248210906982,-0.15539550781250,-0.14900802075863,9.87215328216553,1.28861379623413,0.25912642478943,-0.39015603065491
184,701339951,-1.02984094619751,0.25192764401436,15.82284069061279,-0.15150436758995,-0.16068147122860,9.86070919036865,1.31576466560364,0.13579386472702,-0.26687467098236
185,701348284,-1.02991688251495,0.25160729885101,15.82256221771240,-0.12913757562637,-0.21698863804340,9.86424160003662,1.31217885017395,0.11017963290215,-0.32893797755241
186,701356617,-1.02932870388031,0.25130304694176,15.82196903228760,-0.10127728432417,-0.17236204445362,9.81669616699219,1.38876545429230,0.11461089551449,-0.38129353523254
187,701364950,-1.02882623672485,0.25210401415825,15.82167434692383,-0.05717267468572,-0.14468771219254,9.82274913787842,1.38138854503632,0.24613998830318,-0.36172419786453
188,701373283,-1.02864539623260,0.25198701024055,15.82201862335205,-0.05655025318265,-0.21703872084618,9.86808490753174,1.33802354335785,0.13540965318680,-0.26892384886742
189,701381616,-1.02793753147125,0.25128397345543,15.82168292999268,-0.01588662341237,-0.17811292409897,9.84194564819336,1.40679776668549,0.06466313451529,-0.32670956850052
190,701389949,-1.02747380733490,0.25174531340599,15.82175445556641,0.01881912909448,-0.16197612881660,9.88246059417725,1.37229549884796,0.20454247295856,-0.30081355571747
191,701398282,-1.02711355686188,0.25195899605751,15.82167911529541,0.02982735447586,-0.20801182091236,9.86080169677734,1.36504662036896,0.17475311458111,-0.32025480270386
192,701406615,-1.02647221088409,0.25124651193619,15.82170009613037,0.04893960431218,-0.14056764543056,9.86537837982178,1.39391374588013,0.06573893129826,-0.30834415555000
193,701414948,-1.02591979503632,0.25060501694679,15.82155323028564,0.07281593978405,-0.14217706024647,9.82262039184570,1.38727986812592,0.07175827771425,-0.32599240541458
194,701423281,-1.02598333358765,0.25013786554337,15.82167434692383,0.08950352668762,-0.21522189676762,9.86309051513672,1.30907952785492,0.09483670443296,-0.29648473858833
195,701431614,-1.02596545219421,0.25023338198662,15.82176589965820,0.08281561732292,-0.19978605210781,9.82531642913818,1.32326972484589,0.15948702394962,-0.28682819008827
196,701439947,-1.02597069740295,0.25037458539009,15.82185649871826,0.08841642737389,-0.13391552865505,9.86470890045166,1.31709671020508,0.16742743551731,-0.29891809821129
197,701448280,-1.02674996852875,0.25110891461372,15.82172393798828,0.08632766455412,-0.20676007866859,9.85924243927002,1.22799754142761,0.23652185499668,-0.33161464333534
198,701456613,-1.02744746208191,0.25051257014275,15.82160568237305,0.10139154642820,-0.20344831049442,9.88580799102783,1.23347902297974,0.07948096841574,-0.32444268465042
199,701464946,-1.02747356891632,0.25042000412941,15.82046127319336,0.08659231662750,-0.15113957226276,9.85982227325439,1.31812131404877,0.13971284031868,-0.43733742833138
200,701473279,-1.02815175056458,0.25045400857925,15.82031345367432,0.06376044452190,-0.19077347218990,9.85746192932129,1.23607885837555,0.15584979951382,-0.32783657312393
201,701481612,-1.02865934371948,0.25133368372917,15.82051086425781,0.03120070137084,-0.19777610898018,9.82264900207520,1.26030993461609,0.25413161516190,-0.29630544781685
202,701489945,-1.02843999862671,0.25145667791367,15.82082176208496,0.00984946452081,-0.14350749552250,9.86214637756348,1.34317195415497,0.16396953165531,-0.27258670330048
203,701498278,-1.02806890010834,0.25128397345543,15.82108116149902,-0.01598673872650,-0.18433590233326,9.84311866760254,1.36507213115692,0.12933909893036,-0.28129556775093
204,701506611,-1.02823841571808,0.25137132406235,15.82056617736816,-0.05324576422572,-0.18354195356369,9.85563755035400,1.29591393470764,0.16133126616478,-0.37199556827545
205,701514944,-1.02846074104309,0.25109565258026,15.82089900970459,-0.07826640456915,-0.15838539600372,9.85693264007568,1.29483795166016,0.11581474542618,-0.27120348811150
206,701523277,-1.02875304222107,0.25055894255638,15.82055091857910,-0.12583281099796,-0.16654679179192,9.85140991210938,1.28162097930908,0.08776717633009,-0.35286170244217
207,701531610,-1.02875542640686,0.25063532590866,15.82025814056396,-0.13212716579437,-0.20827649533749,9.84031772613525,1.32122063636780,0.15802703797817,-0.34315392374992
208,701539943,-1.02803242206573,0.25033140182495,15.81940841674805,-0.16446551680565,-0.15083914995193,9.83844852447510,1.40359604358673,0.11681372672319,-0.41328570246696
209,701548276,-1.02764642238617,0.25064361095428,15.81922340393066,-0.15350715816021,-0.16645380854607,9.84004402160645,1.36817145347595,0.18635635077953,-0.33418890833855
210,701556609,-1.02718544006348,0.25023642182350,15.81955623626709,-0.18035893142223,-0.22823292016983,9.81559562683105,1.37216734886169,0.10054866969585,-0.27207440137863
211,701564942,-1.02665448188782,0.24980622529984,15.81965732574463,-0.18651768565178,-0.17966510355473,9.86385536193848,1.38517940044403,0.09857638180256,-0.31164836883545
212,701573275,-1.02629148960114,0.24901643395424,15.82011890411377,-0.18511545658112,-0.15975160896778,9.86608219146729,1.36064100265503,0.05467358231544,-0.25744870305061
213,701581608,-1.02588438987732,0.24905087053776,15.81949996948242,-0.17247650027275,-0.21259680390358,9.86017990112305,1.37033581733704,0.15453067421913,-0.38671094179153
214,701589941,-1.02505910396576,0.24905511736870,15.81883430480957,-0.14929394423962,-0.20260429382324,9.83616924285889,1.41558349132538,0.15280172228813,-0.38961812853813
215,701598274,-1.02499771118164,0.24938037991524,15.81898117065430,-0.15464445948601,-0.17106023430824,9.84912872314453,1.32834136486053,0.18707355856895,-0.28923594951630
216,701606607,-1.02459621429443,0.24970419704914,15.81918621063232,-0.12222062796354,-0.20720355212688,9.86379909515381,1.36522591114044,0.18876409530640,-0.28659766912460
217,701614940,-1.02495419979095,0.24943952262402,15.81867408752441,-0.11232093721628,-0.16756965219975,9.85129737854004,1.27785563468933,0.11863233149052,-0.35211884975433
218,701623273,-1.02509009838104,0.24951660633087,15.81965446472168,-0.07891016453505,-0.16874271631241,9.84924316406250,1.30101096630096,0.15692560374737,-0.19156885147095
219,701631606,-1.02464735507965,0.24936945736408,15.82062721252441,-0.06021263077855,-0.19158174097538,9.84844875335693,1.37352490425110,0.12972329556942,-0.20296716690063
220,701639939,-1.02403175830841,0.24959574639797,15.82053470611572,-0.00845465995371,-0.16678284108639,9.87675285339355,1.39002048969269,0.17772436141968,-0.31951197981834
221,701648272,-1.02404260635376,0.24909158051014,15.82059955596924,-0.01674467138946,-0.14298532903194,9.87691116333008,1.32111823558807,0.08774156123400,-0.29561388492584
222,701656605,-1.02413976192474,0.24885383248329,15.82086467742920,0.03275274112821,-0.21170982718468,9.85376262664795,1.30421280860901,0.12078391760588,-0.28037336468697
223,701664938,-1.02374315261841,0.24892696738243,15.82062435150146,0.04993399605155,-0.20967128872871,9.84007263183594,1.36888885498047,0.15866738557816,-0.35022345185280
224,701673271,-1.02302575111389,0.24921841919422,15.82098579406738,0.06464751809835,-0.13676951825619,9.86008834838867,1.40285325050354,0.18499881029129,-0.26549154520035
225,701681604,-1.02276110649109,0.24882921576500,15.82068061828613,0.06477614492178,-0.17937900125980,9.85932159423828,1.35339212417603,0.10311010479927,-0.33828717470169
226,701689937,-1.02252149581909,0.24851651489735,15.82108879089355,0.08149234205484,-0.22056506574154,9.85473632812500,1.34470891952515,0.11151157319546,-0.26354485750198
227,701698270,-1.02227950096130,0.24835123121738,15.82189273834229,0.08427479863167,-0.16396461427212,9.87550067901611,1.35070252418518,0.12726432085037,-0.21101003885269
228,701706603,-1.02294588088989,0.24863009154797,15.82151889801025,0.10095522552729,-0.16759826242924,9.89772510528564,1.23694968223572,0.18453775346279,-0.35365572571754
229,701714936,-1.02301347255707,0.24841177463531,15.82133388519287,0.08825160562992,-0.19025845825672,9.86711692810059,1.31310093402863,0.12503588199615,-0.37240538001060
230,701723269,-1.02276170253754,0.24841395020485,15.82130050659180,0.09152762591839,-0.17781251668930,9.85282516479492,1.34696292877197,0.15090624988079,-0.31490138173103
231,701731602,-1.02348291873932,0.24827577173710,15.82151508331299,0.07183624058962,-0.16985855996609,9.85542392730713,1.23338937759399,0.13205417990685,-0.27863165736198
232,701739935,-1.02331817150116,0.24773275852203,15.82217788696289,0.04685112088919,-0.19463600218296,9.85751914978027,1.33697342872620,0.08331029862165,-0.23188567161560
233,701748268,-1.02296757698059,0.24810910224915,15.82214736938477,-0.00064390327316,-0.14832849800587,9.84165954589844,1.36302316188812,0.19542382657528,-0.31221193075180
234,701756601,-1.02341723442078,0.24858003854752,15.82157135009766,-0.01557872630656,-0.17515166103840,9.83310031890869,1.26320433616638,0.20869196951389,-0.37898823618889
235,701764934,-1.02375411987305,0.24871729314327,15.82176303863525,-0.03306759148836,-0.20455700159073,9.85819149017334,1.28136491775513,0.16568568348885,-0.28011727333069
236,701773267,-1.02375662326813,0.24941529333591,15.82143974304199,-0.08030480891466,-0.14366483688354,9.86979484558105,1.31732738018036,0.23533080518246,-0.34712415933609
237,701781600,-1.02410626411438,0.24892790615559,15.82250022888184,-0.10501804202795,-0.15493772923946,9.86572360992432,1.27752280235291,0.08738295733929,-0.18928918242455
238,701789933,-1.02430856227875,0.24861955642700,15.82209205627441,-0.13336475193501,-0.21319048106670,9.84704685211182,1.29304504394531,0.11489263921976,-0.35952141880989
239,701798266,-1.01707434654236,0.24711960554123,15.81367588043213,-0.14523847401142,-0.17482262849808,9.87393474578857,1.32642030715942,0.01266623940319,-0.30127462744713
240,701806599,-1.01736187934875,0.24640780687332,15.81437969207764,-0.15137562155724,-0.11867281794548,9.85553741455078,1.28180015087128,0.06327995657921,-0.22768491506577
241,701814932,-1.01719987392426,0.24663949012756,15.81470584869385,-0.18218290805817,-0.21101601421833,9.86806964874268,1.34078967571259,0.17767314612865,-0.28004041314125
242,701823265,-1.01643168926239,0.24682441353798,15.81409072875977,-0.18600967526436,-0.18747600913048,9.85669612884521,1.40871870517731,0.17480432987213,-0.38226681947708
243,701831598,-1.01543140411377,0.24750538170338,15.81440162658691,-0.18924276530743,-0.15515947341919,9.84249782562256,1.44109547138214,0.22920900583267,-0.27074247598648
244,701839931,-1.01518785953522,0.24724860489368,15.81509494781494,-0.18028014898300,-0.20957115292549,9.86666870117188,1.34637367725372,0.11896531283855,-0.22668597102165
245,701848264,-1.01560556888580,0.24785667657852,15.81447124481201,-0.18010891973972,-0.16611766815186,9.85798263549805,1.26981294155121,0.22231876850128,-0.37143206596375
246,701856597,-1.01672911643982,0.24793925881386,15.81477355957031,-0.16618937253952,-0.15132555365562,9.85342597961426,1.18280124664307,0.16005055606365,-0.27409794926643
247,701864930,-1.01676619052887,0.24736626446247,15.81531047821045,-0.15390771627426,-0.18577364087105,9.82226276397705,1.31594419479370,0.07910955697298,-0.24338646233082
248,701873263,-1.01659500598907,0.24719148874283,15.81540203094482,-0.12353675067425,-0.18372076749802,9.87645244598389,1.33651244640350,0.12962083518505,-0.30045497417450
249,701881596,-1.01699352264404,0.24673129618168,15.81639575958252,-0.09225736558437,-0.15337841212749,9.86959266662598,1.27398800849915,0.09137878566980,-0.21644030511379
250,701889929,-1.01658844947815,0.24593937397003,15.81674766540527,-0.06976883113384,-0.21272554993629,9.84076690673828,1.36484146118164,0.05574937537313,-0.26830908656120
251,701898262,-1.01568019390106,0.24604745209217,15.81698989868164,-0.03268133848906,-0.21364110708237,9.85160350799561,1.42938971519470,0.16115196049213,-0.28462541103363
252,701906595,-1.01553702354431,0.24637773633003,15.81719017028809,-0.00375524256378,-0.13646909594536,9.85126686096191,1.33497548103333,0.19007042050362,-0.28457412123680
253,701914928,-1.01581788063049,0.24601010978222,15.81721210479736,0.01425575092435,-0.19134570658207,9.85267066955566,1.28625702857971,0.10444203764200,-0.30457887053490
254,701923261,-1.01603412628174,0.24510848522186,15.81696796417236,0.03148696571589,-0.22923433780670,9.84112548828125,1.29176425933838,0.04232752323151,-0.34202685952187
255,701931594,-1.01569759845734,0.24434056878090,15.81667804718018,0.07381018996239,-0.16241244971752,9.85960769653320,1.36133253574371,0.05782413482666,-0.36300495266914
256,701939927,-1.01456725597382,0.24462690949440,15.81750965118408,0.08185703307390,-0.14882203936577,9.86144447326660,1.45103383064270,0.18323142826557,-0.21049779653549
257,701948260,-1.01404941082001,0.24372924864292,15.81782341003418,0.08140650391579,-0.21779692173004,9.83917903900146,1.38369381427765,0.04148225486279,-0.26756629347801
258,701956593,-1.01343917846680,0.24364106357098,15.81845855712891,0.08523316681385,-0.17526610195637,9.85762500762939,1.38927769660950,0.13779176771641,-0.23467761278152
259,701964926,-1.01376712322235,0.24442929029465,15.81830501556396,0.09126312285662,-0.16770555078983,9.86997890472412,1.28167235851288,0.24375784397125,-0.32548007369041
260,701973259,-1.01401448249817,0.24490454792976,15.81869983673096,0.07848814874887,-0.16988001763821,9.85523700714111,1.28620600700378,0.20697581768036,-0.26223850250244
261,701981592,-1.01459228992462,0.24450537562370,15.81857490539551,0.08196470141411,-0.18575932085514,9.83742046356201,1.25229263305664,0.10223921388388,-0.32168912887573
262,701989925,-1.01561295986176,0.24420700967312,15.81884670257568,0.07668562978506,-0.18244756758213,9.85271167755127,1.19407153129578,0.11348386108875,-0.27804252505302
263,701998258,-1.01612198352814,0.24496206641197,15.81854438781738,0.05609989166260,-0.21386285126209,9.85355758666992,1.25984895229340,0.23996698856354,-0.32642781734467
264,702006591,-1.01616680622101,0.24456861615181,15.81842422485352,0.02107227593660,-0.16319210827351,9.85990810394287,1.31166648864746,0.10423713177443,-0.32476288080215
265,702014924,-1.01576173305511,0.24558866024017,15.81755065917969,0.01728861778975,-0.17064535617828,9.86601066589355,1.36988759040833,0.27300930023193,-0.40952038764954
266,702023257,-1.01673138141632,0.24555356800556,15.81671905517578,-0.02320416085422,-0.19718244671822,9.84175968170166,1.20021903514862,0.14854975044727,-0.40905931591988
267,702031590,-1.01681733131409,0.24585948884487,15.81647968292236,-0.05486245080829,-0.18048767745495,9.85145187377930,1.31158959865570,0.18586969375610,-0.31843614578247
268,702039923,-1.01686704158783,0.24642124772072,15.81663894653320,-0.08141378313303,-0.14736287295818,9.87048530578613,1.31002724170685,0.21801555156708,-0.28882610797882
269,702048256,-1.01742935180664,0.24578748643398,15.81666564941406,-0.10883765667677,-0.19825534522533,9.85150337219238,1.25367605686188,0.07396110147238,-0.31141787767410
270,702056589,-1.01786828041077,0.24562513828278,15.81665039062500,-0.14747731387615,-0.18108136951923,9.84930706024170,1.26369106769562,0.13028681278229,-0.31221193075180
271,702064922,-1.01829922199249,0.24518364667892,15.81618118286133,-0.16638959944248,-0.13435900211334,9.88773822784424,1.26968491077423,0.09844830632210,-0.36866569519043
272,702073255,-1.01789462566376,0.24604447185993,15.81730747222900,-0.16579574346542,-0.19896347820759,9.87997913360596,1.36507213115692,0.25077617168427,-0.17261432111263
273,702081588,-1.01828932762146,0.24583163857460,15.81753826141357,-0.18705411255360,-0.20231099426746,9.84228897094727,1.27406489849091,0.12372957170010,-0.28890293836594
274,702089921,-1.01893532276154,0.24570271372795,15.81724834442139,-0.17055954039097,-0.17486555874348,9.85304069519043,1.23902451992035,0.13589631021023,-0.34504935145378
275,702098254,-1.01925456523895,0.24490886926651,15.81787109375000,-0.18786226212978,-0.16613908112049,9.87055110931396,1.28241515159607,0.05249636992812,-0.25522023439407
276,702106587,-1.01935827732086,0.24494814872742,15.81734752655029,-0.17332069575787,-0.20025098323822,9.84684562683105,1.30413591861725,0.15643893182278,-0.37212359905243
277,702114920,-1.01871454715729,0.24506492912769,15.81760311126709,-0.16984412074089,-0.17734044790268,9.84114742279053,1.39854991436005,0.16345722973347,-0.27783754467964
278,702123253,-1.01881670951843,0.24458307027817,15.81717777252197,-0.16207626461983,-0.18814122676849,9.85661029815674,1.30411040782928,0.09291563183069,-0.36095577478409
279,702131586,-1.01778328418732,0.24484622478485,15.81649303436279,-0.12830770015717,-0.21257534623146,9.81360721588135,1.44573152065277,0.18082369863987,-0.39200025796890
280,702139919,-1.01746165752411,0.24547053873539,15.81617069244385,-0.09088402241468,-0.16346392035484,9.88110923767090,1.35510826110840,0.22754403948784,-0.34681671857834
281,702148252,-1.01780664920807,0.24623584747314,15.81661987304688,-0.06938973069191,-0.17701140046120,9.85073089599609,1.27975118160248,0.23914729058743,-0.22348421812057
282,702156585,-1.01843583583832,0.24561579525471,15.81712341308594,-0.06821666657925,-0.21233929693699,9.84981536865234,1.23974180221558,0.07478075474501,-0.24999493360519
283,702164918,-1.01835811138153,0.24500630795956,15.81647777557373,-0.01159458234906,-0.16958676278591,9.85071086883545,1.33123576641083,0.07700919359922,-0.38247171044350
284,702173251,-1.01865088939667,0.24445362389088,15.81521415710449,-0.00291141122580,-0.17290566861629,9.87160110473633,1.28208196163177,0.08758786320686,-0.46128669381142
285,702181584,-1.01849031448364,0.24487690627575,15.81449031829834,0.02605065330863,-0.19517962634563,9.85163211822510,1.34155857563019,0.20080281794071,-0.39161607623100
286,702189917,-1.01839101314545,0.24446602165699,15.81450748443604,0.07555548101664,-0.16929349303246,9.85806941986084,1.32729113101959,0.10070236027241,-0.30965048074722
287,702198250,-1.01848959922791,0.24470791220665,15.81519412994385,0.07107064872980,-0.16797736287117,9.84965801239014,1.30866956710815,0.17577768862247,-0.23916009068489
288,702206583,-1.01818513870239,0.24457576870918,15.81600189208984,0.08568380773067,-0.19603081047535,9.84418487548828,1.35357141494751,0.13307875394821,-0.21405816078186
289,702214916,-1.01754856109619,0.24512916803360,15.81590080261230,0.08860226720572,-0.21158109605312,9.84467220306396,1.39675688743591,0.21614570915699,-0.32737556099892
290,702223249,-1.01730835437775,0.24477466940880,15.81553173065186,0.08682120591402,-0.14993074536324,9.86065196990967,1.34645068645477,0.10989785939455,-0.35537186264992
291,702231582,-1.01798129081726,0.24518069624901,15.81526184082031,0.06741554290056,-0.20539388060570,9.85885620117188,1.24035644531250,0.19754977524281,-0.34302580356598
292,702239915,-1.01774168014526,0.24474942684174,15.81520271301270,0.08112039417028,-0.20844098925591,9.83576011657715,1.34568214416504,0.09929357469082,-0.31794950366020
293,702248248,-1.01855301856995,0.24471357464790,15.81503009796143,0.08119191974401,-0.13832883536816,9.89469909667969,1.22406589984894,0.14457954466343,-0.32271373271942
294,702256581,-1.01847326755524,0.24425615370274,15.81575584411621,0.05630002543330,-0.17653931677341,9.86307621002197,1.32542133331299,0.09493915736675,-0.22520035505295
295,702264914,-1.01856696605682,0.24413831532001,15.81686878204346,0.02454140409827,-0.20293331146240,9.87630176544189,1.30810606479645,0.13238717615604,-0.16808059811592
296,702273247,-1.01773321628571,0.24457307159901,15.81743717193604,0.00517150526866,-0.16360697150230,9.86877727508545,1.41637754440308,0.20128947496414,-0.24118360877037
297,702281580,-1.01850736141205,0.24400499463081,15.81831836700439,-0.02708066254854,-0.17599570751190,9.86568737030029,1.22839462757111,0.08005728572607,-0.21800273656845
298,702289913,-1.01814460754395,0.24371561408043,15.81828498840332,-0.06107812747359,-0.21618036925793,9.84373569488525,1.36035919189453,0.11532810330391,-0.31549054384232
299,702298246,-1.01817929744720,0.24306303262711,15.81808185577393,-0.06865298748016,-0.17130343616009,9.85476493835449,1.31666123867035,0.07224494963884,-0.33308747410774
300,702306579,-1.01823544502258,0.24320663511753,15.81903553009033,-0.11535389721394,-0.17670382559299,9.86423492431641,1.30902814865112,0.16596743464470,-0.19484747946262
301,702314912,-1.01832401752472,0.24254906177521,15.81937694549561,-0.12340084463358,-0.20831939578056,9.85527992248535,1.31028330326080,0.06865894794464,-0.27571159601212
302,702323245,-1.01779520511627,0.24248179793358,15.81902599334717,-0.15265581011772,-0.16665409505367,9.82407379150391,1.38033843040466,0.14265848696232,-0.35245189070702
303,702331578,-1.01818227767944,0.24234282970428,15.81950378417969,-0.15088206529617,-0.18151769042015,9.85493659973145,1.27514076232910,0.13192611932755,-0.25565570592880
304,702339911,-1.01792943477631,0.24204923212528,15.82017517089844,-0.18404980003834,-0.19078777730465,9.86722564697266,1.34622013568878,0.11540493369102,-0.23022076487541
305,702348244,-1.01714372634888,0.24218919873238,15.82004642486572,-0.18191808462143,-0.15784178674221,9.85063171386719,1.41576266288757,0.16535268723965,-0.33864578604698
306,702356577,-1.01685190200806,0.24155429005623,15.81989288330078,-0.17046640813351,-0.17268393933773,9.82605457305908,1.35175287723541,0.07549796253443,-0.32916852831841
307,702364910,-1.01636540889740,0.24121440947056,15.82013893127441,-0.17815598845482,-0.21359102427959,9.85824680328369,1.37990295886993,0.10766944289207,-0.29563951492310
308,702373243,-1.01598322391510,0.24162629246712,15.81906986236572,-0.16859230399132,-0.19011540710926,9.83220577239990,1.36320233345032,0.20246769487858,-0.43669703602791
309,702381576,-1.01541817188263,0.24142758548260,15.81826114654541,-0.14729154109955,-0.16766263544559,9.85690975189209,1.38871395587921,0.12726432085037,-0.41533479094505
310,702389909,-1.01472687721252,0.24075941741467,15.81764602661133,-0.15782032907009,-0.20383456349373,9.86240386962891,1.39952325820923,0.07086177915335,-0.38531494140625
311,702398242,-1.01430618762970,0.24063879251480,15.81732463836670,-0.12389439344406,-0.16797021031380,9.85465812683105,1.37273097038269,0.13561457395554,-0.33823600411415
312,702406575,-1.01407873630524,0.24120868742466,15.81763935089111,-0.08287999033928,-0.14613258838654,9.88121604919434,1.34355616569519,0.21701660752296,-0.27102419734001
313,702414908,-1.01411080360413,0.24067865312099,15.81645584106445,-0.06788763403893,-0.20148128271103,9.85831260681152,1.31689190864563,0.08810016512871,-0.45429408550262
314,702423241,-1.01355218887329,0.24066510796547,15.81602382659912,-0.02489189431071,-0.19176056981087,9.84987258911133,1.38397562503815,0.15034276247025,-0.36123752593994
315,702431574,-1.01362419128418,0.23992753028870,15.81570243835449,0.00599408242851,-0.15489481389523,9.87291908264160,1.31248629093170,0.06087222695351,-0.33634051680565
316,702439907,-1.01382553577423,0.23985911905766,15.81520938873291,0.02353984117508,-0.19472183287144,9.85638713836670,1.29209744930267,0.14350375533104,-0.36928045749664
317,702448240,-1.01322281360626,0.23993816971779,15.81457614898682,0.04348194599152,-0.20109501481056,9.86458492279053,1.39358079433441,0.15974316000938,-0.38792756199837
318,702456573,-1.01334464550018,0.23940101265907,15.81501293182373,0.08416762202978,-0.17437916994095,9.83131885528564,1.30195879936218,0.08553873747587,-0.26034307479858
319,702464906,-1.01377773284912,0.23891110718250,15.81546688079834,0.07109925895929,-0.19357739388943,9.85238265991211,1.26848089694977,0.08822822570801,-0.25588619709015
320,702473239,-1.01266193389893,0.23897436261177,15.81547355651855,0.07411760091782,-0.18666058778763,9.86788177490234,1.45021378993988,0.15843683481216,-0.30929189920425
321,702481572,-1.01263558864594,0.23848363757133,15.81575012207031,0.11612628400326,-0.15991610288620,9.87445545196533,1.32501161098480,0.08973947167397,-0.25486165285110
322,702489905,-1.01344943046570,0.23858745396137,15.81660079956055,0.08212178945541,-0.18920700252056,9.83915710449219,1.21740615367889,0.16063967347145,-0.20783390104771
323,702498238,-1.01257753372192,0.23802104592323,15.81632900238037,0.08170692622662,-0.21352666616440,9.85366344451904,1.42662322521210,0.08164537698030,-0.35035151243210
324,702506571,-1.01253342628479,0.23731194436550,15.81562805175781,0.07630670815706,-0.15825664997101,9.86651134490967,1.32262945175171,0.06614876538515,-0.39448481798172
325,702514904,-1.01326000690460,0.23729945719242,15.81664657592773,0.05958318337798,-0.17216892540455,9.88510704040527,1.23213434219360,0.14588586986065,-0.19095408916473
326,702523237,-1.01330792903900,0.23820400238037,15.81691551208496,0.03458387032151,-0.22854048013687,9.86358356475830,1.31153845787048,0.25917762517929,-0.27671059966087
327,702531570,-1.01277351379395,0.23764248192310,15.81579494476318,0.02127255499363,-0.16282731294632,9.84930038452148,1.38630628585815,0.08356643468142,-0.42552927136421
328,702539903,-1.01287817955017,0.23748749494553,15.81520748138428,-0.00304711121134,-0.17244073748589,9.84482955932617,1.30426406860352,0.13338612020016,-0.38121664524078
329,702548236,-1.01314973831177,0.23810541629791,15.81601047515869,-0.01514256838709,-0.20584452152252,9.83595275878906,1.28699994087219,0.22083312273026,-0.20043137669563
330,702556569,-1.01270127296448,0.23785454034805,15.81684684753418,-0.06544136255980,-0.17831322550774,9.82784843444824,1.37006676197052,0.11934952437878,-0.21029286086559
331,702564902,-1.01262176036835,0.23910635709763,15.81686401367188,-0.09473940730095,-0.19453586637974,9.86538028717041,1.33100545406342,0.29905900359154,-0.30276027321815
332,702573235,-1.01246929168701,0.23913808166981,15.81717491149902,-0.13070389628410,-0.20018661022186,9.85927104949951,1.33576953411102,0.15380066633224,-0.27258670330048
333,702581568,-1.01265656948090,0.23951680958271,15.81713390350342,-0.14677633345127,-0.15957278013229,9.85597419738770,1.29768109321594,0.19486026465893,-0.31180205941200
334,702589901,-1.01290225982666,0.23911099135876,15.81738948822021,-0.16124665737152,-0.17428615689278,9.85592269897461,1.28748667240143,0.10188061743975,-0.27965620160103
335,702598234,-1.01303589344025,0.23987571895123,15.81723594665527,-0.15775595605373,-0.22818998992443,9.82446575164795,1.30426406860352,0.24111960828304,-0.33216539025307
336,702606567,-1.01287412643433,0.23967365920544,15.81684684753418,-0.16746219992638,-0.16582436859608,9.84621143341064,1.33669161796570,0.12682887911797,-0.35744664072990
337,702614900,-1.01219308376312,0.23965124785900,15.81610107421875,-0.17781949043274,-0.17326332628727,9.85661888122559,1.40275073051453,0.14780692756176,-0.37414711713791
338,702623233,-1.01160538196564,0.23965893685818,15.81592178344727,-0.18323437869549,-0.21643072366714,9.87099456787109,1.38786888122559,0.15203329920769,-0.33096155524254
339,702631566,-1.01073646545410,0.23925213515759,15.81531333923340,-0.19505105912685,-0.18766197562218,9.86207389831543,1.42462539672852,0.10054868459702,-0.37909069657326
340,702639899,-1.01012599468231,0.24023379385471,15.81492710113525,-0.16788437962532,-0.15356437861919,9.85894203186035,1.39022552967072,0.27047348022461,-0.35424488782883
341,702648232,-1.01006793975830,0.24070043861866,15.81463050842285,-0.13823570311069,-0.19351302087307,9.86686134338379,1.32762408256531,0.20390209555626,-0.30334937572479
342,702656565,-1.01029741764069,0.24057570099831,15.81519412994385,-0.10854449868202,-0.18759045004845,9.83367729187012,1.28779411315918,0.13515350222588,-0.24348890781403
343,702664898,-1.01016139984131,0.24118809401989,15.81636524200439,-0.11198490858078,-0.17002308368683,9.83367156982422,1.33774173259735,0.21942433714867,-0.19676856696606
344,702673231,-1.01039934158325,0.24136464297771,15.81626415252686,-0.07799459993839,-0.19487205147743,9.84136104583740,1.28787100315094,0.17229415476322,-0.32086953520775
345,702681564,-1.00944066047668,0.24268467724323,15.81612586975098,-0.02353269606829,-0.20467859506607,9.85161876678467,1.43638217449188,0.30728116631508,-0.30877956748009
346,702689897,-1.00852799415588,0.24333614110947,15.81580162048340,-0.00990686006844,-0.18050915002823,9.86204528808594,1.42605960369110,0.22900405526161,-0.34791815280914
347,702698230,-1.00861155986786,0.24365313351154,15.81504344940186,0.01027165818959,-0.21578696370125,9.85349273681641,1.31151282787323,0.18858480453491,-0.38636511564255
348,702706563,-1.00887417793274,0.24418027698994,15.81493091583252,0.03670138120651,-0.19864875078201,9.82979583740234,1.28464353084564,0.21396853029728,-0.32125374674797
349,702714896,-1.00922298431396,0.24340543150902,15.81431293487549,0.06323130428791,-0.14890788495541,9.87199020385742,1.27864968776703,0.05605674907565,-0.38715913891792
350,702723229,-1.00903332233429,0.24277205765247,15.81506061553955,0.06548427790403,-0.20026530325413,9.82013130187988,1.34022629261017,0.07362810522318,-0.22181923687458
351,702731562,-1.00872194766998,0.24247804284096,15.81426143646240,0.08852358162403,-0.22649477422237,9.84405040740967,1.35779762268066,0.11499510705471,-0.39171847701073
352,702739895,-1.00845313072205,0.24229376018047,15.81410121917725,0.08433917164803,-0.15851415693760,9.88224601745605,1.34970366954803,0.12900608778000,-0.32980886101723
353,702748228,-1.00887322425842,0.24284508824348,15.81392860412598,0.08921039849520,-0.16814902424812,9.87233352661133,1.27100372314453,0.21528762578964,-0.33137136697769
354,702756561,-1.00834906101227,0.24354840815067,15.81352424621582,0.07457588613033,-0.23972034454346,9.84867954254150,1.37887823581696,0.23584304749966,-0.35762590169907
355,702764894,-1.00749146938324,0.24287749826908,15.81358528137207,0.08077720552683,-0.16814190149307,9.86005210876465,1.42436921596527,0.06781368702650,-0.30795991420746
356,702773227,-1.00776910781860,0.24339692294598,15.81429195404053,0.05737305432558,-0.16016647219658,9.88386440277100,1.28256893157959,0.21204744279385,-0.22435507178307
357,702781560,-1.00848436355591,0.24322196841240,15.81440162658691,0.05131425708532,-0.18875637650490,9.87357616424561,1.23525929450989,0.12780222296715,-0.27486634254456
358,702789893,-1.00800478458405,0.24224212765694,15.81465435028076,0.04138635098934,-0.18590238690376,9.85826301574707,1.37344813346863,0.03110849112272,-0.28142362833023
359,702798226,-1.00778007507324,0.24161978065968,15.81549072265625,0.01306109130383,-0.18100269138813,9.87259006500244,1.34662997722626,0.07488321512938,-0.21933467686176
360,702806559,-1.00785672664642,0.24256113171577,15.81498050689697,-0.03653655201197,-0.19618101418018,9.87012386322021,1.30823421478271,0.26386502385139,-0.36858880519867
361,702814892,-1.00781393051147,0.24269188940525,15.81609916687012,-0.06067034602165,-0.18370647728443,9.86832809448242,1.32429444789886,0.16143371164799,-0.14958712458611
362,702823225,-1.00862550735474,0.24230419099331,15.81714725494385,-0.09492538124323,-0.18970054388046,9.83963680267334,1.21896851062775,0.10308447480202,-0.18511405587196
363,702831558,-1.00961673259735,0.24286068975925,15.81769561767578,-0.09609864652157,-0.20790453255177,9.85464954376221,1.20132040977478,0.21368676424026,-0.24131172895432
364,702839891,-1.00936186313629,0.24269495904446,15.81721591949463,-0.13234905898571,-0.18113143742085,9.84193992614746,1.34816682338715,0.13200297951698,-0.36799973249435
365,702848224,-1.00970911979675,0.24237139523029,15.81712341308594,-0.13770653307438,-0.18913547694683,9.85702514648438,1.27913653850555,0.11046138405800,-0.32112565636635
366,702856557,-1.01070737838745,0.24297997355461,15.81706714630127,-0.15118938684464,-0.19086644053459,9.86659717559814,1.19686353206635,0.22290790081024,-0.31592598557472
367,702864890,-1.01121520996094,0.24386148154736,15.81637859344482,-0.17522318661213,-0.18587377667427,9.85507297515869,1.26013064384460,0.25692358613014,-0.39020723104477
368,702873223,-1.01083040237427,0.24410456418991,15.81640625000000,-0.17975094914436,-0.17042364180088,9.86000061035156,1.36326646804810,0.18070843815804,-0.30574432015419
369,702881556,-1.01127707958221,0.24442601203918,15.81618785858154,-0.17470818758011,-0.18006566166878,9.87224674224854,1.26643180847168,0.18786759674549,-0.34640690684319
370,702889889,-1.01124048233032,0.24406328797340,15.81634807586670,-0.17455811798573,-0.17598138749599,9.85120201110840,1.32091319561005,0.10687538981438,-0.29202792048454
371,702898222,-1.01046299934387,0.24371598660946,15.81677532196045,-0.16331359744072,-0.17714731395245,9.86672592163086,1.41499435901642,0.10595327615738,-0.25081458687782
372,702906555,-1.00997436046600,0.24462798237801,15.81699752807617,-0.14463049173355,-0.18456481397152,9.82138252258301,1.37470316886902,0.25907519459724,-0.28124430775642
373,702914888,-1.00948488712311,0.24456068873405,15.81741237640381,-0.12391585111618,-0.19595928490162,9.81497383117676,1.37954425811768,0.13927739858627,-0.26313501596451
374,702923221,-1.00824546813965,0.24452592432499,15.81776714324951,-0.12293591350317,-0.16748382151127,9.84619617462158,1.46555685997009,0.14560410380363,-0.26715645194054
375,702931554,-1.00834679603577,0.24459105730057,15.81743431091309,-0.10292941331863,-0.18421432375908,9.86816215515137,1.30887448787689,0.15689998865128,-0.34497252106667
376,702939887,-1.00751399993896,0.24497553706169,15.81758117675781,-0.05293804779649,-0.18535877764225,9.88522338867188,1.41589081287384,0.19790838658810,-0.29128509759903
377,702948220,-1.00792241096497,0.24455241858959,15.81711006164551,-0.02127239294350,-0.16068147122860,9.88352108001709,1.27211821079254,0.09760304540396,-0.37010014057159
378,702956553,-1.00815188884735,0.24439428746700,15.81639289855957,0.00070097862044,-0.20361283421516,9.87110233306885,1.29007363319397,0.13274577260017,-0.39520201086998
379,702964886,-1.00774514675140,0.24459193646908,15.81670379638672,0.04307442158461,-0.18299832940102,9.83289909362793,1.36929857730865,0.17183306813240,-0.27776074409485
380,702973219,-1.00798678398132,0.24475242197514,15.81688785552979,0.06104951351881,-0.16784146428108,9.85695362091064,1.28815269470215,0.16993762552738,-0.28695628046989
381,702981552,-1.00799214839935,0.24472674727440,15.81684207916260,0.06717950105667,-0.20454984903336,9.85367774963379,1.32101571559906,0.14634692668915,-0.31041890382767
382,702989885,-1.00776171684265,0.24461141228676,15.81727886199951,0.06092076376081,-0.19482198357582,9.86922836303711,1.34383797645569,0.13505105674267,-0.25714132189751
383,702998218,-1.00814604759216,0.24422195553780,15.81670665740967,0.08311618864536,-0.17356374859810,9.88381385803223,1.27401351928711,0.10277710855007,-0.35222133994102
384,703006551,-1.00814330577850,0.24364021420479,15.81691837310791,0.09218584001064,-0.18191109597683,9.84589576721191,1.31735289096832,0.08049272745848,-0.28570115566254
385,703014884,-1.00778853893280,0.24374791979790,15.81580543518066,0.10644124448299,-0.19586630165577,9.85869789123535,1.36471366882324,0.16373901069164,-0.43974521756172
386,703023217,-1.00770366191864,0.24362793564796,15.81607627868652,0.08787995576859,-0.15726956725121,9.85443019866943,1.32595920562744,0.13617807626724,-0.27735090255737
387,703031550,-1.00810658931732,0.24345488846302,15.81594848632812,0.08097018301487,-0.20606625080109,9.83122539520264,1.27286088466644,0.12836572527885,-0.33365100622177
388,703039883,-1.00829780101776,0.24362735450268,15.81536769866943,0.04667229950428,-0.19363461434841,9.85492992401123,1.29363405704498,0.17319062352180,-0.37870642542839
389,703048216,-1.00888395309448,0.24353645741940,15.81595516204834,0.03987731039524,-0.16400752961636,9.84977340698242,1.25042295455933,0.13625490665436,-0.24492330849171
390,703056549,-1.00931084156036,0.24333651363850,15.81608200073242,-0.00077940162737,-0.16797736287117,9.88101673126221,1.26533031463623,0.12595799565315,-0.29410260915756
391,703064882,-1.01071524620056,0.24361175298691,15.81590747833252,-0.02879019267857,-0.20789022743702,9.87379837036133,1.15319120883942,0.18294966220856,-0.30998346209526
392,703073215,-1.01071107387543,0.24384263157845,15.81658554077148,-0.05418268218637,-0.16976557672024,9.85151195526123,1.31722497940063,0.17575208842754,-0.22791549563408
393,703081548,-1.01238250732422,0.24397520720959,15.81741237640381,-0.08537633717060,-0.17505152523518,9.84781265258789,1.12037944793701,0.16409759223461,-0.22117890417576
394,703089881,-1.01277542114258,0.24442207813263,15.81652259826660,-0.09084092825651,-0.21685989201069,9.83992385864258,1.26947987079620,0.20607933402061,-0.41643622517586
395,703098214,-1.01303505897522,0.24362505972385,15.81559562683105,-0.13317163288593,-0.16580289602280,9.86122417449951,1.28981757164001,0.05508340895176,-0.42358258366585
396,703106547,-1.01318025588989,0.24381680786610,15.81544685363770,-0.14173343777657,-0.16280587017536,9.85754203796387,1.29896187782288,0.17426644265652,-0.32727307081223
397,703114880,-1.01339173316956,0.24339041113853,15.81549930572510,-0.14828543365002,-0.19708229601383,9.86980915069580,1.29568314552307,0.09811532497406,-0.32819521427155
398,703123213,-1.01353311538696,0.24320127069950,15.81534385681152,-0.18578079342842,-0.18796241283417,9.88353347778320,1.30052411556244,0.12754605710506,-0.32791340351105
399,703131546,-1.01367843151093,0.24340547621250,15.81525897979736,-0.16172590851784,-0.16565267741680,9.86879730224609,1.30379021167755,0.17517574131489,-0.31263455748558
400,703139879,-1.01429116725922,0.24291309714317,15.81517505645752,-0.16864258050919,-0.19005103409290,9.85965728759766,1.24230325222015,0.09037982672453,-0.32150986790657
401,703148212,-1.01377117633820,0.24276797473431,15.81484889984131,-0.15648274123669,-0.18113858997822,9.86542320251465,1.38338625431061,0.13279698789120,-0.34673985838890
402,703156545,-1.01379597187042,0.24259935319424,15.81464099884033,-0.16099618375301,-0.17667521536350,9.83366394042969,1.31435596942902,0.13026118278503,-0.33511102199554
403,703164878,-1.01358425617218,0.24226750433445,15.81416225433350,-0.13810709118843,-0.20436388254166,9.85849857330322,1.34650182723999,0.11051261425018,-0.37806606292725
404,703173211,-1.01293623447418,0.24261064827442,15.81430244445801,-0.13928015530109,-0.18605260550976,9.88768196105957,1.39345300197601,0.19030095636845,-0.29254019260406
405,703181544,-1.01320803165436,0.24228458106518,15.81402587890625,-0.12377279251814,-0.16653963923454,9.83621025085449,1.28925406932831,0.11110173910856,-0.35076129436493
406,703189877,-1.01273155212402,0.24268481135368,15.81349277496338,-0.10719983279705,-0.19600936770439,9.81718254089355,1.37398600578308,0.20005999505520,-0.37345552444458
407,703198210,-1.01204609870911,0.24189640581608,15.81293010711670,-0.05866743624210,-0.19515104591846,9.82809352874756,1.40380096435547,0.05508340895176,-0.37686225771904
408,703206543,-1.01164591312408,0.24125644564629,15.81283378601074,-0.03446954861283,-0.16319210827351,9.85053730010986,1.36443185806274,0.07375619560480,-0.32202219963074
409,703214876,-1.01191627979279,0.24188020825386,15.81241035461426,-0.00075104850112,-0.17990115284920,9.88037967681885,1.28922832012177,0.22359944880009,-0.36044347286224
410,703223209,-1.01132547855377,0.24100781977177,15.81234264373779,0.01454172935337,-0.17902135848999,9.85343456268311,1.38653695583344,0.04570860788226,-0.31925585865974
411,703231542,-1.01053464412689,0.24012568593025,15.81158733367920,0.05381799116731,-0.17593847215176,9.88489246368408,1.41619837284088,0.04486333206296,-0.39707186818123
412,703239875,-1.00966453552246,0.24022258818150,15.81195449829102,0.06762310117483,-0.18264070153236,9.86318492889404,1.42150032520294,0.16212530434132,-0.26556837558746
413,703248208,-1.00960922241211,0.23992176353931,15.81162166595459,0.07728646695614,-0.19150306284428,9.87790489196777,1.32731676101685,0.11361194401979,-0.35788208246231
414,703256541,-1.00911653041840,0.23919573426247,15.81243419647217,0.09520433843136,-0.17188282310963,9.82759094238281,1.37585580348969,0.06084661558270,-0.21188093721867
415,703264874,-1.00976133346558,0.23888029158115,15.81283092498779,0.08453229814768,-0.20530089735985,9.87351989746094,1.24304604530334,0.10974418371916,-0.25463107228279
416,703273207,-1.01016759872437,0.23794344067574,15.81285476684570,0.08859511464834,-0.18834151327610,9.87307643890381,1.26727700233459,0.03840854391456,-0.30895885825157
417,703281540,-1.00980234146118,0.23701132833958,15.81225681304932,0.08199322223663,-0.15445850789547,9.85817813873291,1.36578953266144,0.03853661566973,-0.39338344335556
418,703289873,-1.01005506515503,0.23638927936554,15.81331729888916,0.05881067365408,-0.16422212123871,9.84339237213135,1.28610348701477,0.07288530468941,-0.18432001769543
419,703298206,-1.01085758209229,0.23617486655712,15.81344223022461,0.04941925406456,-0.20324802398682,9.82604026794434,1.22478306293488,0.12355025112629,-0.30429708957672
420,703306539,-1.01046597957611,0.23625130951405,15.81274032592773,0.03633644059300,-0.16074584424496,9.86080932617188,1.36294627189636,0.16128003597260,-0.39381885528564
421,703314872,-1.01084351539612,0.23577365279198,15.81300449371338,0.02739538811147,-0.18997235596180,9.85412883758545,1.27644693851471,0.09199351817369,-0.29799601435661
422,703323205,-1.01146125793457,0.23572418093681,15.81221103668213,0.00856212712824,-0.20213933289051,9.82857131958008,1.24284124374390,0.14550167322159,-0.40583196282387
423,703331538,-1.01142477989197,0.23614069819450,15.81205177307129,-0.02463439106941,-0.17827746272087,9.87826919555664,1.32608747482300,0.20026488602161,-0.33682718873024
424,703339871,-1.01149857044220,0.23687338829041,15.81219863891602,-0.04768800362945,-0.17866371572018,9.85204696655273,1.30649244785309,0.23802030086517,-0.29059350490570
425,703348204,-1.01183938980103,0.23707710206509,15.81252193450928,-0.09142763912678,-0.20585167407990,9.87207508087158,1.27980244159698,0.17275519669056,-0.26943612098694
426,703356537,-1.01198506355286,0.23720577359200,15.81301879882812,-0.11066174507141,-0.16915757954121,9.85205268859863,1.29998636245728,0.16450740396976,-0.24830438196659
427,703364870,-1.01228713989258,0.23680004477501,15.81277084350586,-0.13157655298710,-0.18395681679249,9.85642433166504,1.28382408618927,0.10085605829954,-0.32668396830559
428,703373203,-1.01224482059479,0.23793706297874,15.81308650970459,-0.15427978336811,-0.19650290906429,9.86669445037842,1.32137429714203,0.28576520085335,-0.26994842290878
429,703381536,-1.01218605041504,0.23850865662098,15.81314468383789,-0.14651884138584,-0.16883569955826,9.85316276550293,1.32790601253510,0.21875837445259,-0.29740688204765
430,703389869,-1.01252102851868,0.23874254524708,15.81347274780273,-0.15859998762608,-0.19553726911545,9.82636833190918,1.27626752853394,0.17759628593922,-0.26976910233498
431,703398202,-1.01281249523163,0.23952977359295,15.81477355957031,-0.17716161906719,-0.22869785130024,9.85047340393066,1.28528404235840,0.24114519357681,-0.16065248847008
432,703406535,-1.01257205009460,0.23934575915337,15.81416225433350,-0.15983742475510,-0.16846375167370,9.85296916961670,1.34611761569977,0.12882678210735,-0.38441842794418
433,703414868,-1.01218926906586,0.23884333670139,15.81511402130127,-0.16892154514790,-0.18346327543259,9.87997150421143,1.36678826808929,0.08704997599125,-0.20647633075714
434,703423201,-1.01254606246948,0.23853595554829,15.81624603271484,-0.16491594910622,-0.22581525146961,9.87173175811768,1.27360367774963,0.11081998050213,-0.17450977861881
435,703431534,-1.01201415061951,0.23751820623875,15.81568050384521,-0.14735554158688,-0.18216863274574,9.85560321807861,1.38494884967804,0.02852145023644,-0.36674460768700
436,703439867,-1.01256930828094,0.23752982914448,15.81657028198242,-0.12031797319651,-0.17381408810616,9.86696052551270,1.24960315227509,0.14898519217968,-0.20263418555260
437,703448200,-1.01235103607178,0.23749381303787,15.81697654724121,-0.08866678178310,-0.18563057482243,9.89383220672607,1.34645068645477,0.14427216351032,-0.30865153670311
438,703456533,-1.01232481002808,0.23684222996235,15.81695270538330,-0.07484748959541,-0.19138145446777,9.84336185455322,1.31924831867218,0.07211687415838,-0.31479895114899
439,703464866,-1.01197659969330,0.23674948513508,15.81713008880615,-0.06655720621347,-0.18571642041206,9.90828227996826,1.36391949653625,0.13712580502033,-0.28841629624367
440,703473199,-1.01148283481598,0.23540849983692,15.81651020050049,-0.01851889304817,-0.18818412721157,9.86184501647949,1.37526655197144,-0.00883691199124,-0.38618582487106
441,703481532,-1.01166105270386,0.23537771403790,15.81637573242188,0.02574308216572,-0.18462918698788,9.84703254699707,1.29996073246002,0.14511744678020,-0.32466042041779
442,703489865,-1.01189875602722,0.23553112149239,15.81633281707764,0.04052085429430,-0.17153233289719,9.87479972839355,1.28825509548187,0.16881060600281,-0.31515753269196
443,703498198,-1.01204156875610,0.23627489805222,15.81605148315430,0.05978346243501,-0.20194621384144,9.85949325561523,1.30316269397736,0.23855817317963,-0.33421453833580
444,703506531,-1.01129364967346,0.23620894551277,15.81596279144287,0.07113502174616,-0.18482945859432,9.88693809509277,1.40687465667725,0.14222304522991,-0.32048532366753
445,703514864,-1.01081132888794,0.23572261631489,15.81633472442627,0.06692213565111,-0.15454432368279,9.86219787597656,1.37849414348602,0.09032859653234,-0.28595730662346
446,703523197,-1.01027190685272,0.23519033193588,15.81725788116455,0.08713603019714,-0.18827715516090,9.83771419525146,1.38138854503632,0.08464223146439,-0.20081560313702
447,703531530,-1.01001596450806,0.23574236035347,15.81644058227539,0.07958967983723,-0.18223297595978,9.87929248809814,1.35190641880035,0.21711905300617,-0.41372108459473
448,703539863,-1.00922608375549,0.23616649210453,15.81647491455078,0.09333744645119,-0.14701953530312,9.89763164520264,1.41161322593689,0.20164805650711,-0.30532169342041
449,703548196,-1.00923132896423,0.23690912127495,15.81668663024902,0.07438956946135,-0.18919984996319,9.85426425933838,1.32045233249664,0.23686765134335,-0.27568602561951
450,703556529,-1.00947523117065,0.23681995272636,15.81673049926758,0.05305979028344,-0.21219624578953,9.88399124145508,1.28612923622131,0.13973847031593,-0.30501428246498
451,703564862,-1.00942099094391,0.23667418956757,15.81655502319336,0.05056344717741,-0.17867802083492,9.86354827880859,1.32903289794922,0.13274577260017,-0.32299548387527
452,703573195,-1.01040017604828,0.23758776485920,15.81661128997803,0.04157232493162,-0.17774099111557,9.83837032318115,1.19870781898499,0.25935694575310,-0.30137711763382
453,703581528,-1.00998878479004,0.23790726065636,15.81630420684814,-0.00276082125492,-0.19387780129910,9.85683345794678,1.37014389038086,0.18909709155560,-0.36971586942673
454,703589861,-1.01050055027008,0.23842659592628,15.81615734100342,-0.03274571523070,-0.17609584331512,9.83658218383789,1.25539195537567,0.21248285472393,-0.32635092735291
455,703598194,-1.01089286804199,0.23798182606697,15.81611633300781,-0.04348199069500,-0.18739734590054,9.86284923553467,1.27437222003937,0.09483671188354,-0.31917896866798
456,703606527,-1.01055359840393,0.23835508525372,15.81544971466064,-0.06276601552963,-0.18996520340443,9.85844326019287,1.35738790035248,0.19696064293385,-0.38946440815926
457,703614860,-1.01010370254517,0.23751631379128,15.81580829620361,-0.09874499589205,-0.13916571438313,9.88935661315918,1.37526655197144,0.04809072241187,-0.26830908656120
458,703623193,-1.01077592372894,0.23769693076611,15.81595230102539,-0.09992521256208,-0.17085996270180,9.84070968627930,1.23620688915253,0.17173063755035,-0.29259139299393
459,703631526,-1.01140213012695,0.23777027428150,15.81597805023193,-0.15418668091297,-0.20851252973080,9.84161090850830,1.24576115608215,0.15715612471104,-0.27120348811150
460,703639859,-1.01136612892151,0.23733565211296,15.81573009490967,-0.16101033985615,-0.16370712220669,9.87734031677246,1.31999123096466,0.09808971732855,-0.34059247374535
461,703648192,-1.01130270957947,0.23777391016483,15.81597042083740,-0.15967291593552,-0.16603179275990,9.89258956909180,1.32944273948669,0.20218597352505,-0.27204877138138
462,703656525,-1.01197922229767,0.23729379475117,15.81535816192627,-0.18234027922153,-0.21253956854343,9.83774852752686,1.23487508296967,0.09401704370975,-0.38354754447937
463,703664858,-1.01175403594971,0.23728872835636,15.81589698791504,-0.17817015945911,-0.19389212131500,9.83653259277344,1.34908890724182,0.14790940284729,-0.26293009519577
464,703673191,-1.01198077201843,0.23797713220119,15.81597614288330,-0.16523054242134,-0.15141136944294,9.86874294281006,1.28866505622864,0.23205217719078,-0.29886689782143
465,703681524,-1.01173543930054,0.23813222348690,15.81588363647461,-0.14127594232559,-0.19927103817463,9.86021423339844,1.35085642337799,0.16729937493801,-0.28805768489838
466,703689857,-1.01149439811707,0.23833166062832,15.81577110290527,-0.16106072068214,-0.20557984709740,9.83496475219727,1.34542608261108,0.17454817891121,-0.32307231426239
467,703698190,-1.01153302192688,0.23861142992973,15.81498050689697,-0.12134780734777,-0.17044508457184,9.85705471038818,1.31599545478821,0.18430721759796,-0.38482826948166
468,703706523,-1.01105058193207,0.23935449123383,15.81477355957031,-0.10071902722120,-0.19083069264889,9.84807872772217,1.37526667118073,0.23894238471985,-0.33270332217216
469,703714856,-1.01126635074615,0.23912529647350,15.81482028961182,-0.09782227873802,-0.18113143742085,9.84838485717773,1.29483795166016,0.12111690640450,-0.30396413803101
470,703723189,-1.01141715049744,0.23902860283852,15.81415939331055,-0.05520564317703,-0.18450757861137,9.84662532806396,1.29801392555237,0.14032757282257,-0.38997673988342
471,703731522,-1.01113092899323,0.23974767327309,15.81402587890625,-0.02448418177664,-0.19250446557999,9.84626770019531,1.35551822185516,0.23558694124222,-0.31738600134850
472,703739855,-1.01173651218414,0.23918536305428,15.81418991088867,0.01749585382640,-0.17547354102135,9.88821125030518,1.24430108070374,0.08208081126213,-0.29092645645142
473,703748188,-1.01139676570892,0.23870457708836,15.81382465362549,0.02326819859445,-0.17845627665520,9.85555171966553,1.36107647418976,0.09140440076590,-0.34986484050751
474,703756521,-1.01103448867798,0.23836050927639,15.81383800506592,0.04994114860892,-0.20527943968773,9.85108089447021,1.36064100265503,0.10930875688791,-0.30888205766678
475,703764854,-1.00999164581299,0.23743119835854,15.81359863281250,0.06977580487728,-0.19319111108780,9.85528564453125,1.44639730453491,0.03807555884123,-0.35501325130463
476,703773187,-1.00958096981049,0.23796203732491,15.81425857543945,0.08803014457226,-0.14583216607571,9.85362148284912,1.36581504344940,0.21248288452625,-0.22906808555126
477,703781520,-1.00987303256989,0.23749671876431,15.81484603881836,0.07856682687998,-0.17573820054531,9.84560966491699,1.28528392314911,0.09166053682566,-0.25089138746262
478,703789853,-1.01009261608124,0.23742847144604,15.81401729583740,0.08049809187651,-0.21856227517128,9.87308311462402,1.29035556316376,0.14434902369976,-0.40859827399254
479,703798186,-1.02221024036407,0.24973042309284,15.81096649169922,0.09231443703175,-0.17050947248936,9.88326740264893,1.31968367099762,0.22334331274033,-0.34937816858292
480,703806519,-1.02275860309601,0.25024962425232,15.81024551391602,0.06891065835953,-0.16338522732258,9.87263393402100,1.25034606456757,0.21307200193405,-0.39599606394768
481,703814852,-1.02325546741486,0.24996016919613,15.80972957611084,0.08099879324436,-0.21341937780380,9.85668945312500,1.26205170154572,0.11671125888824,-0.39123180508614
482,703823185,-1.02318394184113,0.24963936209679,15.80928230285645,0.06137139350176,-0.19307668507099,9.82997322082520,1.32595920562744,0.11192139238119,-0.36497721076012
483,703831518,-1.02391839027405,0.24943311512470,15.80926227569580,0.04284552857280,-0.16264849901199,9.86638164520264,1.23295390605927,0.12396009266376,-0.27875971794128
484,703839851,-1.02483987808228,0.24956823885441,15.80839443206787,0.01707383617759,-0.20218941569328,9.86709690093994,1.20654571056366,0.16814462840557,-0.41387477517128
485,703848184,-1.02461051940918,0.25017440319061,15.80844593048096,-0.00450629089028,-0.17835614085197,9.86000061035156,1.34809005260468,0.22175526618958,-0.31625899672508
486,703856517,-1.02502715587616,0.25066685676575,15.80832958221436,-0.00625158473849,-0.16176868975163,9.86745452880859,1.26807117462158,0.20935796201229,-0.32276499271393
487,703864850,-1.02443230152130,0.25135233998299,15.80844211578369,-0.05474786087871,-0.20260427892208,9.89220333099365,1.39178788661957,0.23041282594204,-0.28713554143906
488,703873183,-1.02417838573456,0.25229743123055,15.80756759643555,-0.06172903627157,-0.17927885055542,9.85422134399414,1.34783375263214,0.26512011885643,-0.41328564286232
489,703881516,-1.02509057521820,0.25246408581734,15.80724716186523,-0.10894495248795,-0.15627531707287,9.84552383422852,1.21077191829681,0.16993762552738,-0.30160760879517
490,703889849,-1.02571332454681,0.25292164087296,15.80731391906738,-0.13979542255402,-0.20753259956837,9.85613727569580,1.24248254299164,0.20500351488590,-0.30165883898735
491,703898182,-1.02523541450500,0.25322428345680,15.80740451812744,-0.15606072545052,-0.19074486196041,9.85185337066650,1.37887823581696,0.18551108241081,-0.29507598280907
492,703906515,-1.02464306354523,0.25287503004074,15.80775547027588,-0.15998764336109,-0.14755599200726,9.85655307769775,1.38804817199707,0.10651679337025,-0.26800173521042
493,703914848,-1.02529001235962,0.25306564569473,15.80789279937744,-0.16720511019230,-0.19271190464497,9.86565017700195,1.24340462684631,0.17201237380505,-0.29230964183807
494,703923181,-1.02457475662231,0.25443157553673,15.80820655822754,-0.16010923683643,-0.22422732412815,9.87733936309814,1.40252017974854,0.31281384825706,-0.26887261867523
495,703931514,-1.02403616905212,0.25558340549469,15.80842208862305,-0.18015150725842,-0.15892186760902,9.84461498260498,1.38571739196777,0.28691786527634,-0.29154124855995
496,703939847,-1.02407026290894,0.25508072972298,15.80819988250732,-0.14789202809334,-0.18842734396458,9.84954452514648,1.31315207481384,0.08999561518431,-0.33639171719551
497,703948180,-1.02413976192474,0.25498145818710,15.80787849426270,-0.13540318608284,-0.20724648237228,9.85907268524170,1.31120538711548,0.13658790290356,-0.31000909209251
498,703956513,-1.02403664588928,0.25493970513344,15.80693817138672,-0.14067496359348,-0.17595277726650,9.85827732086182,1.33010876178741,0.14732027053833,-0.42294222116470
499,703964846,-1.02318227291107,0.25474986433983,15.80602455139160,-0.10201405733824,-0.17756216228008,9.85519313812256,1.42393374443054,0.12723870575428,-0.41966360807419
500,703973179,-1.02279496192932,0.25439289212227,15.80609607696533,-0.09606268256903,-0.19711089134216,9.84070205688477,1.36427795886993,0.10846347361803,-0.30288830399513
501,703981512,-1.02226281166077,0.25419545173645,15.80660152435303,-0.05381799116731,-0.16464413702488,9.88115882873535,1.38507688045502,0.12280744314194,-0.22389402985573
502,703989845,-1.02219891548157,0.25490781664848,15.80648231506348,-0.03120055235922,-0.17139641940594,9.85666847229004,1.32401251792908,0.23461358249187,-0.32343092560768
503,703998178,-1.02209544181824,0.25507053732872,15.80641365051270,-0.01773919910192,-0.19653150439262,9.86001396179199,1.33438634872437,0.16965588927269,-0.32263690233231
504,704006511,-1.02231574058533,0.25508287549019,15.80624294281006,0.00438469275832,-0.15043859183788,9.88161659240723,1.29063725471497,0.15041959285736,-0.33085906505585
505,704014844,-1.02221095561981,0.25518381595612,15.80559539794922,0.01856162771583,-0.17728321254253,9.84467983245850,1.33249080181122,0.16350845992565,-0.37140643596649
506,704023177,-1.02230787277222,0.25483578443527,15.80579757690430,0.07094904780388,-0.22350488603115,9.85541629791260,1.30618512630463,0.10728523135185,-0.28713557124138
507,704031510,-1.02203083038330,0.25437474250793,15.80471515655518,0.07320240885019,-0.16208343207836,9.85748386383057,1.35385310649872,0.09591250121593,-0.46825382113457
508,704039843,-1.02245664596558,0.25514021515846,15.80436420440674,0.09763630479574,-0.15709789097309,9.81797790527344,1.26599633693695,0.24240028858185,-0.34989041090012
509,704048176,-1.02209186553955,0.25569948554039,15.80516719818115,0.09883093833923,-0.20319081842899,9.86751270294189,1.36386835575104,0.21450643241405,-0.21705502271652
510,704056509,-1.02192592620850,0.25616124272346,15.80536174774170,0.08682134002447,-0.19867022335529,9.87241935729980,1.33810043334961,0.20441441237926,-0.28654640913010
511,704064842,-1.02189099788666,0.25622442364693,15.80582332611084,0.04831030219793,-0.13478817045689,9.86425685882568,1.32511401176453,0.15567050874233,-0.25091704726219
512,704073175,-1.02221322059631,0.25594049692154,15.80619716644287,0.07254401594400,-0.17575964331627,9.87405490875244,1.27859854698181,0.11504633724689,-0.26549154520035
513,704081508,-1.02194678783417,0.25610235333443,15.80622291564941,0.05049191787839,-0.18445751070976,9.84832763671875,1.35157346725464,0.16983518004417,-0.30970171093941
514,704089841,-1.02145779132843,0.25576534867287,15.80689144134521,0.03836784884334,-0.17923593521118,9.84488010406494,1.37616312503815,0.10741327702999,-0.23155267536640
515,704098174,-1.02063059806824,0.25635242462158,15.80707645416260,0.02938387915492,-0.17621028423309,9.86163139343262,1.41978418827057,0.21980854868889,-0.28198710083961
516,704106507,-1.02095794677734,0.25711357593536,15.80642223358154,0.02034983783960,-0.20341970026493,9.86090183258057,1.27836799621582,0.24091467261314,-0.38590404391289
517,704114840,-1.02072930335999,0.25713905692101,15.80673122406006,-0.03155118972063,-0.17502291500568,9.84542369842529,1.34775698184967,0.15336522459984,-0.28224325180054
518,704123173,-1.02233648300171,0.25712692737579,15.80700492858887,-0.04957635328174,-0.21155963838100,9.84488677978516,1.12365806102753,0.14660307765007,-0.27645444869995
519,704131506,-1.02176630496979,0.25708407163620,15.80734252929688,-0.08591267466545,-0.18176090717316,9.83604049682617,1.38832986354828,0.14406725764275,-0.25534829497337
520,704139839,-1.02142500877380,0.25765320658684,15.80688476562500,-0.11520385742188,-0.15653997659683,9.87156581878662,1.35874545574188,0.21919380128384,-0.36244139075279
521,704148172,-1.02186822891235,0.25824043154716,15.80701160430908,-0.09933881461620,-0.19437851011753,9.86261749267578,1.26663684844971,0.21868154406548,-0.30160763859749
522,704156505,-1.02211332321167,0.25820210576057,15.80729675292969,-0.13415871560574,-0.20390608906746,9.88401985168457,1.28789663314819,0.14468200504780,-0.27563479542732
523,704164838,-1.02173852920532,0.25774154067039,15.80698108673096,-0.12770685553551,-0.13355073332787,9.83847045898438,1.36653232574463,0.09639917314053,-0.35309222340584
524,704173171,-1.02272701263428,0.25805360078812,15.80727100372314,-0.16179731488228,-0.17712585628033,9.81721210479736,1.19837486743927,0.18589530885220,-0.27279162406921
525,704181504,-1.02333867549896,0.25751864910126,15.80663871765137,-0.16306336224079,-0.20315504074097,9.85219669342041,1.24768221378326,0.08525698632002,-0.32576185464859
526,704189837,-1.02335011959076,0.25738099217415,15.80598163604736,-0.17415724694729,-0.18274798989296,9.84280681610107,1.31609785556793,0.13561457395554,-0.38879850506783
527,704198170,-1.02255356311798,0.25745379924774,15.80620193481445,-0.15218374133110,-0.17992977797985,9.85370731353760,1.41525042057037,0.15792454779148,-0.30217111110687
528,704206503,-1.02273213863373,0.25745880603790,15.80572891235352,-0.15886464715004,-0.19892056286335,9.84927845001221,1.29604184627533,0.15149538218975,-0.36620670557022
529,704214836,-1.02355158329010,0.25733089447021,15.80600547790527,-0.13246349990368,-0.17862080037594,9.82989501953125,1.22186315059662,0.13269455730915,-0.28900539875031
530,704223169,-1.02355885505676,0.25702825188637,15.80536556243896,-0.10312253981829,-0.18500828742981,9.87437057495117,1.31645631790161,0.11432915180922,-0.38733845949173
531,704231502,-1.02306520938873,0.25716108083725,15.80526256561279,-0.09143464267254,-0.19329844415188,9.86008071899414,1.38026130199432,0.16542951762676,-0.31638699769974
532,704239835,-1.02354991436005,0.25707724690437,15.80453872680664,-0.08471111953259,-0.16038104891777,9.87501430511475,1.25931096076965,0.14060932397842,-0.39707183837891
533,704248168,-1.02445459365845,0.25691443681717,15.80486297607422,-0.04263809695840,-0.18053776025772,9.84508705139160,1.21264195442200,0.12967208027840,-0.26208484172821
534,704256501,-1.02496075630188,0.25732269883156,15.80537700653076,-0.03612207248807,-0.19846993684769,9.84615898132324,1.25569939613342,0.19688379764557,-0.24717734754086
535,704264834,-1.02454400062561,0.25725990533829,15.80532741546631,-0.01233865413815,-0.17254087328911,9.88663768768311,1.37101483345032,0.14270970225334,-0.32514706254005
536,704273167,-1.02402138710022,0.25693944096565,15.80538368225098,0.03053548745811,-0.15064603090286,9.86341953277588,1.37972366809845,0.11048700660467,-0.30381044745445
537,704281500,-1.02363038063049,0.25622221827507,15.80557727813721,0.05530578270555,-0.19397079944611,9.86201095581055,1.36819720268250,0.06343365460634,-0.29712510108948
538,704289833,-1.02270781993866,0.25636565685272,15.80569839477539,0.08032642304897,-0.19771888852119,9.86628818511963,1.42782700061798,0.16665901243687,-0.29471737146378
539,704298166,-1.02214503288269,0.25647631287575,15.80598545074463,0.07531214505434,-0.16497316956520,9.85854721069336,1.38720285892487,0.16156177222729,-0.28923594951630
540,704306499,-1.02304208278656,0.25682470202446,15.80584335327148,0.07197190821171,-0.18244756758213,9.85863494873047,1.20995247364044,0.19199150800705,-0.32553136348724
541,704314832,-1.02228450775146,0.25736460089684,15.80477428436279,0.07554117590189,-0.19750429689884,9.86161708831787,1.41104984283447,0.21581275761127,-0.44079536199570
542,704323165,-1.02287435531616,0.25834938883781,15.80473136901855,0.09875930100679,-0.17759078741074,9.84543037414551,1.24745166301727,0.26865494251251,-0.31157159805298
543,704331498,-1.02363753318787,0.25763976573944,15.80497264862061,0.08998991549015,-0.18367069959641,9.86944293975830,1.22839474678040,0.06287014484406,-0.27701792120934
544,704339831,-1.02358281612396,0.25787523388863,15.80432224273682,0.07355983555317,-0.19388495385647,9.83634662628174,1.32524216175079,0.17890262603760,-0.38718476891518
545,704348164,-1.02404940128326,0.25836065411568,15.80438137054443,0.05253749713302,-0.17824883759022,9.85834693908691,1.26412653923035,0.20797476172447,-0.30642306804657
546,704356497,-1.02411425113678,0.25750529766083,15.80481243133545,0.03716605529189,-0.19579474627972,9.84186744689941,1.30915629863739,0.04727106913924,-0.25934413075447
547,704364830,-1.02419579029083,0.25766974687576,15.80471515655518,0.01690216735005,-0.20377734303474,9.84389972686768,1.31161522865295,0.16858007013798,-0.33088469505310
548,704373163,-1.02397978305817,0.25807824730873,15.80498313903809,-0.01713821105659,-0.16744805872440,9.87665271759033,1.34291589260101,0.19839504361153,-0.27653124928474
549,704381496,-1.02441823482513,0.25744017958641,15.80500030517578,-0.04300289228559,-0.18464349210262,9.84917163848877,1.26702094078064,0.07257793098688,-0.28301167488098
550,704389829,-1.02467226982117,0.25705134868622,15.80471324920654,-0.06288064271212,-0.20576582849026,9.86819839477539,1.28748667240143,0.10305887460709,-0.34397354722023
551,704398162,-1.02442407608032,0.25651276111603,15.80516338348389,-0.08627758920193,-0.15797768533230,9.84631061553955,1.34998536109924,0.08466785401106,-0.27678743004799
552,704406495,-1.02502083778381,0.25678962469101,15.80575656890869,-0.10777904093266,-0.17435769736767,9.84168243408203,1.24576115608215,0.18205317854881,-0.23821240663528
553,704414828,-1.02513074874878,0.25670146942139,15.80659770965576,-0.14194805920124,-0.18851318955421,9.84631156921387,1.30544221401215,0.13827845454216,-0.23864783346653
554,704423161,-1.02599346637726,0.25678831338882,15.80682659149170,-0.14903639256954,-0.19723963737488,9.84842205047607,1.21428120136261,0.15897475183010,-0.28185901045799
555,704431494,-1.02609264850616,0.25641825795174,15.80637264251709,-0.16271287202835,-0.17370678484440,9.85686779022217,1.30838775634766,0.10677292197943,-0.36907550692558
556,704439827,-1.02656888961792,0.25655576586723,15.80691242218018,-0.18411417305470,-0.18437883257866,9.84187602996826,1.26015639305115,0.16443057358265,-0.24530754983425
557,704448160,-1.02662467956543,0.25656723976135,15.80720615386963,-0.17644633352757,-0.19378481805325,9.84968662261963,1.31440722942352,0.15021467208862,-0.26707962155342
558,704456493,-1.02609622478485,0.25712105631828,15.80767059326172,-0.16245536506176,-0.18928568065166,9.85847759246826,1.38059449195862,0.21596643328667,-0.25291496515274
559,704464826,-1.02624022960663,0.25816091895103,15.80770492553711,-0.14769190549850,-0.15593913197517,9.86030101776123,1.30280399322510,0.27393144369125,-0.29791915416718
560,704473159,-1.02563345432281,0.25817069411278,15.80777645111084,-0.15249846875668,-0.18632441759109,9.87790584564209,1.38996922969818,0.15013782680035,-0.30278587341309
561,704481492,-1.02642107009888,0.25802111625671,15.80725193023682,-0.14310660958290,-0.18148908019066,9.86154747009277,1.22585880756378,0.13300190865993,-0.36692389845848
562,704489825,-1.02683568000793,0.25785499811172,15.80785179138184,-0.11897324025631,-0.17512305080891,9.84181880950928,1.26796865463257,0.12818644940853,-0.23841728270054
563,704498158,-1.02693569660187,0.25709682703018,15.80814170837402,-0.08672834932804,-0.19483625888824,9.86200237274170,1.30831110477448,0.05836204066873,-0.27530181407928
564,704506491,-1.02659809589386,0.25649636983871,15.80777168273926,-0.05763760954142,-0.18109567463398,9.85640335083008,1.35774648189545,0.07754709571600,-0.35621711611748
565,704514824,-1.02700698375702,0.25689426064491,15.80794048309326,-0.02405512705445,-0.20453552901745,9.84699535369873,1.27134978771210,0.19624346494675,-0.26228976249695
566,704523157,-1.02655220031738,0.25680547952652,15.80831623077393,-0.00653769867495,-0.18699677288532,9.83950042724609,1.37088668346405,0.13827845454216,-0.26331433653831
567,704531490,-1.02636897563934,0.25686800479889,15.80827522277832,0.01477062050253,-0.15946547687054,9.84751224517822,1.34319770336151,0.15797579288483,-0.34402480721474
568,704539823,-1.02666914463043,0.25666531920433,15.80766868591309,0.01091523841023,-0.19020125269890,9.82425117492676,1.28123700618744,0.12672643363476,-0.38311213254929
569,704548156,-1.02687215805054,0.25706225633621,15.80872440338135,0.04597856104374,-0.19698214530945,9.83257770538330,1.29591381549835,0.19470660388470,-0.19277274608612
570,704556489,-1.02684879302979,0.25772055983543,15.80870532989502,0.05946858972311,-0.19477906823158,9.88527774810791,1.32088768482208,0.22864547371864,-0.30993223190308
571,704564822,-1.02641367912292,0.25800231099129,15.80874824523926,0.07345254719257,-0.17811293900013,9.86494350433350,1.37193679809570,0.18294966220856,-0.28480467200279
572,704573155,-1.02679884433746,0.25721818208694,15.80865764617920,0.07706458866596,-0.18736869096756,9.87205886840820,1.27117025852203,0.05487849563360,-0.32289299368858
573,704581488,-1.02715671062469,0.25729390978813,15.80849361419678,0.07581999152899,-0.16313488781452,9.85379791259766,1.27800941467285,0.15784771740437,-0.32522392272949
574,704589821,-1.02672135829926,0.25701251626015,15.80844879150391,0.07764410972595,-0.17544493079185,9.84829902648926,1.36870944499969,0.11778705567122,-0.31510630249977
575,704598154,-1.02682900428772,0.25716903805733,15.80921745300293,0.06054166331887,-0.18982930481434,9.87427806854248,1.30761945247650,0.16540391743183,-0.20557984709740
576,704606487,-1.02701747417450,0.25776940584183,15.80898857116699,0.06310968101025,-0.15613225102425,9.86544513702393,1.29537594318390,0.22172965109348,-0.33485490083694
577,704614820,-1.02709674835205,0.25808954238892,15.80964088439941,0.03645088896155,-0.17222614586353,9.85619544982910,1.31005287170410,0.18756023049355,-0.22681404650211
578,704623153,-1.02670657634735,0.25739285349846,15.80968856811523,0.02964138053358,-0.19007964432240,9.88011455535889,1.36432933807373,0.06637928634882,-0.30357992649078
579,704631486,-1.02662217617035,0.25682559609413,15.80951786041260,0.01134440861642,-0.17894266545773,9.85593795776367,1.33067214488983,0.08185028284788,-0.33272889256477
580,704639819,-1.02729213237762,0.25691720843315,15.80888462066650,-0.01072926446795,-0.16613908112049,9.87523651123047,1.23730826377869,0.16161300241947,-0.38572475314140
581,704648152,-1.02784883975983,0.25667396187782,15.80907058715820,-0.05503397434950,-0.19554442167282,9.85012245178223,1.25303542613983,0.12004109472036,-0.27281719446182
582,704656485,-1.02785038948059,0.25696355104446,15.80885028839111,-0.09117729216814,-0.18060213327408,9.87304782867432,1.31830060482025,0.18525494635105,-0.33718577027321
583,704664818,-1.02736759185791,0.25698181986809,15.80838394165039,-0.11835093796253,-0.16339954733849,9.87792587280273,1.37798166275024,0.15251995623112,-0.36815339326859
584,704673151,-1.02669548988342,0.25703743100166,15.80797100067139,-0.14341431856155,-0.18076665699482,9.86056709289551,1.39849877357483,0.15751473605633,-0.36000806093216
585,704681484,-1.02691221237183,0.25794357061386,15.80731201171875,-0.14395812153816,-0.19017264246941,9.82209110260010,1.29473555088043,0.25933134555817,-0.36928042769432
586,704689817,-1.02753210067749,0.25766229629517,15.80709457397461,-0.15327827632427,-0.16905029118061,9.87900638580322,1.24304604530334,0.11681372672319,-0.33631491661072
587,704698150,-1.02763450145721,0.25785624980927,15.80716800689697,-0.15404362976551,-0.20274733006954,9.83957195281982,1.30856716632843,0.17313942313194,-0.33470121026039
588,704706483,-1.02749943733215,0.25754851102829,15.80735969543457,-0.15327827632427,-0.18467210233212,9.85560226440430,1.33384859561920,0.11261299997568,-0.28751981258392
589,704714816,-1.02735710144043,0.25774827599525,15.80819988250732,-0.18225432932377,-0.17843483388424,9.86731243133545,1.33687078952789,0.17188431322575,-0.21925784647465
590,704723149,-1.02804577350616,0.25745931267738,15.80888271331787,-0.16845659911633,-0.19218258559704,9.86473560333252,1.23402965068817,0.11356069892645,-0.22942669689655
591,704731482,-1.02762579917908,0.25754755735397,15.80949211120605,-0.14059628546238,-0.20047272741795,9.85349178314209,1.36996448040009,0.15784773230553,-0.22719827294350
592,704739815,-1.02745676040649,0.25767013430595,15.80992794036865,-0.11861571669579,-0.18783365190029,9.85870456695557,1.33802354335785,0.16335478425026,-0.25709006190300
593,704748148,-1.02721452713013,0.25779885053635,15.81061458587646,-0.09984653443098,-0.16401468217373,9.86678218841553,1.34837162494659,0.16376461088657,-0.23360180854797
594,704756481,-1.02705681324005,0.25744926929474,15.81137084960938,-0.09413141012192,-0.18899956345558,9.85474395751953,1.33556449413300,0.10620941221714,-0.21969328820705
595,704764814,-1.02676713466644,0.25691649317741,15.81116104125977,-0.03925495594740,-0.17910002171993,9.86273956298828,1.35597908496857,0.08584610372782,-0.32724744081497
596,704773147,-1.02717995643616,0.25648489594460,15.81182670593262,-0.06074909493327,-0.18213284015656,9.85721111297607,1.26702105998993,0.09616864472628,-0.22960598766804
597,704781480,-1.02701330184937,0.25634032487869,15.81137371063232,-0.03812482953072,-0.19424974918365,9.87986278533936,1.34178888797760,0.13425700366497,-0.37729763984680
598,704789813,-1.02712142467499,0.25678488612175,15.81184005737305,0.00022173812613,-0.16769839823246,9.85810565948486,1.30290627479553,0.20205786824226,-0.25232580304146
599,704798146,-1.02705907821655,0.25615343451500,15.81217288970947,0.03402607515454,-0.17730467021465,9.86391353607178,1.32795715332031,0.07175827771425,-0.26451817154884
600,704806479,-1.02675497531891,0.25603428483009,15.81152629852295,0.05314562469721,-0.19359885156155,9.86069488525391,1.35398113727570,0.13669034838676,-0.38672369718552
601,704814812,-1.02737927436829,0.25582754611969,15.81192016601562,0.08267971128225,-0.16405045986176,9.85492229461670,1.24606859683990,0.12452360987663,-0.29274511337280
602,704823145,-1.02749276161194,0.25649645924568,15.81179428100586,0.07881002128124,-0.19518677890301,9.84629631042480,1.30352127552032,0.23010547459126,-0.32332849502563
603,704831478,-1.02714490890503,0.25588181614876,15.81180953979492,0.08006876707077,-0.19142436981201,9.85123729705811,1.36353528499603,0.07583094388247,-0.32629972696304
604,704839811,-1.02670729160309,0.25620356202126,15.81046772003174,0.08627758920193,-0.18349188566208,9.85719013214111,1.37039983272552,0.19032657146454,-0.46956014633179
605,704848144,-1.02700698375702,0.25575897097588,15.81043624877930,0.08219317346811,-0.17263385653496,9.85912704467773,1.28354203701019,0.09711637347937,-0.32627409696579
606,704856477,-1.02763068675995,0.25590619444847,15.81038570404053,0.07599180191755,-0.20578013360500,9.85001564025879,1.24312293529510,0.16809341311455,-0.31490138173103
607,704864810,-1.02739500999451,0.25600239634514,15.81074047088623,0.07616347074509,-0.17334198951721,9.87702465057373,1.34934508800507,0.15979440510273,-0.24005660414696
608,704873143,-1.02738952636719,0.25615170598030,15.81070137023926,0.04311004281044,-0.16872125864029,9.87423419952393,1.31750655174255,0.16770920157433,-0.31459403038025
609,704881476,-1.02787768840790,0.25711649656296,15.81171417236328,0.02081477269530,-0.19484344124794,9.86552333831787,1.26115524768829,0.26355767250061,-0.20324893295765
610,704889809,-1.02778339385986,0.25661656260490,15.81197357177734,0.02198783867061,-0.17214031517506,9.87339115142822,1.32854640483856,0.08874051272869,-0.28075763583183
611,704898142,-1.02747726440430,0.25667330622673,15.81245708465576,-0.02064310386777,-0.16269141435623,9.82263469696045,1.35702919960022,0.15620839595795,-0.26308378577232
612,704906475,-1.02764165401459,0.25701031088829,15.81202507019043,-0.03082891553640,-0.19384920597076,9.87145137786865,1.29760432243347,0.19211956858635,-0.36057159304619
613,704914808,-1.02801942825317,0.25677374005318,15.81178569793701,-0.06902493536472,-0.18903532624245,9.87838363647461,1.27539682388306,0.12157795578241,-0.34276968240738
614,704923141,-1.02794408798218,0.25630837678909,15.81213760375977,-0.07199323922396,-0.17081704735756,9.86476612091064,1.32729113101959,0.09322300553322,-0.26941055059433
615,704931474,-1.02821373939514,0.25664928555489,15.81266975402832,-0.11571153998375,-0.20599472522736,9.87467861175537,1.28743529319763,0.18922513723373,-0.24766401946545
616,704939807,-1.02876543998718,0.25652047991753,15.81271076202393,-0.11487466096878,-0.18317715823650,9.84367084503174,1.25144743919373,0.13451313972473,-0.30601325631142
617,704948140,-1.02846550941467,0.25613802671432,15.81258106231689,-0.15342848002911,-0.15903630852699,9.87394905090332,1.35613274574280,0.10359676182270,-0.34471637010574
618,704956473,-1.02928888797760,0.25609594583511,15.81261253356934,-0.16257697343826,-0.18631725013256,9.83492279052734,1.21896862983704,0.14580900967121,-0.30598762631416
619,704964806,-1.02887678146362,0.25609135627747,15.81431293487549,-0.19483634829521,-0.20309063792229,9.84830474853516,1.36891436576843,0.14532236754894,-0.12299955636263
620,704973139,-1.02805447578430,0.25667852163315,15.81437397003174,-0.16417205333710,-0.17118899524212,9.86782646179199,1.41586530208588,0.22062823176384,-0.30153077840805
621,704981472,-1.02746284008026,0.25571161508560,15.81436920166016,-0.17284129559994,-0.17375686764717,9.84566688537598,1.39148056507111,0.03338815271854,-0.32663273811340
622,704989805,-1.02670860290527,0.25468844175339,15.81368064880371,-0.16209056973457,-0.19689631462097,9.84382152557373,1.40920543670654,0.02782986499369,-0.39363953471184
623,704998138,-1.02625727653503,0.25391077995300,15.81391620635986,-0.13608297705650,-0.18806967139244,9.87388324737549,1.37416529655457,0.05692763254046,-0.28334465622902
624,705006471,-1.02581322193146,0.25364187359810,15.81408023834229,-0.11315797269344,-0.18801963329315,9.85294818878174,1.36965715885162,0.11668564379215,-0.29061910510063
625,705014804,-1.02554810047150,0.25284025073051,15.81509113311768,-0.08288714289665,-0.17176836729050,9.85819149017334,1.35298240184784,0.05095952004194,-0.19564153254032
626,705023137,-1.02524149417877,0.25258415937424,15.81553554534912,-0.09099847078323,-0.18837012350559,9.83111763000488,1.35387873649597,0.11804318428040,-0.25644966959953
627,705031470,-1.02478349208832,0.25278851389885,15.81614017486572,-0.05250198766589,-0.19154597818851,9.84333324432373,1.37490820884705,0.17331872880459,-0.25450307130814
628,705039803,-1.02417123317719,0.25201985239983,15.81559848785400,-0.01861151866615,-0.16128946840763,9.85422229766846,1.39127552509308,0.05843886733055,-0.37550467252731
629,705048136,-1.02396261692047,0.25196930766106,15.81527900695801,-0.00424878858030,-0.17270539700985,9.88156700134277,1.34639930725098,0.14491251111031,-0.35355326533318
630,705056469,-1.02295529842377,0.25239393115044,15.81421184539795,0.02100768126547,-0.18572357296944,9.84852600097656,1.43836736679077,0.20265984535217,-0.43735027313232
631,705064802,-1.02293539047241,0.25279414653778,15.81368064880371,0.04447637870908,-0.19389927387238,9.86549472808838,1.32242441177368,0.19898417592049,-0.37140637636185
632,705073135,-1.02367198467255,0.25318041443825,15.81492233276367,0.06805215030909,-0.17310595512390,9.84229087829590,1.22836899757385,0.19342589378357,-0.16014018654823
633,705081468,-1.02376472949982,0.25290581583977,15.81523132324219,0.06295203417540,-0.16038103401661,9.85393428802490,1.30846464633942,0.11496949195862,-0.29115697741508
634,705089801,-1.02342748641968,0.25297600030899,15.81477737426758,0.06080649048090,-0.19347725808620,9.84575366973877,1.35807955265045,0.16010177135468,-0.36410635709763
635,705098134,-1.02314019203186,0.25299060344696,15.81425476074219,0.07737963646650,-0.16875703632832,9.87458705902100,1.35556936264038,0.15164908766747,-0.37763068079948
636,705106467,-1.02302694320679,0.25326383113861,15.81462574005127,0.08902416378260,-0.17945766448975,9.88401126861572,1.33080041408539,0.18320581316948,-0.26444134116173
637,705114800,-1.02285516262054,0.25276911258698,15.81483840942383,0.09007575362921,-0.17063106596470,9.86244010925293,1.34160947799683,0.08848436921835,-0.25719252228737
638,705123133,-1.02304887771606,0.25264072418213,15.81432628631592,0.06062766164541,-0.17224046587944,9.85476589202881,1.29350602626801,0.13584508001804,-0.37181618809700
639,705131466,-1.02262032032013,0.25278154015541,15.81427192687988,0.04378970339894,-0.17020189762115,9.88673782348633,1.37352490425110,0.16673585772514,-0.31853860616684
640,705139799,-1.02294993400574,0.25268325209618,15.81545734405518,0.03029243834317,-0.19213251769543,9.87988662719727,1.27608847618103,0.13464124500751,-0.16741465032101
641,705148132,-1.02308583259583,0.25348705053329,15.81506443023682,0.01195240020752,-0.17809148132801,9.86860561370850,1.30413603782654,0.24742069840431,-0.35911154747009
642,705156465,-1.02309358119965,0.25299358367920,15.81543159484863,-0.02449133433402,-0.19983612000942,9.85456466674805,1.31655883789062,0.09002123028040,-0.26820665597916
643,705164798,-1.02332794666290,0.25245183706284,15.81683635711670,-0.01766037009656,-0.19126701354980,9.84770488739014,1.29235339164734,0.08154292404652,-0.14021231234074
644,705173131,-1.02380776405334,0.25196471810341,15.81660938262939,-0.04676528647542,-0.17332768440247,9.85886383056641,1.25859391689301,0.09281317889690,-0.33823597431183
645,705181464,-1.02396094799042,0.25248485803604,15.81741523742676,-0.06991179287434,-0.16902883350849,9.85705471038818,1.30198431015015,0.20992144942284,-0.21421183645725
646,705189797,-1.02373659610748,0.25321450829506,15.81837654113770,-0.09723565727472,-0.21055109798908,9.86848545074463,1.34368419647217,0.23453675210476,-0.19264465570450
647,705198130,-1.02355432510376,0.25323548913002,15.81848907470703,-0.11796468496323,-0.18730434775352,9.85017299652100,1.34230113029480,0.15341645479202,-0.30319571495056
648,705206463,-1.02351450920105,0.25432297587395,15.81851387023926,-0.15881457924843,-0.17056669294834,9.86144542694092,1.32242453098297,0.27948972582817,-0.30465570092201
649,705214796,-1.02367091178894,0.25477644801140,15.81911468505859,-0.15312805771828,-0.19790485501289,9.85877037048340,1.30088293552399,0.20367158949375,-0.24031277000904
650,705223129,-1.02305185794830,0.25386744737625,15.81914043426514,-0.18572372198105,-0.19279055297375,9.85756778717041,1.39268445968628,0.04081628471613,-0.30857467651367
651,705231462,-1.02286672592163,0.25362586975098,15.81918239593506,-0.15458709001541,-0.15905062854290,9.84738445281982,1.34301829338074,0.12029725313187,-0.32548007369041
652,705239795,-1.02212154865265,0.25329121947289,15.81882095336914,-0.16770555078983,-0.18719705939293,9.83060264587402,1.40700268745422,0.11117858439684,-0.35416802763939
653,705248128,-1.02158999443054,0.25333094596863,15.81867027282715,-0.16557417809963,-0.19651719927788,9.84672355651855,1.38397562503815,0.15477402508259,-0.33316436409950
654,705256461,-1.02146220207214,0.25324085354805,15.81829452514648,-0.12735620141029,-0.18951457738876,9.85920810699463,1.33336174488068,0.13994336128235,-0.35534629225731
655,705264794,-1.02091145515442,0.25338405370712,15.81837654113770,-0.10864453017712,-0.18625287711620,9.86499309539795,1.38615274429321,0.16686391830444,-0.30122339725494
656,705273127,-1.02108621597290,0.25295859575272,15.81856632232666,-0.09771486371756,-0.17974379658699,9.85349273681641,1.29709196090698,0.09878129512072,-0.28844186663628
657,705281460,-1.02128589153290,0.25258475542068,15.81808280944824,-0.06627092510462,-0.18342751264572,9.86825656890869,1.29545259475708,0.10441642999649,-0.36461859941483
658,705289793,-1.02080845832825,0.25173860788345,15.81794643402100,-0.05100708082318,-0.20161715149879,9.83639526367188,1.37570202350616,0.04852616414428,-0.32783657312393
659,705298126,-1.01976048946381,0.25220614671707,15.81812572479248,-0.03297460451722,-0.20355559885502,9.81988811492920,1.44639742374420,0.20605370402336,-0.29100328683853
660,705306459,-1.01844370365143,0.25210371613503,15.81850814819336,-0.01719543524086,-0.15672594308853,9.87715339660645,1.47482931613922,0.13566578924656,-0.26451820135117
661,705314792,-1.01783895492554,0.25210177898407,15.81817150115967,0.00715284282342,-0.19047304987907,9.86102390289307,1.39288926124573,0.14988167583942,-0.35491079092026
662,705323125,-1.01842629909515,0.25180625915527,15.81761837005615,0.01756738312542,-0.19970737397671,9.84980106353760,1.24737489223480,0.11632706224918,-0.37683662772179
663,705331458,-1.01905357837677,0.25144246220589,15.81781291961670,0.04210163280368,-0.16482296586037,9.86577320098877,1.24532568454742,0.10521046817303,-0.30037811398506
664,705339791,-1.01954531669617,0.25203868746758,15.81770420074463,0.06189340725541,-0.19184640049934,9.84214591979980,1.25836336612701,0.22183206677437,-0.32266253232956
665,705348124,-1.01985204219818,0.25206190347672,15.81794643402100,0.05901108682156,-0.17346359789371,9.88163280487061,1.28413116931915,0.15218697488308,-0.30542412400246
666,705356457,-1.01995563507080,0.25199565291405,15.81820297241211,0.08933901041746,-0.16289883852005,9.86844158172607,1.30444335937500,0.14086547493935,-0.27860602736473
667,705364790,-1.02059650421143,0.25231084227562,15.81919002532959,0.08990408480167,-0.19152452051640,9.89071559906006,1.24307155609131,0.18633075058460,-0.20368438959122
668,705373123,-1.02048599720001,0.25346261262894,15.82004547119141,0.07170724868774,-0.17598855495453,9.86422824859619,1.33077478408813,0.28640556335449,-0.20458090305328
669,705381456,-1.02103912830353,0.25433513522148,15.81960296630859,0.06268767267466,-0.17835612595081,9.84814262390137,1.25331723690033,0.25492566823959,-0.35593539476395
670,705389789,-1.02035069465637,0.25481948256493,15.81930541992188,0.05983353033662,-0.18415708839893,9.85820579528809,1.40011250972748,0.20874319970608,-0.34351250529289
671,705398122,-1.02028000354767,0.25479161739349,15.82000446319580,0.03237376734614,-0.19053027033806,9.83941459655762,1.32872569561005,0.14509184658527,-0.21943716704845
672,705406455,-1.02045381069183,0.25572818517685,15.81947994232178,0.01462057791650,-0.15386480093002,9.85372924804688,1.29693830013275,0.26378819346428,-0.37091973423958
673,705414788,-1.02158319950104,0.25541967153549,15.82010650634766,-0.01075787562877,-0.15648274123669,9.86354160308838,1.18607985973358,0.11135788261890,-0.25965148210526
674,705423121,-1.02149522304535,0.25526779890060,15.82099914550781,-0.02449848689139,-0.20581589639187,9.83490180969238,1.32731688022614,0.12951838970184,-0.20184016227722
675,705431454,-1.02141189575195,0.25573047995567,15.82180404663086,-0.05996217951179,-0.16409337520599,9.85899353027344,1.32936596870422,0.20387651026249,-0.22991336882114
676,705439787,-1.02224206924438,0.25619691610336,15.82197284698486,-0.07281593978405,-0.18035893142223,9.86622428894043,1.21763658523560,0.20682212710381,-0.28769907355309
677,705448120,-1.02276718616486,0.25628659129143,15.82201004028320,-0.10592645406723,-0.20800466835499,9.85355663299561,1.25779986381531,0.16051161289215,-0.31759092211723
678,705456453,-1.02303671836853,0.25650894641876,15.82233810424805,-0.12345807254314,-0.19055889546871,9.85075950622559,1.28533506393433,0.17562398314476,-0.26946172118187
679,705464786,-1.02266049385071,0.25631842017174,15.82296180725098,-0.12818598747253,-0.17653933167458,9.85555267333984,1.36461102962494,0.12565062940121,-0.22294628620148
680,705473119,-1.02274823188782,0.25671759247780,15.82362747192383,-0.14872905611992,-0.19696784019470,9.84226894378662,1.30705606937408,0.19537259638309,-0.22986215353012
681,705481452,-1.02308094501495,0.25648090243340,15.82337474822998,-0.16619630157948,-0.18027310073376,9.87063026428223,1.28026354312897,0.12152674049139,-0.33334368467331
682,705489785,-1.02320396900177,0.25638502836227,15.82253170013428,-0.16060295701027,-0.18809829652309,9.87683773040771,1.30336749553680,0.14089109003544,-0.40964844822884
683,705498118,-1.02347552776337,0.25703135132790,15.82226657867432,-0.17545208334923,-0.20104496181011,9.85869884490967,1.28835773468018,0.22739039361477,-0.33867144584656
684,705506451,-1.02264893054962,0.25692668557167,15.82252597808838,-0.15100380778313,-0.16962251067162,9.84711742401123,1.41591656208038,0.13686966896057,-0.27888780832291
685,705514784,-1.02347290515900,0.25671905279160,15.82204818725586,-0.14501644670963,-0.15721948444843,9.83481693267822,1.22250318527222,0.12639343738556,-0.35962384939194
686,705523117,-1.02341341972351,0.25656375288963,15.82142162322998,-0.12465259432793,-0.20128099620342,9.84681129455566,1.32506275177002,0.13123452663422,-0.38564789295197
687,705531450,-1.02337229251862,0.25688713788986,15.82183265686035,-0.10886626690626,-0.18380659818649,9.86223220825195,1.32449924945831,0.18814936280251,-0.27384176850319
688,705539783,-1.02298271656036,0.25723114609718,15.82175445556641,-0.09488245844841,-0.13589686155319,9.87412071228027,1.36368906497955,0.19153045117855,-0.31818002462387
689,705548116,-1.02244746685028,0.25731027126312,15.82210254669189,-0.06079903617501,-0.17344929277897,9.84622573852539,1.38510262966156,0.15887229144573,-0.27169018983841
690,705556449,-1.02250647544861,0.25686821341515,15.82258033752441,-0.04219450429082,-0.19839841127396,9.86970901489258,1.31053948402405,0.09627109766006,-0.25235143303871
691,705564782,-1.02201151847839,0.25676801800728,15.82224941253662,-0.00973501894623,-0.17362810671329,9.84801292419434,1.37969791889191,0.13735632598400,-0.35744667053223
692,705573115,-1.02142667770386,0.25781613588333,15.82297706604004,0.00982074532658,-0.18704684078693,9.83771133422852,1.38720273971558,0.27398264408112,-0.22079467773438
693,705581448,-1.02183854579926,0.25835588574409,15.82308292388916,0.01522125024348,-0.17640341818333,9.87772560119629,1.27070939540863,0.21530044078827,-0.30158200860023
694,705589781,-1.02115201950073,0.25770699977875,15.82383441925049,0.04369671642780,-0.17477256059647,9.84805583953857,1.39962577819824,0.06986282765865,-0.22245962917805
695,705598114,-1.02048218250275,0.25772663950920,15.82284736633301,0.07365282624960,-0.18225443363190,9.86709690093994,1.40185427665710,0.15395434200764,-0.44146138429642
696,705606447,-1.02031338214874,0.25819966197014,15.82205295562744,0.06579203903675,-0.19088791310787,9.87391471862793,1.33763933181763,0.20905058085918,-0.40403893589973
697,705614780,-1.02044963836670,0.25822985172272,15.82192039489746,0.05842427909374,-0.18007281422615,9.87053585052490,1.30452024936676,0.15367260575294,-0.31905090808868
