sep=,
DeviceTag:,Xsens DOT
FirmwareVersion:,3.0.0
AppVersion:,2023.6.0
StartTime: ,2025-03-06_12:24:10_000 PST
© Movella Technologies B. V. 2005-2025

PacketCounter,SampleTimeFine,Euler_X,Euler_Y,Euler_Z,Acc_X,Acc_Y,Acc_Z,Gyr_X,Gyr_Y,Gyr_Z
0,874374696,-1.09934711456299,0.26577839255333,15.99793910980225,0.00000000000000,0.00000000000000,0.00000000000000,0.00000000000000,0.00000000000000,0.00000000000000
1,874383029,-1.09923267364502,0.26540952920914,15.99859142303467,-0.04362519085407,-0.17726175487041,9.87838363647461,1.32902014255524,0.10350712388754,-0.23356339335442
2,874391362,-1.09881734848022,0.26552090048790,15.99906921386719,-0.04097148403525,-0.20523652434349,9.84973621368408,1.36416280269623,0.16482760012150,-0.25533550977707
3,874399695,-1.09911298751831,0.26477673649788,15.99916839599609,-0.05401098355651,-0.14887928962708,9.88325595855713,1.27991771697998,0.05980923399329,-0.30167162418365
4,874408028,-1.09942913055420,0.26402476429939,15.99896049499512,-0.04465505480766,-0.18506552278996,9.87229061126709,1.27635741233826,0.06126925349236,-0.33148667216301
5,874416361,-1.09941291809082,0.26403775811195,15.99918365478516,-0.05132164806128,-0.19463600218296,9.86367702484131,1.31703257560730,0.15191802382469,-0.28433078527451
6,874424694,-1.09809613227844,0.26429250836372,15.99870109558105,-0.02703755907714,-0.13993820548058,9.84482383728027,1.47222936153412,0.18186107277870,-0.36975425481796
7,874433027,-1.09909093379974,0.26462805271149,15.99921798706055,-0.04864648357034,-0.19321259856224,9.84147548675537,1.19578766822815,0.19042903184891,-0.24807386100292
8,874441360,-1.09903275966644,0.26504409313202,15.99858760833740,-0.05765191465616,-0.23872613906860,9.86198902130127,1.32100284099579,0.20114856958389,-0.36616829037666
9,874449693,-1.09904181957245,0.26520153880119,15.99813365936279,-0.04409744217992,-0.14364339411259,9.85768890380859,1.31485545635223,0.17123115062714,-0.36458018422127
10,874458026,-1.09935367107391,0.26512002944946,15.99788761138916,-0.05565626919270,-0.18030886352062,9.86060142517090,1.27735638618469,0.14046847820282,-0.33164033293724
11,874466359,-1.09895133972168,0.26487776637077,15.99745082855225,-0.02834671735764,-0.24580745398998,9.84976482391357,1.36393237113953,0.12264095991850,-0.36286404728889
12,874474692,-1.09873342514038,0.26494687795639,15.99713611602783,-0.04231622070074,-0.17304158210754,9.85179615020752,1.34031593799591,0.15932054817677,-0.34027227759361
13,874483025,-1.09868919849396,0.26466342806816,15.99723529815674,-0.04839613661170,-0.15586045384407,9.88625144958496,1.32087492942810,0.11741565167904,-0.29980179667473
14,874491358,-1.09869313240051,0.26558911800385,15.99692344665527,-0.04848912358284,-0.20409922301769,9.83752632141113,1.31349790096283,0.26231536269188,-0.32795184850693
15,874499691,-1.09827208518982,0.26608207821846,15.99633407592773,-0.04734448716044,-0.17724028229713,9.84026050567627,1.36631453037262,0.21057461202145,-0.38066592812538
16,874508024,-1.09841823577881,0.26595005393028,15.99594116210938,-0.05217268317938,-0.17710439860821,9.88818454742432,1.29628527164459,0.13567861914635,-0.34232145547867
17,874516357,-1.09779047966003,0.26619637012482,15.99656295776367,-0.03078572079539,-0.22852618992329,9.86998081207275,1.39046871662140,0.17917156219482,-0.23553568124771
18,874524690,-1.09815084934235,0.26659661531448,15.99653911590576,-0.04557791352272,-0.19201806187630,9.86300468444824,1.27128565311432,0.19799803197384,-0.30131304264069
19,874533023,-1.09830009937286,0.26742067933083,15.99720859527588,-0.04125054925680,-0.17611013352871,9.86925506591797,1.29730975627899,0.24825315177441,-0.22841492295265
20,874541356,-1.09838032722473,0.26748859882355,15.99720859527588,-0.04735195264220,-0.22623725235462,9.84299755096436,1.30427682399750,0.15893632173538,-0.29565230011940
21,874549689,-1.09779930114746,0.26800826191902,15.99754619598389,-0.03663686290383,-0.15580321848392,9.86944293975830,1.38498735427856,0.21211147308350,-0.26973068714142
22,874558022,-1.09730410575867,0.26777672767639,15.99847221374512,-0.03237376734614,-0.15294924378395,9.88899135589600,1.37294852733612,0.12074550241232,-0.16924604773521
23,874566355,-1.09683692455292,0.26820126175880,15.99856090545654,-0.03850360959768,-0.20626653730869,9.85091781616211,1.37130928039551,0.20053383708000,-0.30113372206688
24,874574688,-1.09645104408264,0.26929003000259,15.99843788146973,-0.04939753189683,-0.18834151327610,9.86201763153076,1.36083316802979,0.28126993775368,-0.29844427108765
25,874583021,-1.09722328186035,0.26968848705292,15.99857616424561,-0.02952693589032,-0.11796468496323,9.87213230133057,1.22264420986176,0.19789557158947,-0.29475581645966
26,874591354,-1.09779179096222,0.26958051323891,15.99867534637451,-0.03368273749948,-0.21078713238239,9.83364295959473,1.24592769145966,0.13803511857986,-0.29380810260773
27,874599687,-1.09716188907623,0.26924073696136,15.99877738952637,-0.02675163187087,-0.19615241885185,9.84896373748779,1.39085292816162,0.10975699126720,-0.30095443129539
28,874608020,-1.09737467765808,0.26944780349731,15.99848079681396,-0.03652241453528,-0.15958708524704,9.84350681304932,1.28844726085663,0.17689189314842,-0.34224462509155
29,874616353,-1.09775710105896,0.26911997795105,15.99820518493652,-0.03547810018063,-0.19673894345760,9.83709716796875,1.27013313770294,0.11180613934994,-0.34365338087082
30,874624686,-1.09717571735382,0.26907226443291,15.99777889251709,-0.05175780877471,-0.18864908814430,9.86571025848389,1.38401389122009,0.14561691880226,-0.34480601549149
31,874633019,-1.09663403034210,0.26905718445778,15.99816989898682,-0.06394641846418,-0.18267644941807,9.85634613037109,1.38001811504364,0.14797341823578,-0.26453098654747
32,874641352,-1.09623539447784,0.26842096447945,15.99776458740234,-0.03898315504193,-0.17549499869347,9.83718204498291,1.36249804496765,0.07443495839834,-0.34495970606804
33,874649685,-1.09646511077881,0.26763105392456,15.99731063842773,-0.03141512349248,-0.18352766335011,9.86028861999512,1.28796041011810,0.05755517631769,-0.36778193712234
34,874658018,-1.09604203701019,0.26711010932922,15.99697589874268,-0.03668677061796,-0.15952986478806,9.83748531341553,1.36544358730316,0.08939366787672,-0.34339722990990
35,874666351,-1.09626495838165,0.26643049716949,15.99672985076904,-0.05605698376894,-0.18999379873276,9.87755966186523,1.28880596160889,0.06856931000948,-0.34203973412514
36,874674684,-1.09676969051361,0.26615428924561,15.99735164642334,-0.02957700565457,-0.18575933575630,9.84582424163818,1.25330460071564,0.11644230782986,-0.21332816779613
37,874683017,-1.09646975994110,0.26640820503235,15.99805164337158,-0.03504167497158,-0.15892902016640,9.86105346679688,1.35115087032318,0.17937648296356,-0.22639140486717
38,874691350,-1.09687459468842,0.26662379503250,15.99899387359619,-0.04355366155505,-0.16875702142715,9.85772609710693,1.26511275768280,0.17540627717972,-0.18881534039974
39,874699683,-1.09683191776276,0.26647818088531,15.99880695343018,-0.04797411710024,-0.22668789327145,9.85675334930420,1.32056748867035,0.13301472365856,-0.33514943718910
40,874708016,-1.09687435626984,0.26687431335449,15.99912452697754,-0.03084293380380,-0.17014467716217,9.85530281066895,1.30860555171967,0.19797240197659,-0.27313736081123
41,874716349,-1.09746074676514,0.26751282811165,15.99920272827148,-0.04647943377495,-0.16827780008316,9.89019870758057,1.24495422840118,0.22653229534626,-0.30092883110046
42,874724682,-1.09737169742584,0.26817223429680,15.99828052520752,-0.03795279189944,-0.22273238003254,9.86988735198975,1.32574164867401,0.23329447209835,-0.41557815670967
43,874733015,-1.09620308876038,0.26848551630974,15.99800014495850,-0.03128653392196,-0.18992228806019,9.83415794372559,1.45557999610901,0.18928918242455,-0.34460109472275
44,874741348,-1.09647417068481,0.26782920956612,15.99785900115967,-0.04444061219692,-0.15975874662399,9.88947105407715,1.28181302547455,0.07156616449356,-0.32615885138512
45,874749681,-1.09745836257935,0.26678583025932,15.99865150451660,-0.03913302347064,-0.19531555473804,9.87045955657959,1.19728612899780,0.02269421331584,-0.21765694022179
46,874758014,-1.09752094745636,0.26623192429543,15.99790477752686,-0.02308954857290,-0.17776244878769,9.86631584167480,1.30683839321136,0.08754945546389,-0.38279196619987
47,874766347,-1.09838712215424,0.26607948541641,15.99786186218262,-0.04602139070630,-0.17746919393539,9.85697555541992,1.21122026443481,0.13250243663788,-0.31755247712135
48,874774680,-1.09849965572357,0.26581302285194,15.99694156646729,-0.03091458790004,-0.19099521636963,9.86105918884277,1.30145931243896,0.12100164592266,-0.42231467366219
49,874783013,-1.09822010993958,0.26518037915230,15.99694728851318,-0.04524158686399,-0.16997301578522,9.85761356353760,1.34905040264130,0.07361530512571,-0.31283944845200
50,874791346,-1.09826827049255,0.26559525728226,15.99712276458740,-0.03567122668028,-0.17350651323795,9.87008666992188,1.30881047248840,0.19991908967495,-0.27464863657951
51,874799679,-1.09833991527557,0.26574969291687,15.99746608734131,-0.02603634819388,-0.21668107807636,9.84186172485352,1.30658221244812,0.16918204724789,-0.26921841502190
52,874808012,-1.09829354286194,0.26646393537521,15.99670600891113,-0.03841792047024,-0.17527326941490,9.84793376922607,1.31969666481018,0.23828920722008,-0.40154156088829
53,874816345,-1.09901249408722,0.26613506674767,15.99667167663574,-0.02004226669669,-0.16401468217373,9.83589553833008,1.22940647602081,0.11178051680326,-0.31517031788826
54,874824678,-1.09921050071716,0.26660400629044,15.99627113342285,-0.04036349430680,-0.20877002179623,9.84607410430908,1.29077816009521,0.20816688239574,-0.34644532203674
55,874833011,-1.09861207008362,0.26710426807404,15.99573802947998,-0.03447652235627,-0.19834117591381,9.85179805755615,1.38736939430237,0.21182972192764,-0.37444168329239
56,874841344,-1.09877145290375,0.26675006747246,15.99582481384277,-0.02685164287686,-0.16342815756798,9.84659099578857,1.29497885704041,0.10827135294676,-0.29221999645233
57,874849677,-1.09898829460144,0.26656386256218,15.99602985382080,-0.01862600259483,-0.19347724318504,9.86039447784424,1.28949737548828,0.12771257758141,-0.28743016719818
58,874858010,-1.09844374656677,0.26650270819664,15.99578094482422,-0.03677261248231,-0.19293364882469,9.85712623596191,1.37950587272644,0.14323480427265,-0.32057496905327
59,874866343,-1.09816753864288,0.26645630598068,15.99618721008301,-0.05805962532759,-0.16925773024559,9.84963607788086,1.34825646877289,0.14530955255032,-0.26278924942017
60,874874676,-1.09804046154022,0.26655220985413,15.99615669250488,-0.03675130754709,-0.18511557579041,9.84727573394775,1.32950687408447,0.16185633838177,-0.30185091495514
61,874883009,-1.09754443168640,0.26701059937477,15.99650096893311,-0.03452677279711,-0.17710439860821,9.84779834747314,1.37492096424103,0.20598967373371,-0.26755347847939
62,874891342,-1.09802961349487,0.26789858937263,15.99650669097900,-0.04619292542338,-0.17706146836281,9.85367870330811,1.25550723075867,0.25691077113152,-0.30576992034912
63,874899675,-1.09816193580627,0.26770439743996,15.99685859680176,-0.05912540107965,-0.19299085438251,9.86410617828369,1.29941022396088,0.12702098488808,-0.26950019598007
64,874908008,-1.09858620166779,0.26773628592491,15.99650096893311,-0.04605000466108,-0.20250414311886,9.85751152038574,1.26306343078613,0.15558084845543,-0.34011861681938
65,874916341,-1.09797108173370,0.26769021153450,15.99617195129395,-0.04035634174943,-0.14917969703674,9.86996459960938,1.38957226276398,0.14577060937881,-0.35015937685966
66,874924674,-1.09874129295349,0.26784202456474,15.99677085876465,-0.06552719324827,-0.16490164399147,9.88088703155518,1.22121000289917,0.16726095974445,-0.23520271480083
67,874933007,-1.09878957271576,0.26719763875008,15.99694156646729,-0.06380335986614,-0.20193906128407,9.88972091674805,1.30980956554413,0.07348724454641,-0.29145157337189
68,874941340,-1.09899556636810,0.26645603775978,15.99631500244141,-0.05148633196950,-0.17163245379925,9.84135913848877,1.28916442394257,0.06270365417004,-0.37610661983490
69,874949673,-1.09917056560516,0.26603767275810,15.99560356140137,-0.04122165963054,-0.16304905712605,9.86370754241943,1.29508125782013,0.10332781821489,-0.39623939990997
70,874958006,-1.09929442405701,0.26614055037498,15.99569511413574,-0.03493448346853,-0.20544394850731,9.84225463867188,1.29900026321411,0.16206125915051,-0.29639509320259
71,874966339,-1.09932613372803,0.26636266708374,15.99556350708008,-0.04646486788988,-0.18975061178207,9.86378479003906,1.31170499324799,0.17891542613506,-0.32582584023476
72,874974672,-1.09936404228210,0.26617759466171,15.99547290802002,-0.05638585984707,-0.17859934270382,9.87211036682129,1.30975830554962,0.12827609479427,-0.31145629286766
73,874983005,-1.09962117671967,0.26747098565102,15.99525642395020,-0.05369639024138,-0.18977206945419,9.85568046569824,1.28480994701385,0.30626940727234,-0.33394560217857
74,874991338,-1.09890866279602,0.26726481318474,15.99529552459717,-0.03841076791286,-0.18931429088116,9.87034416198730,1.39933121204376,0.12658554315567,-0.31291627883911
75,874999671,-1.09879052639008,0.26734122633934,15.99582862854004,-0.04253080487251,-0.19418537616730,9.86617374420166,1.32945561408997,0.15911561250687,-0.24752314388752
76,875008004,-1.09914052486420,0.26651719212532,15.99625587463379,-0.03092889301479,-0.18864192068577,9.87151718139648,1.27215659618378,0.05186882615089,-0.25164702534676
77,875016337,-1.09927654266357,0.26614058017731,15.99531936645508,-0.04009883850813,-0.18897095322609,9.83253383636475,1.29987108707428,0.10645275563002,-0.42456877231598
78,875024670,-1.09884417057037,0.26524215936661,15.99549770355225,-0.02690197527409,-0.18877780437469,9.84192466735840,1.36577653884888,0.04333928599954,-0.28281956911087
79,875033003,-1.09880316257477,0.26515957713127,15.99521064758301,-0.00356926862150,-0.20793314278126,9.85933589935303,1.32072114944458,0.14167232811451,-0.34467798471451
80,875041336,-1.09885883331299,0.26437750458717,15.99467086791992,-0.03939053788781,-0.16548819839954,9.87436485290527,1.30786263942719,0.05824676528573,-0.36937007308006
81,875049669,-1.09905910491943,0.26460927724838,15.99495410919189,-0.04666514694691,-0.17733328044415,9.87650966644287,1.29139292240143,0.17853121459484,-0.27636480331421
82,875058002,-1.09930312633514,0.26434823870659,15.99416160583496,-0.03585720062256,-0.18161068856716,9.85538768768311,1.28501498699188,0.12138585746288,-0.39283272624016
83,875066335,-1.09931862354279,0.26432597637177,15.99380302429199,-0.03924765065312,-0.18175373971462,9.86969280242920,1.31401014328003,0.14938221871853,-0.35377100110054
84,875074668,-1.09884583950043,0.26449495553970,15.99338626861572,-0.02971307560802,-0.15419383347034,9.86326122283936,1.37120676040649,0.17151290178299,-0.34695756435394
85,875083001,-1.09890472888947,0.26432573795319,15.99347686767578,-0.04334636405110,-0.18552328646183,9.85213851928711,1.30837512016296,0.13109365105629,-0.30057024955750
86,875091334,-1.09919250011444,0.26455768942833,15.99357128143311,-0.02885469235480,-0.16789866983891,9.82688236236572,1.27937972545624,0.17766033113003,-0.28248655796051
87,875099667,-1.09914648532867,0.26454704999924,15.99405479431152,-0.03950526565313,-0.18994373083115,9.86472797393799,1.32079803943634,0.14889554679394,-0.25410604476929
88,875108000,-1.09884798526764,0.26404428482056,15.99352645874023,-0.04420440644026,-0.19036577641964,9.85357189178467,1.35038244724274,0.09136597812176,-0.35533350706100
89,875116333,-1.09868788719177,0.26405689120293,15.99268627166748,-0.03340377658606,-0.18525147438049,9.87013626098633,1.33498823642731,0.15445384383202,-0.41317039728165
90,875124666,-1.09823155403137,0.26292240619659,15.99243259429932,-0.04677228257060,-0.17614592611790,9.85150432586670,1.36844062805176,0.01593205519021,-0.33266490697861
91,875132999,-1.09893321990967,0.26236784458160,15.99251937866211,-0.03641512244940,-0.19343432784081,9.83339214324951,1.23125052452087,0.08432205766439,-0.30179968476295
92,875141332,-1.09811401367188,0.26130375266075,15.99271774291992,-0.02348278276622,-0.18859185278416,9.87697410583496,1.41262483596802,0.02182332426310,-0.26681068539619
93,875149665,-1.09792697429657,0.26091033220291,15.99275112152100,-0.03484163805842,-0.17449359595776,9.85659503936768,1.33780574798584,0.10399378836155,-0.30733239650726
94,875157998,-1.09795916080475,0.26085326075554,15.99278926849365,-0.04600007459521,-0.17155377566814,9.86531448364258,1.31044995784760,0.14361901581287,-0.31273701786995
95,875166331,-1.09782493114471,0.26084274053574,15.99326896667480,-0.03868972882628,-0.19683192670345,9.83562374114990,1.33114624023438,0.14915168285370,-0.25359371304512
96,875174664,-1.09804069995880,0.26133984327316,15.99312686920166,-0.04572798684239,-0.16771985590458,9.87588119506836,1.28865218162537,0.21090759336948,-0.31014996767044
97,875182997,-1.09809267520905,0.26099768280983,15.99363422393799,-0.03511330485344,-0.16454400122166,9.85060214996338,1.30888736248016,0.10870680958033,-0.25133967399597
98,875191330,-1.09795761108398,0.26122680306435,15.99353885650635,-0.03567852079868,-0.21357671916485,9.85958480834961,1.33012163639069,0.17766034603119,-0.31222474575043
99,875199663,-1.09838056564331,0.26117661595345,15.99233531951904,-0.02685177326202,-0.18120297789574,9.85054492950439,1.26539444923401,0.14807590842247,-0.45592063665390
100,875207996,-1.09836041927338,0.26147904992104,15.99297142028809,-0.06572747230530,-0.16643950343132,9.88494968414307,1.31575191020966,0.18649724125862,-0.21962924301624
101,875216329,-1.09772551059723,0.26124501228333,15.99337959289551,-0.05820281058550,-0.19548718631268,9.87572193145752,1.39162123203278,0.12171883881092,-0.26235377788544
102,875224662,-1.09761464595795,0.26018074154854,15.99303531646729,-0.04140065610409,-0.18327729403973,9.86054420471191,1.32732951641083,0.02377001009881,-0.34892994165421
103,875232995,-1.09739995002747,0.26059859991074,15.99490642547607,-0.04313875734806,-0.17955069243908,9.84471607208252,1.34039282798767,0.19635872542858,-0.08471906930208
104,875241328,-1.09665644168854,0.26088359951973,15.99476623535156,-0.05435445532203,-0.19478622078896,9.85451507568359,1.40368556976318,0.18644601106644,-0.31493979692459
105,875249661,-1.09624695777893,0.26097819209099,15.99501609802246,-0.03898286446929,-0.16286309063435,9.85460186004639,1.36452162265778,0.16085739433765,-0.28041183948517
106,875257994,-1.09646952152252,0.26148074865341,15.99471187591553,-0.03531343489885,-0.18288388848305,9.85678291320801,1.28747391700745,0.21165043115616,-0.33924773335457
107,875266327,-1.09592008590698,0.26174780726433,15.99473190307617,-0.05739441141486,-0.21962088346481,9.85118103027344,1.38117063045502,0.18447369337082,-0.30804958939552
108,875274660,-1.09485960006714,0.26116266846657,15.99376583099365,-0.05718676745892,-0.15898624062538,9.87915039062500,1.44218385219574,0.08142764866352,-0.42415890097618
109,875282993,-1.09497082233429,0.26123687624931,15.99429893493652,-0.02934811450541,-0.16566699743271,9.86084461212158,1.30151045322418,0.16037070751190,-0.24803544580936
110,875291326,-1.09483087062836,0.26157784461975,15.99417877197266,-0.05193664878607,-0.21575836837292,9.85380077362061,1.33170962333679,0.19092848896980,-0.30881804227829
111,875299659,-1.09521818161011,0.26135343313217,15.99404430389404,-0.04414734616876,-0.18354910612106,9.86040878295898,1.26880109310150,0.12494623661041,-0.32848972082138
112,875307992,-1.09498751163483,0.26063045859337,15.99328804016113,-0.03440535441041,-0.17167538404465,9.87951946258545,1.34226274490356,0.06541875004768,-0.38530209660530
113,875316325,-1.09531486034393,0.26023846864700,15.99287319183350,-0.04911141842604,-0.18653899431229,9.85030174255371,1.27656221389771,0.10547941178083,-0.36104542016983
114,875324658,-1.09505021572113,0.26096621155739,15.99272441864014,-0.04218746721745,-0.19960008561611,9.85065937042236,1.34584867954254,0.23782815039158,-0.30290114879608
115,875332991,-1.09493875503540,0.26151415705681,15.99271011352539,-0.05112852156162,-0.18242610991001,9.83832740783691,1.32896876335144,0.21631218492985,-0.31109765172005
116,875341324,-1.09495961666107,0.26148295402527,15.99374198913574,-0.03778846934438,-0.18696816265583,9.87650966644287,1.31155121326447,0.14438742399216,-0.17585450410843
117,875349657,-1.09482848644257,0.26122650504112,15.99351501464844,-0.04371102154255,-0.16999445855618,9.89721679687500,1.33129990100861,0.12184690684080,-0.33896598219872
118,875357990,-1.09462833404541,0.26100373268127,15.99296283721924,-0.02735962346196,-0.16661831736565,9.88404178619385,1.33849740028381,0.12458762526512,-0.36460581421852
119,875366323,-1.09469771385193,0.26040834188461,15.99316787719727,-0.04512000456452,-0.20707482099533,9.85335731506348,1.30709433555603,0.07981394976377,-0.28848031163216
120,875374656,-1.09469258785248,0.26071792840958,15.99259567260742,-0.04198718816042,-0.19433559477329,9.86777591705322,1.31508600711823,0.18964777886868,-0.37733608484268
121,875382989,-1.09422385692596,0.26088616251945,15.99312019348145,-0.02389776706696,-0.17020905017853,9.86831855773926,1.37133502960205,0.16941256821156,-0.24844527244568
122,875391322,-1.09491300582886,0.26143717765808,15.99278545379639,-0.03268849104643,-0.21107324957848,9.84764099121094,1.23222398757935,0.21772100031376,-0.33374068140984
123,875399655,-1.09547758102417,0.26187971234322,15.99300956726074,-0.03896153718233,-0.20348407328129,9.86140251159668,1.24720835685730,0.20419669151306,-0.28476628661156
124,875407988,-1.09543573856354,0.26193195581436,15.99226284027100,-0.04127905517817,-0.13611145317554,9.87521457672119,1.31959414482117,0.15824472904205,-0.38361158967018
125,875416321,-1.09632897377014,0.26107373833656,15.99238586425781,-0.03493448346853,-0.19854861497879,9.88098049163818,1.20819795131683,0.04774492979050,-0.29890534281731
126,875424654,-1.09628736972809,0.26080429553986,15.99225997924805,-0.02715219184756,-0.21186721324921,9.88738918304443,1.31923568248749,0.11864514648914,-0.32139462232590
127,875432987,-1.09662580490112,0.26093965768814,15.99222755432129,-0.03793152794242,-0.16819195449352,9.86654567718506,1.27487170696259,0.16779884696007,-0.31450438499451
128,875441320,-1.09700250625610,0.26080596446991,15.99103069305420,-0.03390429541469,-0.16833500564098,9.87878513336182,1.26964652538300,0.13695931434631,-0.40604966878891
129,875449653,-1.09662187099457,0.26031932234764,15.99068546295166,-0.05346034839749,-0.18689663708210,9.87294769287109,1.36101233959198,0.09272352606058,-0.35461625456810
130,875457986,-1.09674632549286,0.26080358028412,15.98991012573242,-0.06248723715544,-0.17987254261971,9.86645984649658,1.30002486705780,0.21116374433041,-0.38586562871933
131,875466319,-1.09709942340851,0.26108118891716,15.98944950103760,-0.05544883757830,-0.19264036417007,9.84513759613037,1.27325797080994,0.18595933914185,-0.36634758114815
132,875474652,-1.09702539443970,0.26100257039070,15.98913478851318,-0.04084273427725,-0.19267612695694,9.86659622192383,1.32333374023438,0.14159548282623,-0.33235749602318
133,875482985,-1.09733808040619,0.26061514019966,15.98858642578125,-0.06067756563425,-0.16351398825645,9.87040805816650,1.27820146083832,0.10627345740795,-0.37859120965004
134,875491318,-1.09693348407745,0.26153969764709,15.98800086975098,-0.05290242657065,-0.18002274632454,9.84334182739258,1.36308693885803,0.26298132538795,-0.37746414542198
135,875499651,-1.09725558757782,0.26165670156479,15.98779296875000,-0.05836720019579,-0.20155280828476,9.85679626464844,1.27689516544342,0.16580092906952,-0.33619964122772
136,875507984,-1.09655499458313,0.26115554571152,15.98837375640869,-0.04698691144586,-0.16652536392212,9.87289142608643,1.39789688587189,0.08998280018568,-0.23686762154102
137,875516317,-1.09639334678650,0.26057150959969,15.98851203918457,-0.04652209207416,-0.18417854607105,9.85174655914307,1.33501386642456,0.07994201779366,-0.29549860954285
138,875524650,-1.09639513492584,0.26023480296135,15.98832511901855,-0.04410428553820,-0.20917059481144,9.88809108734131,1.31365168094635,0.11070473492146,-0.31967845559120
139,875532983,-1.09655797481537,0.26031047105789,15.98793792724609,-0.04652924463153,-0.18400688469410,9.87229633331299,1.29620838165283,0.16113914549351,-0.35707524418831
140,875541316,-1.09738934040070,0.26067894697189,15.98777770996094,-0.03318203985691,-0.15950123965740,9.85389995574951,1.21483194828033,0.19543662667274,-0.31803917884827
141,875549649,-1.09754097461700,0.26018884778023,15.98840427398682,-0.04032772779465,-0.18721851706505,9.87746810913086,1.29697668552399,0.08988033980131,-0.23671394586563
142,875557982,-1.09780812263489,0.26019373536110,15.98732471466064,-0.04193729534745,-0.18426437675953,9.85266113281250,1.28232538700104,0.15363416075706,-0.40653631091118
143,875566315,-1.09772276878357,0.26117011904716,15.98678874969482,-0.03566407412291,-0.19359169900417,9.85884189605713,1.32630515098572,0.27007648348808,-0.37264868617058
144,875574648,-1.09773898124695,0.26174375414848,15.98691558837891,-0.03653659299016,-0.21719609200954,9.85832881927490,1.31198680400848,0.21884801983833,-0.27964341640472
145,875582981,-1.09783089160919,0.26166552305222,15.98697662353516,-0.04838196933270,-0.18004420399666,9.84898471832275,1.30450737476349,0.14128811657429,-0.30400255322456
146,875591314,-1.09796547889709,0.26098990440369,15.98753643035889,-0.04821721091866,-0.19805508852005,9.84961605072021,1.29718172550201,0.06926089525223,-0.23663713037968
147,875599647,-1.09710562229156,0.26115030050278,15.98770618438721,-0.02420522086322,-0.22787527740002,9.87033653259277,1.41918241977692,0.16938693821430,-0.28942805528641
148,875607980,-1.09737241268158,0.26150056719780,15.98683357238770,-0.04145090654492,-0.15234126150608,9.86199569702148,1.28250479698181,0.19597452878952,-0.41719189286232
149,875616313,-1.09739089012146,0.26109832525253,15.98703670501709,-0.03777416422963,-0.15458008646965,9.85864162445068,1.31331872940063,0.10158605873585,-0.28681540489197
150,875624646,-1.09772849082947,0.26112335920334,15.98731136322021,-0.03803166747093,-0.21098025143147,9.87240409851074,1.27333474159241,0.15358296036720,-0.27380338311195
151,875632979,-1.09718763828278,0.26174959540367,15.98739337921143,-0.02396917715669,-0.20159572362900,9.83626747131348,1.38047909736633,0.22589194774628,-0.29885405302048
152,875641312,-1.09683978557587,0.26201269030571,15.98753833770752,-0.03896153718233,-0.15046720206738,9.85208988189697,1.35545408725739,0.18260386586189,-0.29096490144730
153,875649645,-1.09713709354401,0.26148220896721,15.98719501495361,-0.02896201796830,-0.19997201859951,9.88363265991211,1.28014826774597,0.08765190839767,-0.35320749878883
154,875657978,-1.09705185890198,0.26159518957138,15.98791217803955,-0.05529157444835,-0.20743958652020,9.83948516845703,1.32399976253510,0.16318827867508,-0.21437834203243
155,875666311,-1.09649133682251,0.26165407896042,15.98774623870850,-0.03762410953641,-0.18203984200954,9.85778903961182,1.38306605815887,0.15762999653816,-0.33089748024940
156,875674644,-1.09661293029785,0.26150810718536,15.98761177062988,-0.04130037501454,-0.19116689264774,9.86526679992676,1.29953825473785,0.13434667885303,-0.31944796442986
157,875682977,-1.09555077552795,0.26199337840080,15.98654651641846,-0.04295282065868,-0.18018011748791,9.87737560272217,1.44351577758789,0.21247006952763,-0.43814429640770
158,875691310,-1.09528863430023,0.26107844710350,15.98647117614746,-0.03993446752429,-0.19157457351685,9.83495044708252,1.34582304954529,0.04082909226418,-0.31660476326942
159,875699643,-1.09497249126434,0.25989636778831,15.98709964752197,-0.03466983139515,-0.22042916715145,9.82977294921875,1.35312318801880,0.00737689947709,-0.23942908644676
160,875707976,-1.09483110904694,0.26004472374916,15.98761844635010,-0.03441959246993,-0.18921414017677,9.86823940277100,1.33114612102509,0.16736340522766,-0.24639610946178
161,875716309,-1.09427165985107,0.25975471735001,15.98725318908691,-0.06625695526600,-0.17030918598175,9.88434028625488,1.38314282894135,0.11654476076365,-0.35476991534233
162,875724642,-1.09433627128601,0.25965881347656,15.98668670654297,-0.05069219693542,-0.20645965635777,9.86044406890869,1.30632591247559,0.14208215475082,-0.37864241003990
163,875732975,-1.09469687938690,0.25935575366020,15.98672771453857,-0.02474883571267,-0.21226777136326,9.84364986419678,1.27279675006866,0.11354789137840,-0.30605164170265
164,875741308,-1.09501659870148,0.25981372594833,15.98741722106934,-0.03831062838435,-0.17584548890591,9.85665321350098,1.27505099773407,0.20527246594429,-0.21499305963516
165,875749641,-1.09515905380249,0.26047593355179,15.98626613616943,-0.04656521230936,-0.18155346810818,9.85253906250000,1.29930770397186,0.23196251690388,-0.44818511605263
166,875757974,-1.09544372558594,0.26019525527954,15.98619079589844,-0.04153655841947,-0.19867736101151,9.84206199645996,1.28023791313171,0.11773581057787,-0.29704824090004
167,875766307,-1.09534895420074,0.25991475582123,15.98622894287109,-0.04986961930990,-0.19557303190231,9.88379859924316,1.32689416408539,0.11751810461283,-0.30679449439049
168,875774640,-1.09430980682373,0.25924086570740,15.98629856109619,-0.05103553459048,-0.19004388153553,9.85731124877930,1.43880283832550,0.07015738636255,-0.28292202949524
169,875782973,-1.09392118453979,0.25893437862396,15.98698329925537,-0.04868225008249,-0.17326331138611,9.82336425781250,1.36178076267242,0.11131945997477,-0.23028476536274
170,875791306,-1.09413158893585,0.26232281327248,15.98942661285400,-0.04788096621633,-0.19850571453571,9.86060333251953,1.29497885704041,0.15348048508167,-0.37234133481979
171,875799639,-1.09392595291138,0.26203700900078,15.98935222625732,-0.02983450703323,-0.20295476913452,9.86377716064453,1.34041845798492,0.11795355379581,-0.32021635770798
172,875807972,-1.09369862079620,0.26186439394951,15.98881721496582,-0.04131499305367,-0.19216111302376,9.87266063690186,1.34213471412659,0.13065822422504,-0.36857602000237
173,875816305,-1.09372484683990,0.26225289702415,15.98923015594482,-0.03533504530787,-0.16291315853596,9.85960769653320,1.31214034557343,0.19630748033524,-0.26155972480774
174,875824638,-1.09417927265167,0.26223498582840,15.98829841613770,-0.03795995935798,-0.18929284811020,9.84438705444336,1.26014339923859,0.15045800805092,-0.41066020727158
175,875832971,-1.09410178661346,0.26290339231491,15.98808288574219,-0.05685079470277,-0.19991481304169,9.82766246795654,1.32517802715302,0.23152706027031,-0.33479085564613
176,875841304,-1.09367978572845,0.26273384690285,15.98821640014648,-0.01310413889587,-0.15531682968140,9.84732437133789,1.36436772346497,0.13058136403561,-0.27613425254822
177,875849637,-1.09369456768036,0.26265680789948,15.98845195770264,-0.03988412022591,-0.16613909602165,9.87166881561279,1.31367731094360,0.14016109704971,-0.28445887565613
178,875857970,-1.09344470500946,0.26284351944923,15.98911762237549,-0.05032730102539,-0.19611665606499,9.86857128143311,1.34364581108093,0.17207641899586,-0.21647870540619
179,875866303,-1.09223103523254,0.26296511292458,15.98976993560791,-0.02835375070572,-0.18602399528027,9.84978103637695,1.46075415611267,0.16375178098679,-0.23253883421421
180,875874636,-1.09171414375305,0.26220649480820,15.98990154266357,-0.03353252634406,-0.16799882054329,9.86350536346436,1.37630414962769,0.05980924516916,-0.27641603350639
181,875882969,-1.09149086475372,0.26196455955505,15.99089717864990,-0.04363940656185,-0.18175375461578,9.85398674011230,1.34208357334137,0.11831215023994,-0.19191464781761
182,875891302,-1.09113299846649,0.26177674531937,15.99111366271973,-0.04645784944296,-0.20209641754627,9.86011409759521,1.35660672187805,0.12781502306461,-0.28673857450485
183,875899635,-1.09092128276825,0.26147183775902,15.99091243743896,-0.06346733123064,-0.17589555680752,9.86769580841064,1.34123802185059,0.11449561268091,-0.33497011661530
184,875907968,-1.09124708175659,0.26141655445099,15.99083900451660,-0.05148616433144,-0.18399257957935,9.87326240539551,1.27512788772583,0.14561693370342,-0.31742441654205
185,875916301,-1.09212446212769,0.26160758733749,15.99150466918945,-0.05572064593434,-0.16596026718616,9.87573719024658,1.20963203907013,0.17105185985565,-0.23235951364040
186,875924634,-1.09201133251190,0.26106795668602,15.99187850952148,-0.05184368789196,-0.19756153225899,9.86637496948242,1.32745778560638,0.08539786189795,-0.25717973709106
187,875932967,-1.09163427352905,0.26035460829735,15.99081134796143,-0.05207269638777,-0.18528008460999,9.88660907745361,1.36108911037445,0.06813386082649,-0.44144853949547
188,875941300,-1.09186279773712,0.26109179854393,15.99044609069824,-0.05152192711830,-0.17530903220177,9.87555789947510,1.28739702701569,0.23997978866100,-0.33148664236069
189,875949633,-1.09218859672546,0.26060459017754,15.99124336242676,-0.03250251710415,-0.20369866490364,9.86934947967529,1.27622914314270,0.09046947956085,-0.21640186011791
190,875957966,-1.09274172782898,0.26036694645882,15.99120140075684,-0.04290275275707,-0.19807653129101,9.85460758209229,1.24772059917450,0.12233358621597,-0.31107205152512
191,875966299,-1.09258413314819,0.26051372289658,15.99197673797607,-0.03001322783530,-0.20100204646587,9.85680484771729,1.33439898490906,0.16557040810585,-0.21727271378040
192,875974632,-1.09211838245392,0.26044866442680,15.99241352081299,-0.04623586311936,-0.19206099212170,9.86343574523926,1.36902952194214,0.14341410994530,-0.24800983071327
193,875982965,-1.09266877174377,0.26019650697708,15.99288463592529,-0.05562765896320,-0.16561692953110,9.85161781311035,1.24925744533539,0.11882442981005,-0.25543794035912
194,875991298,-1.09261608123779,0.26040157675743,15.99226188659668,-0.07388171553612,-0.19354878365993,9.85575962066650,1.32102847099304,0.17614910006523,-0.37198272347450
195,875999631,-1.09183561801910,0.26032853126526,15.99261474609375,-0.05738712847233,-0.18095262348652,9.84936618804932,1.40911591053009,0.14092950522900,-0.26842436194420
196,876007964,-1.09140121936798,0.26001343131065,15.99239826202393,-0.04951212555170,-0.20632374286652,9.85245323181152,1.36667299270630,0.11357350647449,-0.31219905614853
197,876016297,-1.09145462512970,0.26027539372444,15.99202728271484,-0.05547029525042,-0.16445101797581,9.85377120971680,1.30916917324066,0.18260386586189,-0.35610193014145
198,876024630,-1.09192287921906,0.26132625341415,15.99169635772705,-0.05301687121391,-0.17595992982388,9.85939979553223,1.25817131996155,0.27783760428429,-0.32398167252541
199,876032963,-1.09197187423706,0.26160222291946,15.99224281311035,-0.04868225008249,-0.19110965728760,9.87586593627930,1.30947649478912,0.18237332999706,-0.24473120272160
200,876041296,-1.09228718280792,0.26156541705132,15.99245071411133,-0.02611503005028,-0.18387813866138,9.84302711486816,1.27656221389771,0.14510463178158,-0.28374168276787
201,876049629,-1.09186124801636,0.26206755638123,15.99259757995605,-0.06462593376637,-0.16935071349144,9.84640312194824,1.36628890037537,0.21182972192764,-0.29344946146011
202,876057962,-1.09164476394653,0.26161965727806,15.99301147460938,-0.03496309742332,-0.19470754265785,9.82003784179688,1.33970129489899,0.09587407112122,-0.25364494323730
203,876066295,-1.09143149852753,0.26131990551949,15.99302482604980,-0.03876125440001,-0.19306237995625,9.85226154327393,1.34164798259735,0.11375281214714,-0.30945837497711
204,876074628,-1.09109652042389,0.26122751832008,15.99299716949463,-0.04514159262180,-0.17771238088608,9.86158847808838,1.35409629344940,0.14080144464970,-0.30172282457352
205,876082961,-1.09099757671356,0.26078510284424,15.99342060089111,-0.03997723758221,-0.18636731803417,9.88809680938721,1.32717597484589,0.09610461443663,-0.26245626807213
206,876091294,-1.09042167663574,0.26137691736221,15.99304485321045,-0.04326022788882,-0.18888512253761,9.86064624786377,1.38406515121460,0.22251084446907,-0.34093827009201
207,876099627,-1.09039020538330,0.26159039139748,15.99290847778320,-0.04159393161535,-0.17671097815037,9.84941387176514,1.31936359405518,0.17704559862614,-0.32705536484718
208,876107960,-1.09070789813995,0.26162648200989,15.99301147460938,-0.02852553687990,-0.17375686764717,9.89620113372803,1.27581942081451,0.15450507402420,-0.30100569128990
209,876116293,-1.09098947048187,0.26178187131882,15.99358463287354,-0.05077813938260,-0.19227556884289,9.84482097625732,1.28132641315460,0.16785007715225,-0.24222099781036
210,876124626,-1.09079909324646,0.26173511147499,15.99398803710938,-0.03547094762325,-0.17824885249138,9.85025119781494,1.33716571331024,0.14464360475540,-0.24888072907925
211,876132959,-1.08944511413574,0.26129505038261,15.99414157867432,-0.02192346379161,-0.17911434173584,9.84183979034424,1.47781324386597,0.09759023785591,-0.29537057876587
212,876141292,-1.08924245834351,0.26158985495567,15.99471664428711,-0.02725233137608,-0.18214714527130,9.85416412353516,1.33883059024811,0.18447373807430,-0.23981328308582
213,876149625,-1.08899533748627,0.26181110739708,15.99481964111328,-0.04139350354671,-0.18623141944408,9.84309196472168,1.34487545490265,0.17691753804684,-0.29913586378098
214,876157958,-1.08805954456329,0.26210933923721,15.99368190765381,-0.05753747001290,-0.19443573057652,9.84281253814697,1.42776310443878,0.18885375559330,-0.43563407659531
215,876166291,-1.08795869350433,0.26219835877419,15.99420261383057,-0.06409662216902,-0.19131709635258,9.87036514282227,1.32717573642731,0.16026826202869,-0.24946980178356
216,876174624,-1.08822059631348,0.26243191957474,15.99510097503662,-0.05081371217966,-0.17875669896603,9.85711193084717,1.28268408775330,0.17696873843670,-0.19813890755177
217,876182957,-1.08886516094208,0.26244115829468,15.99475097656250,-0.04155801609159,-0.19638130068779,9.85520839691162,1.23806405067444,0.15245592594147,-0.35425767302513
218,876191290,-1.08832204341888,0.26245126128197,15.99383926391602,-0.04137204214931,-0.20939947664738,9.86395645141602,1.37973630428314,0.15465874969959,-0.40709981322289
219,876199623,-1.08843111991882,0.26212927699089,15.99450683593750,-0.03029944188893,-0.17666806280613,9.85950756072998,1.30194592475891,0.11021804809570,-0.23207774758339
220,876207956,-1.08883905410767,0.26231917738914,15.99397945404053,-0.03588581457734,-0.17156094312668,9.85914993286133,1.26529192924500,0.17450977861881,-0.35400152206421
221,876216289,-1.08838462829590,0.26287746429443,15.99397087097168,-0.04779529571533,-0.17904996871948,9.84164714813232,1.37056648731232,0.21772101521492,-0.30933034420013
222,876224622,-1.08800768852234,0.26279199123383,15.99344825744629,-0.03281724452972,-0.19172480702400,9.85075950622559,1.35973167419434,0.14156988263130,-0.33919647336006
223,876232955,-1.08707892894745,0.26230710744858,15.99315071105957,-0.04154371097684,-0.19456447660923,9.86074447631836,1.42714822292328,0.09269791096449,-0.34916043281555
224,876241288,-1.08685541152954,0.26289787888527,15.99392986297607,-0.04886107146740,-0.18081670999527,9.83562374114990,1.34049534797668,0.22015434503555,-0.20595125854015
225,876249621,-1.08636927604675,0.26276600360870,15.99481391906738,-0.04012735188007,-0.16834215819836,9.84850788116455,1.37325608730316,0.13165718317032,-0.20666845142841
226,876257954,-1.08718311786652,0.26298680901527,15.99440765380859,-0.03389046713710,-0.17294146120548,9.87549972534180,1.21706032752991,0.17878735065460,-0.35205486416817
227,876266287,-1.08667516708374,0.26279661059380,15.99459362030029,-0.02722372114658,-0.21130928397179,9.85879898071289,1.37617611885071,0.12753327190876,-0.29035016894341
228,876274620,-1.08669364452362,0.26228323578835,15.99511814117432,-0.03988414630294,-0.18145334720612,9.86896419525146,1.31198668479919,0.08757506310940,-0.23463916778564
229,876282953,-1.08703136444092,0.26327341794968,15.99487590789795,-0.05285935848951,-0.17563089728355,9.85783481597900,1.27507662773132,0.27076807618141,-0.33842805027962
230,876291286,-1.08738255500793,0.26361337304115,15.99548721313477,-0.04473387822509,-0.17566667497158,9.86123847961426,1.27195167541504,0.18885374069214,-0.22165276110172
231,876299619,-1.08652067184448,0.26382002234459,15.99567699432373,-0.05335319787264,-0.19678185880184,9.87274646759033,1.41887485980988,0.17476589977741,-0.28848031163216
232,876307952,-1.08600091934204,0.26368552446365,15.99580478668213,-0.03815326467156,-0.18060213327408,9.86146736145020,1.37638092041016,0.13473087549210,-0.29455086588860
233,876316285,-1.08592593669891,0.26437500119209,15.99641609191895,-0.04294566810131,-0.18657475709915,9.85980033874512,1.32412767410278,0.23306390643120,-0.23615039885044
234,876324618,-1.08561789989471,0.26425376534462,15.99578380584717,-0.04349643737078,-0.19314822554588,9.84478664398193,1.35133016109467,0.13765089213848,-0.37718239426613
235,876332951,-1.08547770977020,0.26410394906998,15.99508380889893,-0.03278863057494,-0.19355593621731,9.86181068420410,1.33304154872894,0.13301473855972,-0.39585518836975
236,876341284,-1.08575630187988,0.26389190554619,15.99585247039795,-0.05456903949380,-0.17077413201332,9.88806152343750,1.28035318851471,0.12497185170650,-0.21094602346420
237,876349617,-1.08626699447632,0.26346287131310,15.99535942077637,-0.04469811543822,-0.19444288313389,9.84773349761963,1.25458526611328,0.09981867671013,-0.37152165174484
238,876357950,-1.08695852756500,0.26345902681351,15.99501895904541,-0.04295282065868,-0.20652402937412,9.86025142669678,1.23155796527863,0.15058608353138,-0.35154256224632
239,876366283,-1.08652174472809,0.26329150795937,15.99484539031982,-0.04242335632443,-0.19969308376312,9.87414360046387,1.36818420886993,0.13093996047974,-0.33266487717628
240,876374616,-1.08713817596436,0.26267489790916,15.99510478973389,-0.03220209851861,-0.16412198543549,9.83852767944336,1.24001073837280,0.07702200114727,-0.26688751578331
241,876382949,-1.08716976642609,0.26312166452408,15.99491977691650,-0.02603634819388,-0.19265466928482,9.82705497741699,1.31185865402222,0.20478580892086,-0.33197331428528
242,876391282,-1.08719670772552,0.26291546225548,15.99380493164062,-0.04237344115973,-0.21376271545887,9.85794067382812,1.31170499324799,0.12778942286968,-0.43619760870934
243,876399615,-1.08710801601410,0.26313319802284,15.99341392517090,-0.01480638515204,-0.17628896236420,9.86912059783936,1.32674050331116,0.17771156132221,-0.35679349303246
244,876407948,-1.08727073669434,0.26266667246819,15.99329471588135,-0.03988439217210,-0.17697563767433,9.89951896667480,1.29446637630463,0.09559231996536,-0.31506785750389
245,876416281,-1.08701741695404,0.26252967119217,15.99335289001465,-0.03634359687567,-0.19006533920765,9.84840583801270,1.34597671031952,0.13429544866085,-0.30451479554176
246,876424614,-1.08633172512054,0.26264509558678,15.99301433563232,-0.05466917902231,-0.18233312666416,9.84072399139404,1.39746153354645,0.16393108665943,-0.33840247988701
247,876432947,-1.08621621131897,0.26280599832535,15.99377918243408,-0.05357479304075,-0.20571576058865,9.83549499511719,1.32868719100952,0.16895148158073,-0.21988539397717
248,876441280,-1.08588778972626,0.26375359296799,15.99450683593750,-0.02503495104611,-0.18678218126297,9.84978675842285,1.35335373878479,0.26264840364456,-0.19450171291828
249,876449613,-1.08524703979492,0.26371553540230,15.99440097808838,-0.02798192203045,-0.18454334139824,9.85349178314209,1.39236426353455,0.14548884332180,-0.32462200522423
250,876457946,-1.08514320850372,0.26384335756302,15.99472332000732,-0.04248073324561,-0.20810481905937,9.84189033508301,1.32674038410187,0.16482760012150,-0.26109868288040
251,876466279,-1.08517813682556,0.26429608464241,15.99399089813232,-0.04988392814994,-0.17454367876053,9.84346389770508,1.31173050403595,0.20719352364540,-0.39698219299316
252,876474612,-1.08526241779327,0.26352885365486,15.99357604980469,-0.04513444006443,-0.16447247564793,9.87292575836182,1.30437922477722,0.05924572050571,-0.35205483436584
253,876482945,-1.08561861515045,0.26350009441376,15.99343490600586,-0.05715822800994,-0.18436454236507,9.82878017425537,1.27297616004944,0.14789658784866,-0.32782375812531
254,876491278,-1.08601284027100,0.26391014456749,15.99287414550781,-0.05496244505048,-0.20401339232922,9.82402229309082,1.26721298694611,0.20196823775768,-0.37323778867722
255,876499611,-1.08552908897400,0.26454928517342,15.99344825744629,-0.05012700334191,-0.17993693053722,9.88077354431152,1.37353765964508,0.22550772130489,-0.24106834828854
256,876507944,-1.08592307567596,0.26492467522621,15.99329471588135,-0.06117111444473,-0.17281268537045,9.88382720947266,1.26718735694885,0.19671733677387,-0.31765493750572
257,876516277,-1.08613288402557,0.26497811079025,15.99272727966309,-0.05604967847466,-0.19344148039818,9.84920024871826,1.29095757007599,0.15768124163151,-0.37866804003716
258,876524610,-1.08665168285370,0.26479628682137,15.99308300018311,-0.05727258324623,-0.20156711339951,9.84936618804932,1.25233125686646,0.12860907614231,-0.26240506768227
259,876532943,-1.08685219287872,0.26511046290398,15.99312877655029,-0.05014156177640,-0.18173226714134,9.84571552276611,1.29118800163269,0.18759866058826,-0.30587238073349
260,876541276,-1.08636558055878,0.26432842016220,15.99350452423096,-0.06014110520482,-0.15306368470192,9.84309864044189,1.37284600734711,0.05612078309059,-0.25774320960045
261,876549609,-1.08649897575378,0.26390048861504,15.99354171752930,-0.05745163559914,-0.21120199561119,9.87110900878906,1.29951262474060,0.09948568046093,-0.30733242630959
262,876557942,-1.08591651916504,0.26307347416878,15.99349594116211,-0.04760932177305,-0.20701043307781,9.84040927886963,1.38416779041290,0.05084425583482,-0.30582115054131
263,876566275,-1.08559393882751,0.26358613371849,15.99365615844727,-0.04469096288085,-0.16572421789169,9.86401367187500,1.35442936420441,0.21139428019524,-0.29029890894890
264,876574608,-1.08515501022339,0.26318296790123,15.99397087097168,-0.03977695852518,-0.17045225203037,9.85727596282959,1.36659610271454,0.10145797580481,-0.25822988152504
265,876582941,-1.08525300025940,0.26264396309853,15.99372482299805,-0.03164417669177,-0.20045126974583,9.84014415740967,1.30381584167480,0.08634558320045,-0.34288495779037
266,876591274,-1.08515715599060,0.26175847649574,15.99322319030762,-0.04421887546778,-0.17335629463196,9.87512207031250,1.32656133174896,0.04651544988155,-0.36796128749847
267,876599607,-1.08421683311462,0.26039865612984,15.99324989318848,-0.05011297017336,-0.19937115907669,9.87979125976562,1.42814731597900,-0.01197465509176,-0.31212225556374
268,876607940,-1.08418512344360,0.25982275605202,15.99381542205811,-0.05221564695239,-0.18696103990078,9.86006641387939,1.31787812709808,0.08076168596745,-0.23753362894058
269,876616273,-1.08441400527954,0.26003527641296,15.99309349060059,-0.05260200798512,-0.17591701447964,9.83897876739502,1.28890824317932,0.17653329670429,-0.39626497030258
270,876624606,-1.08495664596558,0.26013621687889,15.99309444427490,-0.01984198577702,-0.19042298197746,9.84435749053955,1.24866831302643,0.16270162165165,-0.30131304264069
271,876632939,-1.08549225330353,0.26062768697739,15.99284076690674,-0.02670856565237,-0.16872841119766,9.87468719482422,1.25130665302277,0.21029287576675,-0.34104073047638
272,876641272,-1.08517158031464,0.26106753945351,15.99239158630371,-0.02120102569461,-0.18732580542564,9.85120964050293,1.35317444801331,0.20447844266891,-0.33922210335732
273,876649605,-1.08590209484100,0.26129838824272,15.99236869812012,-0.03197320923209,-0.19275480508804,9.85089492797852,1.22818970680237,0.17764753103256,-0.31290349364281
274,876657938,-1.08626163005829,0.26170951128006,15.99258041381836,-0.04731593653560,-0.17530187964439,9.87838459014893,1.27067101001740,0.20053385198116,-0.27361124753952
275,876666271,-1.08570587635040,0.26200577616692,15.99200344085693,-0.03874677047133,-0.16912896931171,9.84669780731201,1.38240015506744,0.18785478174686,-0.37966698408127
276,876674604,-1.08560788631439,0.26293152570724,15.99233531951904,-0.03407614305615,-0.17861364781857,9.85392856597900,1.32571578025818,0.26088097691536,-0.25758951902390
277,876682937,-1.08592939376831,0.26259490847588,15.99280071258545,-0.04494846612215,-0.19487205147743,9.85087394714355,1.27684390544891,0.10798960924149,-0.25607830286026
278,876691270,-1.08624601364136,0.26279103755951,15.99328422546387,-0.03027083165944,-0.17288421094418,9.81561756134033,1.27581954002380,0.17353643476963,-0.24975158274174
279,876699603,-1.08692026138306,0.26292794942856,15.99302482604980,-0.04273794218898,-0.18073801696301,9.85003852844238,1.23493921756744,0.16874659061432,-0.34162986278534
280,876707936,-1.08672463893890,0.26279047131538,15.99335575103760,-0.03676573932171,-0.15630391240120,9.87814617156982,1.33778023719788,0.13252803683281,-0.27249705791473
281,876716269,-1.08647596836090,0.26232093572617,15.99402046203613,-0.03841076791286,-0.18205416202545,9.86120986938477,1.34467041492462,0.09313335269690,-0.23376829922199
282,876724602,-1.08625006675720,0.26233637332916,15.99418926239014,-0.04729459807277,-0.18517994880676,9.82618236541748,1.34162235260010,0.15260960161686,-0.27733811736107
283,876732935,-1.08659648895264,0.26271843910217,15.99483776092529,-0.03968397155404,-0.17176121473312,9.85914230346680,1.27369344234467,0.19477064907551,-0.23243635892868
284,876741268,-1.08749210834503,0.26247087121010,15.99544906616211,-0.02836817502975,-0.18198263645172,9.87112331390381,1.20625114440918,0.11992583423853,-0.23230828344822
285,876749601,-1.08786642551422,0.26233991980553,15.99515724182129,-0.04208732768893,-0.20413498580456,9.84901428222656,1.27113199234009,0.13583227992058,-0.34665027260780
286,876757934,-1.08761322498322,0.26213860511780,15.99495410919189,-0.04057092592120,-0.18714697659016,9.86268329620361,1.34484970569611,0.12658555805683,-0.30940717458725
287,876766267,-1.08772945404053,0.26237687468529,15.99451541900635,-0.05054215341806,-0.16834217309952,9.84884834289551,1.30186903476715,0.17919717729092,-0.36332511901855
288,876774600,-1.08817100524902,0.26260498166084,15.99428272247314,-0.04599278047681,-0.19175341725349,9.83337783813477,1.26111674308777,0.17958138883114,-0.32956552505493
289,876782933,-1.08827352523804,0.26351442933083,15.99454402923584,-0.04921143129468,-0.18749031424522,9.84211254119873,1.30322659015656,0.25785848498344,-0.27849078178406
290,876791266,-1.08795809745789,0.26311689615250,15.99496269226074,-0.05274506285787,-0.17150372266769,9.86249732971191,1.35225236415863,0.10348150879145,-0.25116038322449
291,876799599,-1.08808898925781,0.26256763935089,15.99571609497070,-0.04347497969866,-0.17694702744484,9.85973644256592,1.29920506477356,0.08275958895683,-0.22260048985481
292,876807932,-1.08829212188721,0.26269116997719,15.99632358551025,-0.03399030864239,-0.19972883164883,9.85035896301270,1.28985595703125,0.16480199992657,-0.23917289078236
293,876816265,-1.08838045597076,0.26216304302216,15.99551773071289,-0.03218082338572,-0.17965079843998,9.86672306060791,1.30568563938141,0.08826666325331,-0.40843182802200
294,876824598,-1.08850979804993,0.26193410158157,15.99631023406982,-0.03996293246746,-0.17552360892296,9.85658168792725,1.29833424091339,0.12102726101875,-0.20490105450153
295,876832931,-1.08800649642944,0.26207977533340,15.99554824829102,-0.03231654316187,-0.19580192863941,9.82739067077637,1.37666273117065,0.16910518705845,-0.40187454223633
296,876841264,-1.08766961097717,0.26167145371437,15.99506855010986,-0.01662320643663,-0.18188248574734,9.86877727508545,1.35519790649414,0.10404501855373,-0.36168578267097
297,876849597,-1.08726930618286,0.26138690114021,15.99528598785400,-0.03331794217229,-0.18455049395561,9.85754013061523,1.36344563961029,0.11495668441057,-0.28655925393105
298,876857930,-1.08827447891235,0.26045262813568,15.99558639526367,-0.01690238527954,-0.20043693482876,9.87177276611328,1.19323909282684,0.03877995163202,-0.26512011885643
299,876866263,-1.08815097808838,0.26033344864845,15.99588298797607,-0.04552069306374,-0.18102414906025,9.82349967956543,1.33030080795288,0.13498701155186,-0.27575004100800
300,876874596,-1.08831834793091,0.26048517227173,15.99620723724365,-0.03342511877418,-0.15994472801685,9.87083148956299,1.29428720474243,0.16849042475224,-0.26212322711945
301,876882929,-1.08897483348846,0.26009970903397,15.99651145935059,-0.05078518390656,-0.19379912316799,9.88213920593262,1.23678338527679,0.10371204465628,-0.27469989657402
302,876891262,-1.08892667293549,0.26022446155548,15.99685001373291,-0.05057775229216,-0.18603113293648,9.84704017639160,1.31967091560364,0.16457144916058,-0.25364494323730
303,876899595,-1.08855295181274,0.26061061024666,15.99641609191895,-0.04155103117228,-0.18588092923164,9.85651588439941,1.36096119880676,0.19728085398674,-0.36158335208893
304,876907928,-1.08886551856995,0.26024177670479,15.99574661254883,-0.03656533360481,-0.19877035915852,9.87993621826172,1.27730500698090,0.10878364741802,-0.37654203176498
305,876916261,-1.08892655372620,0.25994160771370,15.99534702301025,-0.02951263077557,-0.17638911306858,9.85109519958496,1.30834949016571,0.11572510749102,-0.36058437824249
306,876924594,-1.08934128284454,0.25957417488098,15.99490261077881,-0.03806027770042,-0.17317748069763,9.84325599670410,1.26465153694153,0.10701627284288,-0.36168578267097
307,876932927,-1.08973991870880,0.26027181744576,15.99478816986084,-0.02508502081037,-0.19843417406082,9.84855651855469,1.26782774925232,0.23393480479717,-0.32357180118561
308,876941260,-1.08937811851501,0.26011961698532,15.99489307403564,-0.03828903287649,-0.19206099212170,9.82901573181152,1.35758018493652,0.13296350836754,-0.28783997893333
309,876949593,-1.08925700187683,0.26001539826393,15.99528598785400,-0.02463439106941,-0.15870012342930,9.86989307403564,1.32978856563568,0.13788139820099,-0.26348081231117
310,876957926,-1.08878278732300,0.25990608334541,15.99474239349365,-0.03713772818446,-0.19621677696705,9.87125778198242,1.37246191501617,0.13744598627090,-0.35597383975983
311,876966259,-1.08839786052704,0.25978857278824,15.99467754364014,-0.04632896557450,-0.20422796905041,9.85023689270020,1.36137115955353,0.13775336742401,-0.32077988982201
312,876974592,-1.08855068683624,0.26020950078964,15.99378967285156,-0.03511330485344,-0.17244789004326,9.83635330200195,1.29628515243530,0.20222437381744,-0.39168006181717
313,876982925,-1.08961629867554,0.26046040654182,15.99371814727783,-0.03922618925571,-0.19575184583664,9.85156726837158,1.18770647048950,0.18083648383617,-0.31885880231857
314,876991258,-1.09024596214294,0.26074182987213,15.99336814880371,-0.03965536132455,-0.18839873373508,9.86379146575928,1.23937022686005,0.18578003346920,-0.34595865011215
315,876999591,-1.09009635448456,0.26088464260101,15.99301815032959,-0.03142243996263,-0.19112396240234,9.83445072174072,1.33393812179565,0.16838797926903,-0.35254150629044
316,877007924,-1.09006166458130,0.26088732481003,15.99345493316650,-0.04682251065969,-0.17976525425911,9.87522220611572,1.31821095943451,0.14920291304588,-0.24357855319977
317,877016257,-1.09039306640625,0.26027315855026,15.99316310882568,-0.05198670923710,-0.18726858496666,9.85426521301270,1.27566564083099,0.07853323966265,-0.34798222780228
318,877024590,-1.09062850475311,0.26036199927330,15.99302673339844,-0.04919725283980,-0.19272619485855,9.84234046936035,1.28639805316925,0.16134408116341,-0.31811597943306
319,877032923,-1.09074771404266,0.26029935479164,15.99330997467041,-0.05903968960047,-0.18782649934292,9.84629440307617,1.30130565166473,0.14318355917931,-0.27644160389900
320,877041256,-1.09076333045959,0.26001381874084,15.99329471588135,-0.06443280726671,-0.18729719519615,9.88316917419434,1.31239652633667,0.11657036095858,-0.29660004377365
321,877049589,-1.09035646915436,0.26000320911407,15.99326419830322,-0.05524125695229,-0.15149006247520,9.84994506835938,1.36426532268524,0.14879308640957,-0.31499102711678
322,877057922,-1.08985221385956,0.25938650965691,15.99348258972168,-0.04985531419516,-0.18563772737980,9.83801269531250,1.37504887580872,0.07609988749027,-0.27469986677170
323,877066255,-1.09066331386566,0.25920948386192,15.99373817443848,-0.04300265386701,-0.22560781240463,9.85603237152100,1.21790575981140,0.12881399691105,-0.28066799044609
324,877074588,-1.09158134460449,0.25849524140358,15.99361038208008,-0.02818220108747,-0.17161816358566,9.88197422027588,1.20471417903900,0.06482962518930,-0.32070299983025
325,877082921,-1.09219896793365,0.25781390070915,15.99356460571289,-0.05267353728414,-0.18033032119274,9.83731174468994,1.24157309532166,0.06885106116533,-0.31873074173927
326,877091254,-1.09217715263367,0.25815486907959,15.99317646026611,-0.05510550364852,-0.20354844629765,9.86462879180908,1.31672525405884,0.19348993897438,-0.34347409009933
327,877099587,-1.09211206436157,0.25815716385841,15.99335575103760,-0.03110056184232,-0.18996520340443,9.83482265472412,1.32307767868042,0.14920292794704,-0.29127228260040
328,877107920,-1.09221494197845,0.25744637846947,15.99296855926514,-0.03032805398107,-0.15445134043694,9.88104438781738,1.30256068706512,0.06672508269548,-0.35274645686150
329,877116253,-1.09147405624390,0.25695770978928,15.99258422851562,-0.02882595732808,-0.19011540710926,9.87746810913086,1.40455651283264,0.09259545803070,-0.35853520035744
330,877124586,-1.09123086929321,0.25675377249718,15.99256706237793,-0.03941931575537,-0.20914912223816,9.84179019927979,1.34318494796753,0.12725150585175,-0.30098006129265
331,877132919,-1.09022569656372,0.25726318359375,15.99253463745117,-0.04509136825800,-0.17155377566814,9.84927272796631,1.43642055988312,0.21165041625500,-0.31337735056877
332,877141252,-1.09030675888062,0.25765913724899,15.99310493469238,-0.03059997037053,-0.19761158525944,9.87065696716309,1.30460977554321,0.19746012985706,-0.23548446595669
333,877149585,-1.09053730964661,0.25796329975128,15.99398612976074,-0.02700198255479,-0.20309782028198,9.84751224517822,1.28708958625793,0.18419197201729,-0.20582319796085
334,877157918,-1.09102773666382,0.25851690769196,15.99434661865234,-0.02822488918900,-0.17398573458195,9.85897922515869,1.25586605072021,0.21603046357632,-0.26040711998940
335,877166251,-1.09154689311981,0.25931975245476,15.99485683441162,-0.02102914080024,-0.18231879174709,9.84599685668945,1.25276660919189,0.24620404839516,-0.24872705340385
336,877174584,-1.09161555767059,0.25902894139290,15.99440097808838,-0.03590727224946,-0.20572291314602,9.85650348663330,1.30696642398834,0.11621177196503,-0.36230054497719
337,877182917,-1.09124135971069,0.25828123092651,15.99412250518799,-0.04334622994065,-0.15579606592655,9.85509395599365,1.36024391651154,0.06160223111510,-0.34706005454063
338,877191250,-1.09061276912689,0.25867030024529,15.99430561065674,-0.04646486788988,-0.20339824259281,9.83840656280518,1.38995647430420,0.19728082418442,-0.27513527870178
339,877199583,-1.09058094024658,0.25811490416527,15.99465751647949,-0.03744513168931,-0.20463567972183,9.86461448669434,1.31908190250397,0.08388661593199,-0.27055037021637
340,877207916,-1.09022390842438,0.25853082537651,15.99435329437256,-0.03273856267333,-0.15842115879059,9.86840534210205,1.35770821571350,0.20163525640965,-0.34554886817932
341,877216249,-1.09106361865997,0.25878643989563,15.99393653869629,-0.04748026654124,-0.16973693668842,9.86040306091309,1.21496009826660,0.18198913335800,-0.36002087593079
342,877224582,-1.09038448333740,0.25866234302521,15.99354934692383,-0.05829567089677,-0.20660987496376,9.84841346740723,1.39618074893951,0.13652387261391,-0.35210612416267
343,877232915,-1.09037601947784,0.25869977474213,15.99317646026611,-0.01976330578327,-0.16970120370388,9.83757686614990,1.31682777404785,0.15545280277729,-0.35589697957039
344,877241248,-1.09096443653107,0.25923764705658,15.99277877807617,-0.03959798812866,-0.14945863187313,9.86143875122070,1.24408328533173,0.21626096963882,-0.34859690070152
345,877249581,-1.09089899063110,0.25942766666412,15.99178695678711,-0.04437623918056,-0.21322624385357,9.89309692382812,1.32415342330933,0.17540627717972,-0.43012702465057
346,877257914,-1.09131360054016,0.25904256105423,15.99138355255127,-0.04391130432487,-0.18616704642773,9.85814857482910,1.26442122459412,0.10530012845993,-0.34682959318161
347,877266247,-1.09221565723419,0.25997877120972,15.99116039276123,-0.02985568344593,-0.17647489905357,9.88857746124268,1.20755743980408,0.26308378577232,-0.33502137660980
348,877274580,-1.09254956245422,0.26069080829620,15.99079132080078,-0.04035634174943,-0.19918522238731,9.86911392211914,1.27420568466187,0.23749518394470,-0.34096387028694
349,877282913,-1.09230911731720,0.26085558533669,15.99067020416260,-0.03550671413541,-0.18166075646877,9.85935020446777,1.34454226493835,0.17112869024277,-0.32457074522972
350,877291246,-1.09243106842041,0.26051554083824,15.99069595336914,-0.03572845086455,-0.19056604802608,9.85678195953369,1.29966616630554,0.10993627458811,-0.30338779091835
351,877299579,-1.09212088584900,0.26049295067787,15.99143981933594,-0.05746594071388,-0.20963552594185,9.85093116760254,1.35235476493835,0.14579623937607,-0.22208821773529
352,877307912,-1.09164369106293,0.25985819101334,15.99192333221436,-0.07237235456705,-0.16636084020138,9.86041736602783,1.37110435962677,0.07392268627882,-0.24347610771656
353,877316245,-1.09163296222687,0.25889042019844,15.99195766448975,-0.05007719621062,-0.17508727312088,9.85621547698975,1.31682777404785,0.03388763219118,-0.30961206555367
354,877324578,-1.09127068519592,0.25883385539055,15.99231815338135,-0.05804532021284,-0.22005006670952,9.87083721160889,1.35773372650146,0.14267128705978,-0.25820425152779
355,877332911,-1.09052217006683,0.25865450501442,15.99257373809814,-0.04349630326033,-0.18382807075977,9.86233425140381,1.40514564514160,0.12868592143059,-0.28030937910080
356,877341244,-1.09050095081329,0.25880900025368,15.99221897125244,-0.03031391091645,-0.15455862879753,9.85077953338623,1.31751930713654,0.17077007889748,-0.35569202899933
357,877349577,-1.09026706218719,0.25925487279892,15.99231815338135,-0.04966919869184,-0.20702473819256,9.85915851593018,1.34328722953796,0.20299279689789,-0.29954564571381
358,877357910,-1.08992195129395,0.25966852903366,15.99103069305420,-0.04348907247186,-0.19276911020279,9.85427951812744,1.35591506958008,0.20468334853649,-0.44780087471008
359,877366243,-1.09026622772217,0.26013869047165,15.99135112762451,-0.03740233555436,-0.15606787800789,9.84620189666748,1.27415430545807,0.20522122085094,-0.27208721637726
360,877374576,-1.09086275100708,0.26048028469086,15.99160385131836,-0.04421887546778,-0.20414213836193,9.85299110412598,1.24270033836365,0.19085167348385,-0.27001246809959
361,877382909,-1.09109866619110,0.26045998930931,15.99092769622803,-0.05203675851226,-0.19772604107857,9.87110328674316,1.28742253780365,0.14968958497047,-0.39262777566910
362,877391242,-1.09168291091919,0.26013499498367,15.99094676971436,-0.04264524951577,-0.17097440361977,9.85891342163086,1.24421143531799,0.11290753632784,-0.31012433767319
363,877399575,-1.09154915809631,0.26003518700600,15.99155139923096,-0.04055673256516,-0.19605942070484,9.87699508666992,1.33109498023987,0.13716422021389,-0.24058173596859
364,877407908,-1.09123015403748,0.25956004858017,15.99108123779297,-0.04925447702408,-0.18538023531437,9.85176753997803,1.35263657569885,0.09385055303574,-0.35804861783981
365,877416241,-1.09140741825104,0.25960588455200,15.99148082733154,-0.03318203985691,-0.15524530410767,9.86871337890625,1.29392862319946,0.15650297701359,-0.26314783096313
366,877424574,-1.09127962589264,0.25959882140160,15.99189758300781,-0.03856097534299,-0.18849171698093,9.84838485717773,1.32953262329102,0.14861379563808,-0.25244110822678
367,877432907,-1.09095859527588,0.25970399379730,15.99215888977051,-0.04102870821953,-0.21590855717659,9.85985755920410,1.35412192344666,0.16183072328568,-0.27884936332703
368,877441240,-1.09054887294769,0.25955033302307,15.99197959899902,-0.05607828870416,-0.16656109690666,9.86854171752930,1.36352252960205,0.13350138068199,-0.31230154633522
369,877449573,-1.09081339836121,0.26018235087395,15.99199199676514,-0.04515589773655,-0.17838475108147,9.80796432495117,1.28373408317566,0.22607120871544,-0.30779343843460
370,877457906,-1.09028339385986,0.25998207926750,15.99230384826660,-0.04528464749455,-0.18701823055744,9.85881328582764,1.37791776657104,0.12497185170650,-0.26391628384590
371,877466239,-1.08967947959900,0.25944596529007,15.99252986907959,-0.04125030711293,-0.16299183666706,9.84674072265625,1.38772785663605,0.08593575656414,-0.28553465008736
372,877474572,-1.08871400356293,0.25977653264999,15.99261856079102,-0.03859674185514,-0.17344214022160,9.84447956085205,1.43017077445984,0.19097971916199,-0.26591417193413
373,877482905,-1.08815586566925,0.25978809595108,15.99331855773926,-0.03239522501826,-0.17618882656097,9.85050201416016,1.38255393505096,0.14922854304314,-0.22582788765430
374,877491238,-1.08861196041107,0.25960162281990,15.99319171905518,-0.03363982215524,-0.19525830447674,9.86113071441650,1.25914454460144,0.12932626903057,-0.31009873747826
375,877499571,-1.08846032619476,0.26059040427208,15.99322605133057,-0.05384660139680,-0.17661799490452,9.86547279357910,1.33345150947571,0.26894947886467,-0.30553939938545
376,877507904,-1.08781945705414,0.26049897074699,15.99341392517090,-0.03914751112461,-0.18961471319199,9.83450126647949,1.39144206047058,0.13870108127594,-0.29104176163673
377,877516237,-1.08697664737701,0.26022562384605,15.99319171905518,-0.03896885365248,-0.17035925388336,9.85969924926758,1.41685140132904,0.11849144101143,-0.33781334757805
378,877524570,-1.08655297756195,0.26073008775711,15.99260425567627,-0.02120818011463,-0.18293395638466,9.86565876007080,1.36528992652893,0.21364831924438,-0.37561994791031
379,877532903,-1.08694505691528,0.26063558459282,15.99372863769531,-0.05563481152058,-0.19148875772953,9.87567996978760,1.26803278923035,0.13580667972565,-0.17618750035763
380,877541236,-1.08656394481659,0.26002961397171,15.99326419830322,-0.03597880154848,-0.17807717621326,9.86744022369385,1.36039769649506,0.07986518740654,-0.36347880959511
381,877549569,-1.08627200126648,0.26056492328644,15.99282455444336,-0.04664368927479,-0.16040965914726,9.85562324523926,1.35056173801422,0.21510833501816,-0.36347877979279
382,877557902,-1.08647584915161,0.25993323326111,15.99260330200195,-0.04275254160166,-0.18241895735264,9.88406276702881,1.29075241088867,0.07458864897490,-0.32170194387436
383,877566235,-1.08709502220154,0.25945782661438,15.99173736572266,-0.04293136298656,-0.17698279023170,9.84229755401611,1.24152195453644,0.09525933861732,-0.41665396094322
384,877574568,-1.08721601963043,0.25935024023056,15.99205303192139,-0.05752305313945,-0.16901452839375,9.86453723907471,1.29971742630005,0.13790702819824,-0.25203126668930
385,877582901,-1.08641600608826,0.25883886218071,15.99189758300781,-0.05419709160924,-0.17943622171879,9.86832714080811,1.41162610054016,0.08975227922201,-0.33187082409859
386,877591234,-1.08648884296417,0.25912883877754,15.99181556701660,-0.04533471912146,-0.18666774034500,9.85914230346680,1.30553197860718,0.18475548923016,-0.31739884614944
387,877599567,-1.08637714385986,0.25928917527199,15.99220466613770,-0.02406216412783,-0.19440712034702,9.84509468078613,1.32863593101501,0.17033466696739,-0.26491522789001
388,877607900,-1.08670091629028,0.25952708721161,15.99145412445068,-0.03424083441496,-0.21582987904549,9.87083625793457,1.27584493160248,0.18045227229595,-0.39803242683411
389,877616233,-1.08701777458191,0.25946718454361,15.99183273315430,-0.04182278737426,-0.17754070460796,9.87477016448975,1.27743315696716,0.14192846417427,-0.26509451866150
390,877624566,-1.08712780475616,0.25852009654045,15.99133396148682,-0.03874694928527,-0.17382839322090,9.85210418701172,1.30112624168396,0.03957399353385,-0.37182903289795
391,877632899,-1.08737123012543,0.25851845741272,15.99102687835693,-0.04075689986348,-0.19533698260784,9.83292770385742,1.28644931316376,0.15058608353138,-0.34834077954292
392,877641232,-1.08707690238953,0.25899463891983,15.99058628082275,-0.03749520331621,-0.16359266638756,9.85070896148682,1.35004949569702,0.20934514701366,-0.36086612939835
393,877649565,-1.08712220191956,0.25981312990189,15.99042892456055,-0.04594255983829,-0.15136845409870,9.84479522705078,1.31019377708435,0.24858614802361,-0.32874590158463
394,877657898,-1.08720815181732,0.25990670919418,15.99016666412354,-0.04539909586310,-0.19826249778271,9.84595966339111,1.30460977554321,0.16208687424660,-0.31696334481239
395,877666231,-1.08686280250549,0.25945925712585,15.98977661132812,-0.06108528003097,-0.19804792106152,9.84347057342529,1.35711896419525,0.09728286415339,-0.36050751805305
396,877674564,-1.08693194389343,0.25966665148735,15.98971557617188,-0.04758056998253,-0.17203302681446,9.84789943695068,1.30622351169586,0.17579050362110,-0.31365913152695
397,877682897,-1.08645308017731,0.26044338941574,15.98999023437500,-0.03668693080544,-0.18998666107655,9.86711788177490,1.37271809577942,0.24292542040348,-0.27651846408844
398,877691230,-1.08633816242218,0.26067763566971,15.98926448822021,-0.04133610427380,-0.20329093933105,9.87030220031738,1.32881522178650,0.18147686123848,-0.38681337237358
399,877699563,-1.08614385128021,0.26053202152252,15.98860263824463,-0.03698734939098,-0.18853463232517,9.87500762939453,1.33956038951874,0.13328367471695,-0.39087319374084
400,877707896,-1.08643150329590,0.26097357273102,15.98809337615967,-0.02193776890635,-0.18649607896805,9.84536647796631,1.27980256080627,0.20508038997650,-0.36505410075188
401,877716229,-1.08672809600830,0.26141357421875,15.98813629150391,-0.04397554323077,-0.18485093116760,9.86585330963135,1.27955913543701,0.20363317430019,-0.30546253919601
402,877724562,-1.08649170398712,0.26149907708168,15.98792552947998,-0.04926162958145,-0.19225411117077,9.84950733184814,1.34326159954071,0.16070371866226,-0.32295706868172
403,877732895,-1.08576703071594,0.26127019524574,15.98860263824463,-0.03677265346050,-0.19326981902122,9.86531639099121,1.40194380283356,0.12210305035114,-0.23138618469238
404,877741228,-1.08570718765259,0.26166608929634,15.98881912231445,-0.05238026753068,-0.17985823750496,9.82741928100586,1.32133579254150,0.19720397889614,-0.27188229560852
405,877749561,-1.08591520786285,0.26166832447052,15.98849296569824,-0.04175814241171,-0.17552362382412,9.85610389709473,1.29103422164917,0.15107275545597,-0.34939095377922
406,877757894,-1.08650028705597,0.26159042119980,15.98844814300537,-0.04861072078347,-0.19509379565716,9.85920715332031,1.24390399456024,0.14318355917931,-0.31857702136040
407,877766227,-1.08598279953003,0.26112303137779,15.98833560943604,-0.05009835958481,-0.21190299093723,9.86216259002686,1.37786638736725,0.09426037967205,-0.32505741715431
408,877774560,-1.08512246608734,0.26095426082611,15.98909759521484,-0.05673635005951,-0.19501511752605,9.86702537536621,1.41713309288025,0.12878836691380,-0.21706782281399
409,877782893,-1.08564567565918,0.26060038805008,15.98938083648682,-0.04892520233989,-0.18636018037796,9.87480163574219,1.25251042842865,0.10640152543783,-0.27936166524887
410,877791226,-1.09152925014496,0.26081943511963,15.98214435577393,-0.04785251989961,-0.20567999780178,9.83745479583740,1.29556787014008,0.02656196057796,-0.27126756310463
411,877799559,-1.09148228168488,0.26050564646721,15.98287487030029,-0.04728754609823,-0.18743309378624,9.85363388061523,1.32074677944183,0.11021804809570,-0.22534123063087
412,877807892,-1.09150040149689,0.26025700569153,15.98296356201172,-0.05961179360747,-0.19293363392353,9.85869884490967,1.31247341632843,0.12156514823437,-0.28007885813713
413,877816225,-1.09149706363678,0.26018753647804,15.98299312591553,-0.06596351414919,-0.18871346116066,9.86054420471191,1.31662297248840,0.14133934676647,-0.30740925669670
414,877824558,-1.09142732620239,0.25952675938606,15.98227787017822,-0.04586403071880,-0.17267678678036,9.85045909881592,1.32346189022064,0.07248828560114,-0.37638837099075
415,877832891,-1.09123516082764,0.25944694876671,15.98193264007568,-0.05297395586967,-0.19948562979698,9.83939361572266,1.33916342258453,0.14262004196644,-0.35225975513458
416,877841224,-1.09073400497437,0.25962299108505,15.98162174224854,-0.04699417948723,-0.19236139953136,9.88193130493164,1.37504899501801,0.17194834351540,-0.34662464261055
417,877849557,-1.09115242958069,0.26036313176155,15.98184680938721,-0.04890398681164,-0.17121760547161,9.83819198608398,1.26585555076599,0.23816114664078,-0.28238412737846
418,877857890,-1.09066712856293,0.26068326830864,15.98162555694580,-0.04898266866803,-0.19166758656502,9.82884979248047,1.37276923656464,0.18957094848156,-0.32848972082138
419,877866223,-1.09082281589508,0.25958141684532,15.98202514648438,-0.03709476441145,-0.18914259970188,9.84573650360107,1.29695105552673,0.01864716038108,-0.26596537232399
420,877874556,-1.09091532230377,0.25984117388725,15.98162174224854,-0.04028481245041,-0.16706895828247,9.84776973724365,1.30440485477448,0.18099018931389,-0.34898114204407
421,877882889,-1.09142053127289,0.26008883118629,15.98160934448242,-0.02235263399780,-0.18564487993717,9.84177589416504,1.25555849075317,0.18086209893227,-0.31143066287041
422,877891222,-1.09116077423096,0.26007041335106,15.98154449462891,-0.04607861489058,-0.19831256568432,9.84510898590088,1.34582304954529,0.14892114698887,-0.30520638823509
423,877899555,-1.09121847152710,0.25992804765701,15.98119449615479,-0.06004080176353,-0.20361283421516,9.84260654449463,1.30934858322144,0.13401368260384,-0.35305380821228
424,877907888,-1.09162533283234,0.26008105278015,15.98193264007568,-0.03111467882991,-0.17304871976376,9.87769126892090,1.26541996002197,0.16718411445618,-0.21309764683247
425,877916221,-1.09199035167694,0.26033282279968,15.98191928863525,-0.04671521857381,-0.19206099212170,9.83685398101807,1.27261745929718,0.18081086874008,-0.31055977940559
426,877924554,-1.09119832515717,0.25960451364517,15.98193931579590,-0.03787415474653,-0.18985792994499,9.83410167694092,1.40965378284454,0.06219135969877,-0.30461728572845
427,877932887,-1.09082782268524,0.25992631912231,15.98232555389404,-0.03757388517261,-0.18183957040310,9.86506557464600,1.36001336574554,0.18777795135975,-0.26424923539162
428,877941220,-1.09060525894165,0.26004484295845,15.98229789733887,-0.04736626893282,-0.18282665312290,9.86969852447510,1.34141743183136,0.16603146493435,-0.30871555209160
429,877949553,-1.09072673320770,0.25996151566505,15.98182296752930,-0.03684429451823,-0.17101016640663,9.88090133666992,1.30181801319122,0.14000742137432,-0.36760270595551
430,877957886,-1.09117388725281,0.26074326038361,15.98112678527832,-0.03735214471817,-0.17160385847092,9.86991500854492,1.26127052307129,0.24617837369442,-0.37810450792313
431,877966219,-1.09052753448486,0.26071611046791,15.98181819915771,-0.05342458561063,-0.19158889353275,9.87590885162354,1.39305567741394,0.14584743976593,-0.22818437218666
432,877974552,-1.09069132804871,0.26136225461960,15.98165893554688,-0.03483434394002,-0.20189614593983,9.85015106201172,1.29513251781464,0.22950354218483,-0.33883789181709
433,877982885,-1.09060227870941,0.26116651296616,15.98165035247803,-0.04402574896812,-0.17072404921055,9.86364173889160,1.32689416408539,0.12712344527245,-0.31201979517937
434,877991218,-1.09048604965210,0.26121369004250,15.98223972320557,-0.05687236413360,-0.16179729998112,9.85941314697266,1.32845664024353,0.15458190441132,-0.23353777825832
435,877999551,-1.09013998508453,0.26187872886658,15.98247241973877,-0.05460480228066,-0.19537989795208,9.83751201629639,1.35742640495300,0.22881194949150,-0.28066799044609
436,878007884,-1.08931899070740,0.26222723722458,15.98199081420898,-0.05638585984707,-0.17327761650085,9.83426475524902,1.41354715824127,0.19423273205757,-0.36035385727882
437,878016217,-1.08947229385376,0.26195514202118,15.98212718963623,-0.04292421042919,-0.19007249176502,9.83327770233154,1.29771935939789,0.11779986321926,-0.29426911473274
438,878024550,-1.08973932266235,0.26247715950012,15.98312950134277,-0.06815236806870,-0.18073087930679,9.82105922698975,1.28186440467834,0.21098446846008,-0.18425601720810
439,878032883,-1.08989906311035,0.26355344057083,15.98276233673096,-0.04960496723652,-0.19561594724655,9.85389995574951,1.29702794551849,0.27940005064011,-0.35343801975250
440,878041216,-1.08986425399780,0.26271098852158,15.98271751403809,-0.04647202044725,-0.18481515347958,9.85820579528809,1.31895387172699,0.05028074234724,-0.31176367402077
441,878049549,-1.08988535404205,0.26371538639069,15.98297786712646,-0.03738062828779,-0.17347788810730,9.87014484405518,1.31365168094635,0.26961544156075,-0.27667218446732
442,878057882,-1.09019637107849,0.26365867257118,15.98322010040283,-0.05054914206266,-0.18397112190723,9.85324859619141,1.27717697620392,0.14405445754528,-0.26722049713135
443,878066215,-1.09020376205444,0.26366844773293,15.98398494720459,-0.05456903949380,-0.19668887555599,9.87984275817871,1.31529104709625,0.14922854304314,-0.21742644906044
444,878074548,-1.08997035026550,0.26399827003479,15.98378658294678,-0.05192964151502,-0.17513020336628,9.86771869659424,1.34249329566956,0.19056990742683,-0.34549763798714
445,878082881,-1.09014189243317,0.26317799091339,15.98437213897705,-0.06077770516276,-0.16008062660694,9.85830593109131,1.29515814781189,0.05066496133804,-0.24257963895798
446,878091214,-1.09023201465607,0.26366561651230,15.98426532745361,-0.05726566165686,-0.18620280921459,9.85667514801025,1.30348277091980,0.20980620384216,-0.30274745821953
447,878099547,-1.08936750888824,0.26215597987175,15.98364734649658,-0.04208713769913,-0.20319083333015,9.85051059722900,1.42025828361511,-0.02882882393897,-0.38909304141998
448,878107880,-1.08907091617584,0.26182296872139,15.98297023773193,-0.04007755964994,-0.18723280727863,9.85036468505859,1.35063874721527,0.11119139939547,-0.38512286543846
449,878116213,-1.08928287029266,0.26127326488495,15.98150348663330,-0.04263094440103,-0.18304124474525,9.88623046875000,1.29123926162720,0.08847156912088,-0.48827132582664
450,878124546,-1.08964037895203,0.26141235232353,15.98090934753418,-0.03452677279711,-0.20713917911053,9.88677406311035,1.27241277694702,0.16764517128468,-0.37418556213379
451,878132879,-1.08984434604645,0.26174473762512,15.98140525817871,-0.04031353443861,-0.16216924786568,9.85027217864990,1.29093182086945,0.18954531848431,-0.25116035342216
452,878141212,-1.08967435359955,0.26193457841873,15.98210620880127,-0.03181584551930,-0.16854244470596,9.85010147094727,1.33480894565582,0.17123116552830,-0.21627378463745
453,878149545,-1.08970797061920,0.26257583498955,15.98136234283447,-0.04716584458947,-0.20700328052044,9.84121799468994,1.31237089633942,0.22988776862621,-0.39816048741341
454,878157878,-1.08944118022919,0.26193127036095,15.98119831085205,-0.03926925733685,-0.18383520841599,9.84559345245361,1.34682202339172,0.07338478416204,-0.32239353656769
455,878166211,-1.08965218067169,0.26188793778419,15.98099327087402,-0.05635724961758,-0.17500145733356,9.85855579376221,1.29062449932098,0.14556570351124,-0.33543121814728
456,878174544,-1.09039282798767,0.26209595799446,15.98114395141602,-0.03406183794141,-0.20621646940708,9.87102317810059,1.22599971294403,0.17563681304455,-0.27813220024109
457,878182877,-1.09057188034058,0.26231825351715,15.98168659210205,-0.04547072947025,-0.18548750877380,9.86000633239746,1.29418480396271,0.17525257170200,-0.24534595012665
458,878191210,-1.09066689014435,0.26292595267296,15.98159408569336,-0.05041323602200,-0.16872841119766,9.84668922424316,1.30366194248199,0.22284384071827,-0.31150752305984
459,878199543,-1.09082305431366,0.26244932413101,15.98241615295410,-0.04643625766039,-0.23157328367233,9.85814094543457,1.29666924476624,0.09103298187256,-0.21407096087933
460,878207876,-1.09095990657806,0.26231417059898,15.98276233673096,-0.04924720525742,-0.16689729690552,9.87945747375488,1.29830873012543,0.13419298827648,-0.26514574885368
461,878216209,-1.09129905700684,0.26274314522743,15.98311424255371,-0.03802451491356,-0.16453684866428,9.89033603668213,1.27520465850830,0.20150716602802,-0.26647764444351
462,878224542,-1.09137141704559,0.26225593686104,15.98305225372314,-0.02770296111703,-0.20306921005249,9.88231754302979,1.30594170093536,0.09113544970751,-0.31373596191406
463,878232875,-1.09102046489716,0.26243075728416,15.98332214355469,-0.04498422890902,-0.19503657519817,9.84632492065430,1.35786175727844,0.17138482630253,-0.27841392159462
464,878241208,-1.09050416946411,0.26231285929680,15.98347091674805,-0.03273141011596,-0.15284195542336,9.86721134185791,1.37648332118988,0.13590912520885,-0.29081121087074
465,878249541,-1.09013068675995,0.26287522912025,15.98396492004395,-0.05307409539819,-0.19470754265785,9.84134674072266,1.36047446727753,0.21725992858410,-0.24939300119877
466,878257874,-1.09015166759491,0.26321196556091,15.98407077789307,-0.05136469751596,-0.19691775739193,9.86912631988525,1.31178176403046,0.19023691117764,-0.29396173357964
467,878266207,-1.09062802791595,0.26325199007988,15.98367404937744,-0.03458399698138,-0.15897908806801,9.83563804626465,1.25893962383270,0.15657982230186,-0.35891947150230
468,878274540,-1.09100306034088,0.26388797163963,15.98335361480713,-0.03829616680741,-0.19221119582653,9.82802200317383,1.27046585083008,0.22760805487633,-0.34247511625290
469,878282873,-1.09089851379395,0.26447957754135,15.98288536071777,-0.04005609080195,-0.19261890649796,9.84112358093262,1.32884097099304,0.22184488177299,-0.36588653922081
470,878291206,-1.09114670753479,0.26481872797012,15.98298740386963,-0.02580030448735,-0.16431510448456,9.87061595916748,1.28470742702484,0.19051867723465,-0.29608774185181
471,878299539,-1.09074008464813,0.26475653052330,15.98351383209229,-0.03101484477520,-0.22949895262718,9.85281085968018,1.36467528343201,0.14223584532738,-0.24624246358871
472,878307872,-1.09085440635681,0.26393964886665,15.98412513732910,-0.03246675431728,-0.18910686671734,9.86590194702148,1.30069077014923,0.05046004429460,-0.22872230410576
473,878316205,-1.09086799621582,0.26443520188332,15.98447322845459,-0.06062034517527,-0.17770522832870,9.87060165405273,1.31406152248383,0.20921705663204,-0.26829630136490
474,878324538,-1.09155201911926,0.26435759663582,15.98424816131592,-0.06442593038082,-0.18365640938282,9.84967136383057,1.23265945911407,0.14187724888325,-0.32198372483253
475,878332871,-1.09103548526764,0.26426118612289,15.98446273803711,-0.06491920351982,-0.18502974510193,9.84708976745605,1.37819945812225,0.13834248483181,-0.28420272469521
476,878341204,-1.09112393856049,0.26357889175415,15.98412990570068,-0.04527018591762,-0.13629026710987,9.85670471191406,1.30419993400574,0.06933774054050,-0.35044115781784
477,878349537,-1.09109544754028,0.26284790039062,15.98476696014404,-0.03839646279812,-0.18695385754108,9.82915019989014,1.31964528560638,0.06057766079903,-0.23530514538288
478,878357870,-1.09084844589233,0.26267239451408,15.98468875885010,-0.03227362781763,-0.21834053099155,9.82093906402588,1.34451675415039,0.13024836778641,-0.29616457223892
479,878366203,-1.09031927585602,0.26261669397354,15.98497200012207,-0.04505575820804,-0.16557401418686,9.85762596130371,1.37973630428314,0.14246636629105,-0.27557075023651
480,878374536,-1.09044718742371,0.26209402084351,15.98472976684570,-0.03477712348104,-0.17789836227894,9.86591625213623,1.29930770397186,0.08923999965191,-0.33466282486916
481,878382869,-1.08992683887482,0.26257944107056,15.98586177825928,-0.03055694513023,-0.20431379973888,9.87887763977051,1.37781536579132,0.20604093372822,-0.17324188351631
482,878391202,-1.09011042118073,0.26258936524391,15.98608875274658,-0.03750247508287,-0.17425039410591,9.85235309600830,1.29267346858978,0.15007379651070,-0.26911595463753
483,878399535,-1.09024393558502,0.26169863343239,15.98522090911865,-0.05077803134918,-0.18972915410995,9.85804843902588,1.30074214935303,0.04469684138894,-0.41585987806320
484,878407868,-1.08981645107269,0.26185250282288,15.98464393615723,-0.06096350029111,-0.19539420306683,9.83234882354736,1.36603271961212,0.17089816927910,-0.38169053196907
485,878416201,-1.08956348896027,0.26217478513718,15.98365688323975,-0.01855447515845,-0.17758363485336,9.87388420104980,1.34700131416321,0.19141519069672,-0.42759120464325
486,878424534,-1.08942759037018,0.26162007451057,15.98417282104492,-0.02434838749468,-0.18437165021896,9.82208251953125,1.33068513870239,0.08268275111914,-0.24227222800255
487,878432867,-1.09010028839111,0.26192167401314,15.98426151275635,-0.02917670458555,-0.24369022250175,9.85654449462891,1.23504149913788,0.18677899241447,-0.30010917782784
488,878441200,-1.08984220027924,0.26302003860474,15.98434734344482,-0.05167929083109,-0.17542347311974,9.86133861541748,1.34582304954529,0.28219202160835,-0.29280912876129
489,878449533,-1.09031152725220,0.26322492957115,15.98389816284180,-0.04636457189918,-0.15013103187084,9.83126163482666,1.25981056690216,0.17561119794846,-0.36557918787003
490,878457866,-1.09037935733795,0.26302653551102,15.98405647277832,-0.05293091014028,-0.21815456449986,9.83515357971191,1.30673575401306,0.12553535401821,-0.28084728121758
491,878466199,-1.08961987495422,0.26315927505493,15.98359584808350,-0.03062132000923,-0.18731865286827,9.86070156097412,1.40714347362518,0.16828550398350,-0.36645007133484
492,878474532,-1.08936321735382,0.26221355795860,15.98259544372559,-0.03486295789480,-0.13980947434902,9.86809062957764,1.34671962261200,0.03860064968467,-0.41076266765594
493,878482865,-1.08967781066895,0.26167958974838,15.98325061798096,-0.03525615856051,-0.18932145833969,9.89162445068359,1.27784287929535,0.08437328785658,-0.23433181643486
494,878491198,-1.08955788612366,0.26101070642471,15.98335838317871,-0.02663003467023,-0.20328380167484,9.85180377960205,1.32909703254700,0.07033669203520,-0.29652315378189
495,878499531,-1.08976840972900,0.26152214407921,15.98272991180420,-0.03883278369904,-0.15878595411777,9.88419151306152,1.29105973243713,0.21334096789360,-0.38420069217682
496,878507864,-1.09031867980957,0.26168912649155,15.98242092132568,-0.04995545372367,-0.20065155625343,9.84298419952393,1.24905264377594,0.17064204812050,-0.33993932604790
497,878516197,-1.08949518203735,0.26196902990341,15.98268890380859,-0.02995610609651,-0.19182494282722,9.86310482025146,1.41498136520386,0.18388457596302,-0.27751737833023
498,878524530,-1.08930456638336,0.26181292533875,15.98189163208008,-0.03013511747122,-0.16485156118870,9.87033557891846,1.33801066875458,0.13411611318588,-0.40720224380493
499,878532863,-1.08936727046967,0.26130360364914,15.98142337799072,-0.04301719740033,-0.20212504267693,9.85867023468018,1.30865681171417,0.09026455879211,-0.36780759692192
500,878541196,-1.08969700336456,0.26137250661850,15.98095226287842,-0.02323958650231,-0.20992878079414,9.85009384155273,1.27551198005676,0.16021703183651,-0.36808934807777
501,878549529,-1.08910119533539,0.26145142316818,15.98132133483887,-0.03658679127693,-0.16297753155231,9.86017990112305,1.38749742507935,0.15834720432758,-0.26568365097046
502,878557862,-1.08956217765808,0.26118013262749,15.98085021972656,-0.05533454567194,-0.17899274826050,9.84545230865479,1.25993847846985,0.11902935057878,-0.34219333529472
503,878566195,-1.08967125415802,0.26094415783882,15.98051166534424,-0.04352520406246,-0.22236756980419,9.86788940429688,1.30312407016754,0.12187252193689,-0.35231098532677
504,878574528,-1.08949470520020,0.26066091656685,15.98057651519775,-0.05331013724208,-0.15990179777145,9.86010074615479,1.33560311794281,0.11623738706112,-0.29262986779213
505,878582861,-1.08930706977844,0.26067230105400,15.98065185546875,-0.04121481999755,-0.16102479398251,9.84433460235596,1.33831810951233,0.15212292969227,-0.30244004726410
506,878591194,-1.08953690528870,0.26054078340530,15.97996520996094,-0.05388236418366,-0.21731767058372,9.86476421356201,1.28762745857239,0.13695929944515,-0.37918028235435
507,878599527,-1.08873832225800,0.26078689098358,15.97964763641357,-0.05407532677054,-0.17369249463081,9.86058139801025,1.41229212284088,0.17970947921276,-0.34780287742615
508,878607860,-1.08864080905914,0.26087495684624,15.97998237609863,-0.04851773381233,-0.16136813163757,9.86165332794189,1.32599771022797,0.16085739433765,-0.27446931600571
509,878616193,-1.08930885791779,0.26128259301186,15.97978115081787,-0.04812461510301,-0.19005106389523,9.87421989440918,1.23614299297333,0.19886891543865,-0.33348456025124
510,878624526,-1.08919322490692,0.26091670989990,15.97949790954590,-0.04260948672891,-0.18673926591873,9.85233306884766,1.32875120639801,0.10708030313253,-0.33649417757988
511,878632859,-1.08939039707184,0.26151430606842,15.97959995269775,-0.05569918826222,-0.17178982496262,9.85995769500732,1.29226374626160,0.22261330485344,-0.29652315378189
512,878641192,-1.08946442604065,0.26149076223373,15.97933673858643,-0.04584987089038,-0.19324119389057,9.87939071655273,1.30630028247833,0.14820395410061,-0.32938626408577
513,878649525,-1.08941268920898,0.26227045059204,15.97951507568359,-0.02580043673515,-0.18118867278099,9.84924221038818,1.32223236560822,0.24225942790508,-0.28763502836227
514,878657858,-1.08988451957703,0.26197651028633,15.97970104217529,-0.03331794217229,-0.16134667396545,9.86315536499023,1.25783801078796,0.11600686609745,-0.28243532776833
515,878666191,-1.08973860740662,0.26234862208366,15.97993946075439,-0.04464102536440,-0.23017132282257,9.87413406372070,1.33347690105438,0.19305446743965,-0.28102657198906
516,878674524,-1.08871161937714,0.26192447543144,15.97941207885742,-0.05748024582863,-0.18018011748791,9.86105251312256,1.43870043754578,0.10071517527103,-0.36396548151970
517,878682857,-1.08835172653198,0.26207250356674,15.97921371459961,-0.03441217169166,-0.13742041587830,9.87354278564453,1.35901439189911,0.17000168561935,-0.33445784449577
518,878691190,-1.08925569057465,0.26229926943779,15.97984600067139,-0.03673700243235,-0.21891276538372,9.84738349914551,1.20617437362671,0.17499646544456,-0.22692932188511
519,878699523,-1.08929550647736,0.26242661476135,15.97954845428467,-0.03054979257286,-0.18148908019066,9.87436389923096,1.31157696247101,0.16585215926170,-0.34575372934341
520,878707856,-1.08852863311768,0.26209840178490,15.98014259338379,-0.04440484941006,-0.14578209817410,9.86317634582520,1.40637516975403,0.11119139194489,-0.22836372256279
521,878716189,-1.08898389339447,0.26301455497742,15.98015689849854,-0.04758084937930,-0.19789771735668,9.87521362304688,1.26127052307129,0.25970271229744,-0.30853626132011
522,878724522,-1.08950173854828,0.26267123222351,15.97887229919434,-0.03247390687466,-0.19183209538460,9.83588123321533,1.25361192226410,0.11203667521477,-0.46475750207901
523,878732855,-1.08891439437866,0.26224136352539,15.97859382629395,-0.05001966655254,-0.16008777916431,9.84928035736084,1.38665223121643,0.09874287247658,-0.34490850567818
524,878741188,-1.08822500705719,0.26228615641594,15.97829341888428,-0.04011314362288,-0.18954318761826,9.85027980804443,1.39753830432892,0.15706647932529,-0.33530312776566
525,878749521,-1.08777606487274,0.26201450824738,15.97851371765137,-0.02708066254854,-0.20185323059559,9.83387851715088,1.36982369422913,0.11726196855307,-0.28553470969200
526,878757854,-1.08790159225464,0.26283574104309,15.97858905792236,-0.02399778738618,-0.15138992667198,9.88836860656738,1.29961502552032,0.24899595975876,-0.28515043854713
527,878766187,-1.08807885646820,0.26319259405136,15.97817802429199,-0.03394755348563,-0.19603797793388,9.85688114166260,1.29523503780365,0.19264465570450,-0.35920122265816
528,878774520,-1.08749079704285,0.26294103264809,15.97832965850830,-0.04579250141978,-0.20892739295959,9.84124660491943,1.38532018661499,0.12048935145140,-0.28556028008461
529,878782853,-1.08806669712067,0.26320540904999,15.97801399230957,-0.03950515016913,-0.15551711618900,9.86065864562988,1.24700331687927,0.18247579038143,-0.34869939088821
530,878791186,-1.08796489238739,0.26324275135994,15.97691917419434,-0.04427609965205,-0.17700424790382,9.85855579376221,1.32797002792358,0.15722016990185,-0.43302142620087
531,878799519,-1.08820331096649,0.26371300220490,15.97696399688721,-0.04517735540867,-0.21862664818764,9.88211059570312,1.28721773624420,0.20724476873875,-0.30428430438042
532,878807852,-1.08873915672302,0.26358091831207,15.97629737854004,-0.06567041575909,-0.14742724597454,9.87086677551270,1.25074315071106,0.13606281578541,-0.38599371910095
533,878816185,-1.08877658843994,0.26297250390053,15.97633552551270,-0.03382579609752,-0.15338556468487,9.86248970031738,1.31155121326447,0.07668901979923,-0.30730679631233
534,878824518,-1.08848667144775,0.26257273554802,15.97661876678467,-0.04620021209121,-0.22544330358505,9.87792587280273,1.34987020492554,0.10204711556435,-0.26550433039665
535,878832851,-1.08793783187866,0.26221513748169,15.97671413421631,-0.06369620561600,-0.18579508364201,9.84406280517578,1.38199031352997,0.10622222721577,-0.30026283860207
536,878841184,-1.08734416961670,0.26213452219963,15.97702503204346,-0.04230906441808,-0.16805604100227,9.84180450439453,1.38544833660126,0.14128811657429,-0.26097065210342
537,878849517,-1.08758509159088,0.26276737451553,15.97659778594971,-0.04933332279325,-0.18618850409985,9.85431289672852,1.28734564781189,0.22555893659592,-0.36045628786087
538,878857850,-1.08722937107086,0.26226982474327,15.97651290893555,-0.04077850282192,-0.14648306369781,9.84845447540283,1.35775935649872,0.09139157831669,-0.31143066287041
539,878866183,-1.08704435825348,0.26208359003067,15.97706222534180,-0.04040640965104,-0.18914978206158,9.85641002655029,1.33770346641541,0.12699536979198,-0.24608878791332
540,878874516,-1.08815264701843,0.26252648234367,15.97678565979004,-0.03123646602035,-0.20426373183727,9.86072349548340,1.18184077739716,0.20332577824593,-0.31880757212639
541,878882849,-1.08746874332428,0.26293531060219,15.97674846649170,-0.03517768159509,-0.14865753054619,9.85212516784668,1.39815306663513,0.20002156496048,-0.31358227133751
542,878891182,-1.08782207965851,0.26251775026321,15.97689151763916,-0.03534219786525,-0.16294176876545,9.85525131225586,1.27156734466553,0.10068955272436,-0.27413633465767
543,878899515,-1.08775699138641,0.26271209120750,15.97749996185303,-0.03154403716326,-0.23149460554123,9.85423564910889,1.32371795177460,0.17061640322208,-0.23745675384998
544,878907848,-1.08711767196655,0.26340264081955,15.97672462463379,-0.04584256932139,-0.16400752961636,9.86625289916992,1.39180064201355,0.23513865470886,-0.38466176390648
545,878916181,-1.08810186386108,0.26341402530670,15.97651958465576,-0.03643658384681,-0.13874369859695,9.84434318542480,1.19777297973633,0.15219978988171,-0.33573862910271
546,878924514,-1.08821570873260,0.26339077949524,15.97672748565674,-0.05564899370074,-0.20912052690983,9.84282779693604,1.30122888088226,0.14682079851627,-0.27592936158180
547,878932847,-1.08761715888977,0.26297461986542,15.97679996490479,-0.05119990557432,-0.18952888250351,9.83743476867676,1.38770234584808,0.10040780156851,-0.30402818322182
548,878941180,-1.08821463584900,0.26316529512405,15.97668170928955,-0.04197288304567,-0.18492244184017,9.85403537750244,1.24285387992859,0.17399749159813,-0.30482223629951
549,878949513,-1.08865106105804,0.26338422298431,15.97613334655762,-0.03082160092890,-0.18687517940998,9.85348510742188,1.26419055461884,0.17671260237694,-0.37613219022751
550,878957846,-1.08891558647156,0.26340940594673,15.97656440734863,-0.04692980274558,-0.18898525834084,9.84447956085205,1.28260719776154,0.15314750373363,-0.24496172368526
551,878966179,-1.08947062492371,0.26356858015060,15.97610664367676,-0.04961927235126,-0.16409337520599,9.88415622711182,1.24974405765533,0.16997605562210,-0.36504125595093
552,878974512,-1.08962380886078,0.26293826103210,15.97623825073242,-0.02432669140399,-0.19590209424496,9.86802768707275,1.29572165012360,0.07494725286961,-0.28325501084328
553,878982845,-1.08927226066589,0.26324895024300,15.97614765167236,-0.03926910832524,-0.17880676686764,9.86004352569580,1.35860466957092,0.18757304549217,-0.31916615366936
554,878991178,-1.08918476104736,0.26307180523872,15.97628688812256,-0.05290957912803,-0.16990147531033,9.84121799468994,1.32520353794098,0.12848098576069,-0.28929996490479
555,878999511,-1.08965611457825,0.26404190063477,15.97681140899658,-0.02394782565534,-0.20348407328129,9.82701778411865,1.25909328460693,0.26469749212265,-0.24680595099926
556,879007844,-1.08808672428131,0.26398742198944,15.97749996185303,-0.01599364727736,-0.17884254455566,9.86708354949951,1.50278711318970,0.14287619292736,-0.20925548672676
557,879016177,-1.08841717243195,0.26492759585381,15.97709655761719,-0.03837500140071,-0.13697694242001,9.86354827880859,1.27669036388397,0.26413398981094,-0.35533350706100
558,879024510,-1.08803749084473,0.26583972573280,15.97724056243896,-0.05984068289399,-0.20785446465015,9.83576011657715,1.36024391651154,0.25878062844276,-0.28563714027405
559,879032843,-1.08781266212463,0.26546230912209,15.97738552093506,-0.05098546296358,-0.21734628081322,9.84762668609619,1.34272384643555,0.10522327572107,-0.29457649588585
560,879041176,-1.08727884292603,0.26501080393791,15.97717380523682,-0.03423350676894,-0.16238383948803,9.86763286590576,1.37886571884155,0.09638637304306,-0.32646623253822
561,879049509,-1.08714258670807,0.26480963826180,15.97702503204346,-0.04231622070074,-0.15788470208645,9.87459278106689,1.33201694488525,0.12702098488808,-0.33041080832481
562,879057842,-1.08715915679932,0.26495042443275,15.97611331939697,-0.05562747269869,-0.20170301198959,9.85824298858643,1.31352353096008,0.16864411532879,-0.40976366400719
563,879066175,-1.08716201782227,0.26520538330078,15.97599411010742,-0.03907583653927,-0.18955034017563,9.83843612670898,1.31598246097565,0.18114385008812,-0.32341814041138
564,879074508,-1.08792388439178,0.26559516787529,15.97601413726807,-0.03934779018164,-0.17332768440247,9.85600280761719,1.22307968139648,0.19735766947269,-0.30771660804749
565,879082841,-1.08886003494263,0.26533159613609,15.97485256195068,-0.03259512782097,-0.17549498379230,9.88105297088623,1.20384323596954,0.12143708020449,-0.45202714204788
566,879091174,-1.08905565738678,0.26582306623459,15.97507190704346,-0.04267385974526,-0.17747634649277,9.85406398773193,1.29108548164368,0.20883284509182,-0.27831146121025
567,879099507,-1.08942592144012,0.26598310470581,15.97458648681641,-0.05305263772607,-0.18937151134014,9.84219074249268,1.27169549465179,0.17056518793106,-0.36883220076561
568,879107840,-1.08916318416595,0.26618912816048,15.97490119934082,-0.03602886945009,-0.16852813959122,9.88082313537598,1.34618175029755,0.17422802746296,-0.26681068539619
569,879116173,-1.08936476707458,0.26624679565430,15.97437477111816,-0.04140764474869,-0.15369313955307,9.85228443145752,1.29221248626709,0.15829597413540,-0.37341710925102
570,879124506,-1.08943068981171,0.26613032817841,15.97443675994873,-0.04903989285231,-0.19919952750206,9.87273979187012,1.30701756477356,0.13701054453850,-0.29419228434563
571,879132839,-1.08900809288025,0.26580023765564,15.97525787353516,-0.03506333753467,-0.20713201165199,9.86112308502197,1.36628901958466,0.10852751135826,-0.21289269626141
572,879141172,-1.08868658542633,0.26625090837479,15.97523212432861,-0.02866845019162,-0.15709789097309,9.83073234558105,1.35325133800507,0.20496511459351,-0.30787029862404
573,879149505,-1.08912146091461,0.26571676135063,15.97580432891846,-0.04339629784226,-0.15880742669106,9.84216213226318,1.26357567310333,0.08357924222946,-0.24365539848804
574,879157838,-1.08960032463074,0.26540118455887,15.97631454467773,-0.06117826700211,-0.22320446372032,9.86892032623291,1.25668573379517,0.11254895478487,-0.23883995413780
575,879166171,-1.08995962142944,0.26587092876434,15.97660827636719,-0.04704424738884,-0.20230385661125,9.87111663818359,1.27284812927246,0.20601528882980,-0.27441811561584
576,879174504,-1.09008967876434,0.26584029197693,15.97589778900146,-0.05353170260787,-0.15748414397240,9.87203311920166,1.29938459396362,0.14840888977051,-0.38850390911102
577,879182837,-1.09022378921509,0.26584509015083,15.97631168365479,-0.02170875854790,-0.17405013740063,9.87443637847900,1.29984557628632,0.14915169775486,-0.26035588979721
578,879191170,-1.09036540985107,0.26597452163696,15.97611999511719,-0.03384725376964,-0.19414961338043,9.84937858581543,1.29792439937592,0.16549357771873,-0.33156344294548
579,879199503,-1.08978450298309,0.26531869173050,15.97615718841553,-0.04607861489058,-0.20108072459698,9.86696815490723,1.38575565814972,0.07220653444529,-0.30710187554359
580,879207836,-1.08932828903198,0.26535749435425,15.97601413726807,-0.04346768185496,-0.15547420084476,9.87790584564209,1.36931133270264,0.15558084845543,-0.31084153056145
581,879216169,-1.09000647068024,0.26459190249443,15.97589111328125,-0.05309555307031,-0.16812041401863,9.89721679687500,1.23470866680145,0.05875905230641,-0.32679921388626
582,879224502,-1.09038758277893,0.26517552137375,15.97593021392822,-0.03131514787674,-0.18642453849316,9.86473560333252,1.26880109310150,0.21974451839924,-0.28238412737846
583,879232835,-1.08992099761963,0.26523587107658,15.97500991821289,-0.03503462299705,-0.19288356602192,9.84397125244141,1.37233376502991,0.15878263115883,-0.42205855250359
584,879241168,-1.08980059623718,0.26485982537270,15.97503376007080,-0.02150144614279,-0.16604609787464,9.88760375976562,1.32930183410645,0.10532572865486,-0.29652315378189
585,879249501,-1.08977699279785,0.26512470841408,15.97547817230225,-0.02866859547794,-0.16032382845879,9.86260414123535,1.31854391098022,0.18116948008537,-0.25630885362625
586,879257834,-1.08969271183014,0.26562669873238,15.97535800933838,-0.01196670625359,-0.19980035722256,9.84153270721436,1.32499861717224,0.21049778163433,-0.30899730324745
587,879266167,-1.08926784992218,0.26503160595894,15.97456645965576,-0.03949799761176,-0.17614591121674,9.88572978973389,1.36717236042023,0.08108185976744,-0.40765053033829
588,879274500,-1.08953547477722,0.26502701640129,15.97398185729980,-0.04118590801954,-0.16439379751682,9.88420772552490,1.28306818008423,0.15155941247940,-0.36219805479050
589,879282833,-1.09040892124176,0.26597997546196,15.97365283966064,-0.06028416007757,-0.17846342921257,9.87467098236084,1.21124589443207,0.26508170366287,-0.34867373108864
590,879291166,-1.09063804149628,0.26647913455963,15.97384548187256,-0.02163019776344,-0.20619499683380,9.85864162445068,1.28724324703217,0.20967812836170,-0.28307572007179
591,879299499,-1.09126782417297,0.26657080650330,15.97335910797119,-0.05336736142635,-0.19930681586266,9.84923553466797,1.24057424068451,0.16254793107510,-0.36773070693016
592,879307832,-1.09110212326050,0.26661488413811,15.97431373596191,-0.02767434902489,-0.17476540803909,9.87315464019775,1.33427119255066,0.15250715613365,-0.18312896788120
593,879316165,-1.09154284000397,0.26651623845100,15.97511577606201,-0.02743096463382,-0.17487986385822,9.85990238189697,1.26270484924316,0.13718983530998,-0.21384042501450
594,879324498,-1.09115529060364,0.26711630821228,15.97559738159180,-0.04872516542673,-0.21455667912960,9.83000946044922,1.36083316802979,0.22051294147968,-0.24503856897354
595,879332831,-1.09039509296417,0.26623943448067,15.97599029541016,-0.04251649975777,-0.19419968128204,9.87210369110107,1.40745103359222,0.04377472773194,-0.26447975635529
596,879341164,-1.08962595462799,0.26663342118263,15.97529888153076,-0.04073544219136,-0.15811359882355,9.87525749206543,1.40693855285645,0.20032893121243,-0.38507154583931
597,879349497,-1.08955895900726,0.26747193932533,15.97531032562256,-0.03540657088161,-0.18115289509296,9.89299011230469,1.32376933097839,0.25053283572197,-0.30792152881622
598,879357830,-1.08956336975098,0.26751145720482,15.97499847412109,-0.03117208927870,-0.20497901737690,9.85628890991211,1.31442010402679,0.15570893883705,-0.33858177065849
599,879366163,-1.08872640132904,0.26793134212494,15.97435474395752,-0.05114282667637,-0.17809148132801,9.84419345855713,1.41692829132080,0.20186579227448,-0.38724881410599
600,879374496,-1.08852612972260,0.26838505268097,15.97455406188965,-0.03265988081694,-0.18246902525425,9.90038585662842,1.33877933025360,0.20424792170525,-0.27764549851418
601,879382829,-1.08868050575256,0.26783466339111,15.97496032714844,-0.05381095781922,-0.16304188966751,9.87273883819580,1.29707920551300,0.08393784612417,-0.26389065384865
602,879391162,-1.08900618553162,0.26807847619057,15.97506618499756,-0.03782423213124,-0.18181811273098,9.84552383422852,1.27574253082275,0.17842875421047,-0.29429474473000
603,879399495,-1.08894491195679,0.26810708642006,15.97499847412109,-0.04110739007592,-0.19756151735783,9.85877037048340,1.32328259944916,0.15414644777775,-0.31885880231857
604,879407828,-1.08889138698578,0.26802024245262,15.97438144683838,-0.03890448436141,-0.17533047497272,9.86328983306885,1.32177138328552,0.14203093945980,-0.37961581349373
605,879416161,-1.08904600143433,0.26772940158844,15.97357940673828,-0.02755275182426,-0.15734109282494,9.85364913940430,1.29759132862091,0.11703142523766,-0.40899524092674
606,879424494,-1.08903884887695,0.26727294921875,15.97388648986816,-0.03316057845950,-0.19868451356888,9.86781215667725,1.31603384017944,0.09502881765366,-0.26903909444809
607,879432827,-1.08862674236298,0.26765599846840,15.97370529174805,-0.03274555876851,-0.19038723409176,9.87292766571045,1.36549496650696,0.19589768350124,-0.33138421177864
608,879441160,-1.08898186683655,0.26805719733238,15.97302627563477,-0.05608560889959,-0.14744871854782,9.84223937988281,1.27218234539032,0.19981665909290,-0.38151127099991
609,879449493,-1.08865070343018,0.26717081665993,15.97255134582520,-0.02693760581315,-0.15854276716709,9.85139560699463,1.35588943958282,0.04567018151283,-0.36975425481796
610,879457826,-1.08754682540894,0.26753532886505,15.97302055358887,-0.04326039552689,-0.20487172901630,9.87055873870850,1.44682002067566,0.19243973493576,-0.24373222887516
611,879466159,-1.08770787715912,0.26750123500824,15.97209358215332,-0.05375361442566,-0.19546574354172,9.85847759246826,1.29721999168396,0.14870344102383,-0.42081624269485
612,879474492,-1.08802497386932,0.26764482259750,15.97172164916992,-0.03414751961827,-0.16377864778042,9.87420749664307,1.27651107311249,0.16861851513386,-0.34708568453789
613,879482825,-1.08782732486725,0.26813989877701,15.97199821472168,-0.03469128906727,-0.17826315760612,9.84196186065674,1.33954763412476,0.20898653566837,-0.27585247159004
614,879491158,-1.08739233016968,0.26854738593102,15.97214984893799,-0.03530656546354,-0.18553759157658,9.86160945892334,1.36713409423828,0.19753697514534,-0.28205117583275
615,879499491,-1.08711910247803,0.26870122551918,15.97192955017090,-0.03417628258467,-0.18274083733559,9.87367725372314,1.34897375106812,0.16913080215454,-0.33717298507690
616,879507824,-1.08694410324097,0.26887145638466,15.97113609313965,-0.03261714801192,-0.17010176181793,9.84936332702637,1.33567988872528,0.17417679727077,-0.39841660857201
617,879516157,-1.08707773685455,0.26858973503113,15.97109794616699,-0.02740983664989,-0.17163960635662,9.85846900939941,1.29994797706604,0.11552020162344,-0.31750127673149
618,879524490,-1.08736026287079,0.26809793710709,15.97089862823486,-0.03142959252000,-0.18139609694481,9.85643196105957,1.28087818622589,0.09150686115026,-0.32430180907249
619,879532823,-1.08788442611694,0.26900267601013,15.97069358825684,-0.03788860887289,-0.19171050190926,9.86195373535156,1.25335562229156,0.25960025191307,-0.33140978217125
620,879541156,-1.08755886554718,0.26842421293259,15.96963691711426,-0.02277465164661,-0.16922195255756,9.88045120239258,1.35381460189819,0.08414275199175,-0.42805221676826
621,879549489,-1.08831214904785,0.26785597205162,15.96969318389893,-0.03856812790036,-0.16935786604881,9.82117557525635,1.22589719295502,0.08114589005709,-0.30360549688339
622,879557822,-1.08883094787598,0.26813945174217,15.96929359436035,-0.04706555977464,-0.20388463139534,9.85093116760254,1.25238239765167,0.18557512760162,-0.34111756086349
623,879566155,-1.08838760852814,0.26825949549675,15.96881866455078,-0.03610772266984,-0.18990081548691,9.85547924041748,1.36968266963959,0.16427688300610,-0.36679580807686
624,879574488,-1.08867037296295,0.26872253417969,15.96771240234375,-0.03999851271510,-0.18180380761623,9.87334251403809,1.28058362007141,0.20985741913319,-0.42564454674721
625,879582821,-1.08845067024231,0.26836535334587,15.96697998046875,-0.02379750832915,-0.18364924192429,9.86168193817139,1.34264707565308,0.10860436409712,-0.40054258704185
626,879591154,-1.08914935588837,0.26867377758026,15.96655750274658,-0.03095779195428,-0.19925676286221,9.85821819305420,1.23117375373840,0.18739375472069,-0.33415052294731
627,879599487,-1.08895981311798,0.26866689324379,15.96682071685791,-0.05206541344523,-0.15377897024155,9.88987255096436,1.33865118026733,0.14907483756542,-0.27915671467781
628,879607820,-1.08859229087830,0.26831954717636,15.96642112731934,-0.03374711424112,-0.17338491976261,9.88871955871582,1.35906565189362,0.10921909660101,-0.34296178817749
629,879616153,-1.08887803554535,0.26827260851860,15.96627235412598,-0.05355333536863,-0.17098870873451,9.85312747955322,1.28168511390686,0.14451551437378,-0.32902765274048
630,879624486,-1.08940982818604,0.26848888397217,15.96615314483643,-0.03163674846292,-0.19811227917671,9.86771965026855,1.25069189071655,0.17758348584175,-0.31780859827995
631,879632819,-1.08930325508118,0.26824435591698,15.96690654754639,-0.04107162356377,-0.18972200155258,9.84437942504883,1.32797002792358,0.11905495822430,-0.22201137244701
632,879641152,-1.08986222743988,0.26860874891281,15.96645832061768,-0.05451181530952,-0.16962966322899,9.87585163116455,1.24784862995148,0.19543661177158,-0.35774120688438
633,879649485,-1.08946406841278,0.26809123158455,15.96650314331055,-0.04419041052461,-0.16827777028084,9.90589237213135,1.36380422115326,0.08626873791218,-0.30597484111786
634,879657818,-1.08901500701904,0.26772937178612,15.96595001220703,-0.04886089265347,-0.19130279123783,9.85978794097900,1.36846613883972,0.10906540602446,-0.37941086292267
635,879666151,-1.08872818946838,0.26773044466972,15.96547889709473,-0.03520629182458,-0.17267678678036,9.86368465423584,1.35081779956818,0.15094467997551,-0.36575844883919
636,879674484,-1.08811783790588,0.26868346333504,15.96634578704834,-0.03419067710638,-0.14307831227779,9.86154460906982,1.38749742507935,0.26374971866608,-0.18640759587288
637,879682817,-1.08845329284668,0.26930245757103,15.96622943878174,-0.05086386576295,-0.19786909222603,9.86262607574463,1.27566576004028,0.22343298792839,-0.32410973310471
638,879691150,-1.08946943283081,0.26901292800903,15.96667385101318,-0.04482665657997,-0.20468576252460,9.87037372589111,1.19247066974640,0.11546896398067,-0.25092983245850
639,879699483,-1.08946359157562,0.26917064189911,15.96701049804688,-0.04049927368760,-0.18927139043808,9.85772800445557,1.31667411327362,0.16751708090305,-0.27024298906326
640,879707816,-1.08997082710266,0.26911130547523,15.96675968170166,-0.03464092686772,-0.15962283313274,9.86558151245117,1.25438034534454,0.14495095610619,-0.33092314004898
641,879716149,-1.08967947959900,0.26939788460732,15.96691608428955,-0.03944806382060,-0.18377798795700,9.84465694427490,1.35068988800049,0.18398706614971,-0.29204073548317
642,879724482,-1.08921492099762,0.26924625039101,15.96675586700439,-0.03009916283190,-0.19643136858940,9.87699604034424,1.37064325809479,0.13242557644844,-0.31624615192413
643,879732815,-1.08931696414948,0.26863014698029,15.96742343902588,-0.03344669193029,-0.17962218821049,9.86235427856445,1.30325210094452,0.07310301810503,-0.23294861614704
644,879741148,-1.08986330032349,0.26878347992897,15.96745777130127,-0.05326696485281,-0.18327729403973,9.84894371032715,1.24833536148071,0.16910515725613,-0.29449963569641
645,879749481,-1.09003543853760,0.26884889602661,15.96715736389160,-0.05424700677395,-0.17202587425709,9.84890842437744,1.29559350013733,0.15955105423927,-0.34631726145744
646,879757814,-1.08983135223389,0.26855993270874,15.96718788146973,-0.01545729395002,-0.18508696556091,9.85053730010986,1.33895850181580,0.11531527340412,-0.28474062681198
647,879766147,-1.09047150611877,0.26983296871185,15.96718120574951,-0.05755892768502,-0.16626782715321,9.86141681671143,1.23949849605560,0.30232480168343,-0.30702501535416
648,879774480,-1.08999180793762,0.27035778760910,15.96752071380615,-0.02366863377392,-0.17191858589649,9.87529468536377,1.37171912193298,0.21293115615845,-0.25666743516922
649,879782813,-1.09003949165344,0.27052158117294,15.96826553344727,-0.01575761288404,-0.15909354388714,9.86854267120361,1.30978393554688,0.16785007715225,-0.22093556821346
650,879791146,-1.08975315093994,0.26409450173378,15.97122573852539,-0.02587183378637,-0.17746202647686,9.86623859405518,1.37714934349060,0.10104815661907,-0.32129216194153
651,879799479,-1.08967530727386,0.26428639888763,15.97089862823486,-0.03187306970358,-0.20060147345066,9.87779712677002,1.32566475868225,0.17317782342434,-0.34882745146751
652,879807812,-1.08920753002167,0.26501622796059,15.97018814086914,-0.04768066480756,-0.17054522037506,9.88472270965576,1.37143731117249,0.23910883069038,-0.38855510950089
653,879816145,-1.08896005153656,0.26476007699966,15.97037601470947,-0.04714438691735,-0.19269043207169,9.86755466461182,1.34556686878204,0.11969532072544,-0.28937682509422
654,879824478,-1.08855211734772,0.26502671837807,15.96975421905518,-0.05022726207972,-0.21261826157570,9.86124515533447,1.36431646347046,0.18380774557590,-0.37587603926659
655,879832811,-1.08890366554260,0.26603418588638,15.96883201599121,-0.01296791899949,-0.16144679486752,9.85147571563721,1.27412867546082,0.27371370792389,-0.41942027211189
656,879841144,-1.08867645263672,0.26557591557503,15.96936321258545,-0.03065708465874,-0.16030952334404,9.85021591186523,1.34136641025543,0.09556671231985,-0.24491052329540
657,879849477,-1.09001624584198,0.26557901501656,15.96936798095703,-0.03516312688589,-0.18698246777058,9.85408687591553,1.15479230880737,0.15117521584034,-0.31158438324928
658,879857810,-1.08974504470825,0.26553371548653,15.96947097778320,-0.05986929684877,-0.19785478711128,9.85681056976318,1.34738552570343,0.14443866908550,-0.28038620948792
659,879866143,-1.08973956108093,0.26555013656616,15.96935176849365,-0.04807410761714,-0.13935884833336,9.86834239959717,1.31654584407806,0.15266083180904,-0.32661992311478
660,879874476,-1.08895850181580,0.26538720726967,15.96855545043945,-0.05680787935853,-0.17596708238125,9.87067317962646,1.40875720977783,0.13314278423786,-0.40077310800552
661,879882809,-1.08949100971222,0.26473954319954,15.96891117095947,-0.04567090049386,-0.19000811874866,9.83665370941162,1.25217747688293,0.07238583266735,-0.26852682232857
662,879891142,-1.08922970294952,0.26450261473656,15.96823120117188,-0.03811017051339,-0.18093831837177,9.86533832550049,1.34654033184052,0.12348622083664,-0.37467220425606
663,879899475,-1.08951973915100,0.26447850465775,15.96800899505615,-0.03208780288696,-0.17113175988197,9.86125183105469,1.28135216236115,0.14758922159672,-0.33768528699875
664,879907808,-1.08985888957977,0.26379317045212,15.96728992462158,-0.04285268113017,-0.18478654325008,9.84756183624268,1.27433383464813,0.07151494920254,-0.37974384427071
665,879916141,-1.08961379528046,0.26301971077919,15.96691322326660,-0.03838199004531,-0.18631012737751,9.86349296569824,1.34561812877655,0.05809308215976,-0.35771557688713
666,879924474,-1.08971071243286,0.26271173357964,15.96679019927979,-0.04798856377602,-0.17148225009441,9.85190296173096,1.30345714092255,0.11365035921335,-0.31240400671959
667,879932807,-1.09050607681274,0.26282650232315,15.96703624725342,-0.05803101509809,-0.17647494375706,9.87927055358887,1.22056949138641,0.16347004473209,-0.28038623929024
668,879941140,-1.08988940715790,0.26284304261208,15.96627807617188,-0.06349578499794,-0.17479401826859,9.81691169738770,1.38898301124573,0.15504297614098,-0.38678774237633
669,879949473,-1.08990728855133,0.26277825236320,15.96584606170654,-0.04877507314086,-0.17063823342323,9.87023830413818,1.31401026248932,0.14382392168045,-0.36304333806038
670,879957806,-1.08975613117218,0.26240196824074,15.96572780609131,-0.05829567089677,-0.20148128271103,9.85723972320557,1.33286225795746,0.10588924586773,-0.32395604252815
671,879966139,-1.08882093429565,0.26224765181541,15.96648406982422,-0.05695093423128,-0.18415708839893,9.86534404754639,1.42804467678070,0.12983855605125,-0.21983416378498
672,879974472,-1.08829462528229,0.26230734586716,15.96554183959961,-0.03122931160033,-0.17357088625431,9.87173843383789,1.37814819812775,0.16055001318455,-0.40594717860222
673,879982805,-1.08782470226288,0.26149961352348,15.96554470062256,-0.04312448948622,-0.19009394943714,9.85398578643799,1.37238514423370,0.05312392115593,-0.31342861056328
674,879991138,-1.08805096149445,0.26131814718246,15.96541213989258,-0.04243066534400,-0.18713982403278,9.84326362609863,1.28711533546448,0.12965926527977,-0.32580024003983
675,879999471,-1.08739328384399,0.26082611083984,15.96596717834473,-0.06391052901745,-0.19690346717834,9.84446620941162,1.39482319355011,0.09095614403486,-0.24501295387745
676,880007804,-1.08729374408722,0.26126992702484,15.96697139739990,-0.02902615070343,-0.20172448456287,9.86443710327148,1.32574152946472,0.20102052390575,-0.18433284759521
677,880016137,-1.08771431446075,0.26147428154945,15.96667385101318,-0.03514892235398,-0.16907174885273,9.84535980224609,1.26572728157043,0.17548312246799,-0.34639409184456
678,880024470,-1.08794248104095,0.26113274693489,15.96689224243164,-0.03378287702799,-0.19620963931084,9.83975791931152,1.28683352470398,0.11037173867226,-0.27498161792755
679,880032803,-1.08781850337982,0.26047688722610,15.96631145477295,-0.04378970339894,-0.19568032026291,9.85330581665039,1.33155596256256,0.07238582521677,-0.38176733255386
680,880041136,-1.08804726600647,0.25994428992271,15.96602153778076,-0.04494131356478,-0.20344831049442,9.87545108795166,1.28716647624969,0.08890700340271,-0.34370458126068
681,880049469,-1.08836531639099,0.25946906208992,15.96643161773682,-0.04298847168684,-0.16876418888569,9.86083889007568,1.27786850929260,0.09118667244911,-0.26278924942017
682,880057802,-1.08869171142578,0.25961676239967,15.96662902832031,-0.04408284649253,-0.20554409921169,9.86138248443604,1.27530705928802,0.16989921033382,-0.28287079930305
683,880066135,-1.08868896961212,0.26020187139511,15.96627044677734,-0.03455538302660,-0.16301329433918,9.85859203338623,1.31631553173065,0.22087153792381,-0.35415524244308
684,880074468,-1.08871197700500,0.25970017910004,15.96653747558594,-0.04763805866241,-0.16865687072277,9.84955692291260,1.31196105480194,0.08926560729742,-0.27298370003700
685,880082801,-1.08929455280304,0.25914478302002,15.96700191497803,-0.03561400622129,-0.19415676593781,9.84489440917969,1.24582529067993,0.08327188342810,-0.25587341189384
686,880091134,-1.08937931060791,0.25923961400986,15.96656417846680,-0.04024189338088,-0.18532301485538,9.84429359436035,1.30460989475250,0.16382865607738,-0.34009301662445
687,880099467,-1.08919239044189,0.25913777947426,15.96648120880127,-0.03515607491136,-0.16347107291222,9.89726829528809,1.33848464488983,0.13822720944881,-0.32207340002060
688,880107800,-1.08881151676178,0.25970047712326,15.96610832214355,-0.05639317631721,-0.18723997473717,9.85613727569580,1.36042320728302,0.21905294060707,-0.33958071470261
689,880116133,-1.08807563781738,0.25984379649162,15.96591949462891,-0.03835338354111,-0.20125240087509,9.87101745605469,1.40437734127045,0.16882342100143,-0.33330523967743
690,880124466,-1.08762204647064,0.25999119877815,15.96629524230957,-0.05666494369507,-0.16082452237606,9.86600780487061,1.36874783039093,0.16774763166904,-0.26158535480499
691,880132799,-1.08759951591492,0.25972732901573,15.96620559692383,-0.04021328315139,-0.18784795701504,9.84815597534180,1.31903064250946,0.11882444471121,-0.32113847136497
692,880141132,-1.08754324913025,0.25997880101204,15.96655273437500,-0.04066391289234,-0.17542347311974,9.86685371398926,1.32128465175629,0.17996560037136,-0.25228735804558
693,880149465,-1.08759593963623,0.25971683859825,15.96600627899170,-0.02908345870674,-0.15386480093002,9.84266281127930,1.31009125709534,0.12018198519945,-0.37679818272591
694,880157798,-1.08764421939850,0.25986078381538,15.96650791168213,-0.04451224952936,-0.19505086541176,9.85870456695557,1.30842626094818,0.16697919368744,-0.24035115540028
695,880166131,-1.08678472042084,0.25894629955292,15.96616458892822,-0.05240888148546,-0.20085898041725,9.83851337432861,1.41956651210785,0.04116207361221,-0.35369414091110
