sep=,
DeviceTag:,Xsens DOT
FirmwareVersion:,3.0.0
AppVersion:,2023.6.0
StartTime: ,2025-03-06_12:19:49_000 PST
© Movella Technologies B. V. 2005-2025

PacketCounter,SampleTimeFine,Euler_X,Euler_Y,Euler_Z,Acc_X,Acc_Y,Acc_Z,Gyr_X,Gyr_Y,Gyr_Z
0,613251808,-1.05571651458740,0.25313094258308,15.88313770294189,0.00000000000000,0.00000000000000,0.00000000000000,0.00000000000000,0.00000000000000,0.00000000000000
1,613260141,-1.05587267875671,0.25295969843864,15.88355731964111,-0.05272360518575,-0.16462983191013,9.85747623443604,1.29656708240509,0.12689292430878,-0.26079136133194
2,613268474,-1.05642056465149,0.25356388092041,15.88309288024902,-0.03783837705851,-0.19995056092739,9.89595985412598,1.25053822994232,0.22220347821712,-0.37377569079399
3,613276807,-1.05626392364502,0.25342017412186,15.88328075408936,-0.03836069628596,-0.19088791310787,9.89142322540283,1.33445036411285,0.13122171163559,-0.28830102086067
4,613285140,-1.05645358562469,0.25336244702339,15.88331127166748,-0.03305315226316,-0.17358520627022,9.86432933807373,1.29272460937500,0.14264565706253,-0.30395132303238
5,613293473,-1.05631840229034,0.25368195772171,15.88392639160156,-0.04378970339894,-0.20030106604099,9.86346244812012,1.33113348484039,0.18556231260300,-0.23721343278885
6,613301806,-1.05655896663666,0.25326043367386,15.88392066955566,-0.05042754113674,-0.18733295798302,9.84399986267090,1.28632116317749,0.09917831420898,-0.32054930925369
7,613310139,-1.05703878402710,0.25280898809433,15.88344478607178,-0.06981889903545,-0.16369996964931,9.85754013061523,1.25796616077423,0.09572038799524,-0.36893463134766
8,613318472,-1.05752766132355,0.25228324532509,15.88330078125000,-0.04657215997577,-0.17636765539646,9.88401317596436,1.25730037689209,0.08680664002895,-0.34081023931503
9,613326805,-1.05762624740601,0.25183901190758,15.88369750976562,-0.02698052302003,-0.18150338530540,9.85457897186279,1.30355966091156,0.09520810842514,-0.26353207230568
10,613335138,-1.05822420120239,0.25227072834969,15.88449954986572,-0.05464056879282,-0.16191890835762,9.85251140594482,1.24339163303375,0.19835662841797,-0.23171916604042
11,613343471,-1.05833780765533,0.25286909937859,15.88464355468750,-0.05112839117646,-0.18429300189018,9.84484481811523,1.30179226398468,0.22056417167187,-0.29216876626015
12,613351804,-1.05847549438477,0.25346162915230,15.88531589508057,-0.05250902101398,-0.19048020243645,9.83295631408691,1.29859042167664,0.22007749974728,-0.24375784397125
13,613360137,-1.05891275405884,0.25389197468758,15.88533687591553,-0.06349578499794,-0.15816366672516,9.84803390502930,1.26324284076691,0.20053385198116,-0.30638468265533
14,613368470,-1.05949068069458,0.25469249486923,15.88560485839844,-0.05778066441417,-0.17937900125980,9.85008716583252,1.24569690227509,0.24456471204758,-0.27897742390633
15,613376803,-1.05968809127808,0.25474879145622,15.88675022125244,-0.04710854589939,-0.18520857393742,9.85510253906250,1.29129040241241,0.15286575257778,-0.17249904572964
16,613385136,-1.05951142311096,0.25490820407867,15.88701152801514,-0.02412640675902,-0.15903630852699,9.82676315307617,1.33639705181122,0.16690234839916,-0.28568834066391
17,613393469,-1.05930745601654,0.25417217612267,15.88688182830811,-0.04223038628697,-0.18342034518719,9.85179615020752,1.33998310565948,0.06160223111510,-0.32828485965729
18,613401802,-1.05944228172302,0.25427040457726,15.88649559020996,-0.02901908382773,-0.17904996871948,9.88133049011230,1.29953825473785,0.16106231510639,-0.36504128575325
19,613410135,-1.05922198295593,0.25452259182930,15.88717937469482,-0.04726598784328,-0.16135382652283,9.87145996093750,1.34139180183411,0.17830069363117,-0.22905528545380
20,613418468,-1.05916500091553,0.25429812073708,15.88691806793213,-0.04011314362288,-0.20121662318707,9.85993671417236,1.32266783714294,0.12256409227848,-0.35003128647804
21,613426801,-1.05885970592499,0.25428998470306,15.88665962219238,-0.04718730598688,-0.18146046996117,9.86147403717041,1.35197055339813,0.14876747131348,-0.34337162971497
22,613435134,-1.05917239189148,0.25417858362198,15.88617992401123,-0.03955522179604,-0.17585979402065,9.85380649566650,1.27825284004211,0.13788142800331,-0.37677258253098
23,613443467,-1.05947792530060,0.25386038422585,15.88595104217529,-0.06376774609089,-0.18088823556900,9.86967754364014,1.27889299392700,0.11080717295408,-0.33947822451591
24,613451800,-1.05998480319977,0.25381371378899,15.88642406463623,-0.04666514694691,-0.20054425299168,9.87875556945801,1.25458526611328,0.14167234301567,-0.26114994287491
25,613460133,-1.06028163433075,0.25458881258965,15.88597869873047,-0.02397616766393,-0.17412880063057,9.86764812469482,1.27984070777893,0.24394997954369,-0.36286401748657
26,613468466,-1.06007349491119,0.25535511970520,15.88622474670410,-0.03323224559426,-0.18472932279110,9.87184429168701,1.34029054641724,0.23941627144814,-0.29076001048088
27,613476799,-1.05899858474731,0.25555625557899,15.88512992858887,-0.03768095746636,-0.17599569261074,9.85439395904541,1.44530892372131,0.17568802833557,-0.44103869795799
28,613485132,-1.05915069580078,0.25527974963188,15.88504600524902,-0.04004175961018,-0.16753387451172,9.87619400024414,1.29741227626801,0.11644232273102,-0.32774695754051
29,613493465,-1.05874824523926,0.25588259100914,15.88480186462402,-0.03276018425822,-0.18837727606297,9.89040660858154,1.36349701881409,0.22289508581161,-0.33970877528191
30,613501798,-1.05872046947479,0.25568190217018,15.88388729095459,-0.03474850952625,-0.19655297696590,9.88478565216064,1.31954288482666,0.12655992805958,-0.43791374564171
31,613510131,-1.06000912189484,0.25590011477470,15.88322257995605,-0.04634358733892,-0.15071043372154,9.86277484893799,1.16096520423889,0.17755787074566,-0.39116773009300
32,613518464,-1.05985248088837,0.25642269849777,15.88366317749023,-0.05081379786134,-0.18601682782173,9.86095237731934,1.33468103408813,0.21001112461090,-0.26960265636444
33,613526797,-1.06054675579071,0.25671619176865,15.88464355468750,-0.06109243258834,-0.16911466419697,9.87623786926270,1.23137855529785,0.18326982855797,-0.19342587888241
34,613535130,-1.06061804294586,0.25721237063408,15.88472652435303,-0.04758786410093,-0.17930030822754,9.85325622558594,1.30732488632202,0.20709109306335,-0.31143069267273
35,613543463,-1.06070816516876,0.25766491889954,15.88419246673584,-0.05360323563218,-0.17251226305962,9.85327148437500,1.30504536628723,0.20499071478844,-0.37262308597565
36,613551796,-1.06128370761871,0.25795993208885,15.88352870941162,-0.04350358992815,-0.17288421094418,9.84712600708008,1.24700331687927,0.18688145279884,-0.41224828362465
37,613560129,-1.06183815002441,0.25908985733986,15.88287067413330,-0.02338264323771,-0.16503754258156,9.86291217803955,1.24900126457214,0.28636711835861,-0.38932356238365
38,613568462,-1.06309247016907,0.25886705517769,15.88321590423584,-0.03092889301479,-0.19071625173092,9.84786987304688,1.16465365886688,0.12079674005508,-0.28696906566620
39,613576795,-1.06288599967957,0.25854879617691,15.88298320770264,-0.02890463918447,-0.18371361494064,9.86918544769287,1.34052085876465,0.11213911324739,-0.33883789181709
40,613585128,-1.06256031990051,0.25940799713135,15.88241672515869,-0.04519899934530,-0.17946483194828,9.87218761444092,1.35466003417969,0.25219774246216,-0.39037376642227
41,613593461,-1.06327390670776,0.25851830840111,15.88288497924805,-0.04785251989961,-0.19387780129910,9.86128139495850,1.22991883754730,0.04218664392829,-0.25479760766029
42,613601794,-1.06387126445770,0.25913909077644,15.88374137878418,-0.06663588434458,-0.16955098509789,9.88514328002930,1.24285387992859,0.22207541763783,-0.22208821773529
43,613610127,-1.06406331062317,0.25913026928902,15.88372802734375,-0.05139317736030,-0.17428617179394,9.85181045532227,1.29285275936127,0.14738428592682,-0.31068786978722
44,613618460,-1.06442081928253,0.25995269417763,15.88435649871826,-0.03261696547270,-0.19874174892902,9.85256862640381,1.27215659618378,0.24661386013031,-0.24142695963383
45,613626793,-1.06421482563019,0.26035758852959,15.88400077819824,-0.06118541955948,-0.17392852902412,9.83915710449219,1.34013664722443,0.19899699091911,-0.35307940840721
46,613635126,-1.06372582912445,0.26067221164703,15.88439083099365,-0.03621484339237,-0.17047370970249,9.85338497161865,1.37417817115784,0.18565197288990,-0.27218964695930
47,613643459,-1.06436049938202,0.26074662804604,15.88392257690430,-0.03661571815610,-0.20487174391747,9.85173130035400,1.23972892761230,0.15870578587055,-0.36662936210632
48,613651792,-1.06468391418457,0.26071915030479,15.88418388366699,-0.03911174461246,-0.17907142639160,9.86689662933350,1.27612674236298,0.14556568861008,-0.28824979066849
49,613660125,-1.06602418422699,0.26115316152573,15.88437175750732,-0.04049939662218,-0.18065220117569,9.87107372283936,1.15499711036682,0.20012401044369,-0.28594452142715
50,613668458,-1.06558060646057,0.26076999306679,15.88430309295654,-0.03863266482949,-0.16845659911633,9.83826255798340,1.36905515193939,0.10458292067051,-0.33829998970032
51,613676791,-1.06506729125977,0.26094830036163,15.88496780395508,-0.02285333350301,-0.17862080037594,9.84178256988525,1.37663698196411,0.16795252263546,-0.23097634315491
52,613685124,-1.06441712379456,0.26008242368698,15.88499832153320,-0.03479142859578,-0.15322105586529,9.88532161712646,1.39405477046967,0.04567018151283,-0.32295706868172
53,613693457,-1.06465709209442,0.26085463166237,15.88495540618896,-0.05699385330081,-0.18201839923859,9.85444355010986,1.28647494316101,0.24223381280899,-0.31404331326485
54,613701790,-1.06530547142029,0.26084873080254,15.88545608520508,-0.06042699143291,-0.17083133757114,9.85399341583252,1.23734688758850,0.14653903245926,-0.26335275173187
55,613710123,-1.06556844711304,0.26116263866425,15.88574981689453,-0.06064180284739,-0.15204797685146,9.84292030334473,1.28345239162445,0.18680460751057,-0.27457180619240
56,613718456,-1.06575500965118,0.26050689816475,15.88509559631348,-0.04671521857381,-0.19274765253067,9.89376258850098,1.29395425319672,0.07195037603378,-0.40318083763123
57,613726789,-1.06578016281128,0.26107189059258,15.88503646850586,-0.03203057125211,-0.18746887147427,9.86524295806885,1.31257581710815,0.21677327156067,-0.31673282384872
58,613735122,-1.06512415409088,0.26181098818779,15.88506984710693,-0.04501283913851,-0.16699741780758,9.85507297515869,1.39451575279236,0.23718781769276,-0.31166118383408
59,613743455,-1.06557393074036,0.26173159480095,15.88492679595947,-0.00967064406723,-0.16018791496754,9.85795497894287,1.26137304306030,0.14005863666534,-0.32843849062920
60,613751788,-1.06573009490967,0.26215106248856,15.88551425933838,-0.01266053225845,-0.18701823055744,9.84254074096680,1.29656696319580,0.19827978312969,-0.25551480054855
61,613760121,-1.06579387187958,0.26259091496468,15.88507366180420,-0.03126524016261,-0.18116006255150,9.86408424377441,1.30809330940247,0.20273666083813,-0.36230054497719
62,613768454,-1.06592321395874,0.26298558712006,15.88628578186035,-0.04627889394760,-0.20130960643291,9.85879230499268,1.29925644397736,0.19430957734585,-0.17121835052967
63,613776787,-1.06583654880524,0.26223036646843,15.88595771789551,-0.04783106222749,-0.21737489104271,9.85344886779785,1.32620263099670,0.05809308215976,-0.35133761167526
64,613785120,-1.06529581546783,0.26222601532936,15.88589286804199,-0.06491205096245,-0.17106023430824,9.86406326293945,1.37999236583710,0.15002256631851,-0.32656866312027
65,613793453,-1.06488430500031,0.26249465346336,15.88598155975342,-0.04574972391129,-0.18614557385445,9.85401248931885,1.36493122577667,0.18050350248814,-0.29844427108765
66,613801786,-1.06210160255432,0.25258684158325,15.88323974609375,-0.03899014741182,-0.19235424697399,9.85905647277832,1.32727849483490,0.05102356150746,-0.28230729699135
67,613810119,-1.06229174137115,0.25256600975990,15.88339138031006,-0.04270260408521,-0.16003769636154,9.84015083312988,1.29226374626160,0.14707693457603,-0.29232242703438
68,613818452,-1.06300234794617,0.25263342261314,15.88321590423584,-0.02423383109272,-0.19243294000626,9.83522319793701,1.23068714141846,0.15768122673035,-0.35979032516479
69,613826785,-1.06214570999146,0.25253489613533,15.88288497924805,-0.03381148725748,-0.18088109791279,9.86162471771240,1.41846513748169,0.13885475695133,-0.35090222954750
70,613835118,-1.06166589260101,0.25262671709061,15.88294124603271,-0.04785967245698,-0.15527391433716,9.87862682342529,1.37246191501617,0.16113916039467,-0.31847459077835
71,613843451,-1.06157875061035,0.25153949856758,15.88351631164551,-0.04386134445667,-0.17737618088722,9.84561538696289,1.32548546791077,0.01849347725511,-0.24329683184624
72,613851784,-1.06217014789581,0.25049170851707,15.88356208801270,-0.05595669150352,-0.20584452152252,9.86258983612061,1.24490296840668,0.02259175479412,-0.32272654771805
73,613860117,-1.06171870231628,0.24968661367893,15.88349056243896,-0.04718730598688,-0.16441525518894,9.85799121856689,1.36915767192841,0.05368743464351,-0.32129216194153
74,613868450,-1.06271970272064,0.25030508637428,15.88357734680176,-0.05583509057760,-0.16754104197025,9.87644481658936,1.19569814205170,0.22391964495182,-0.30863875150681
75,613876783,-1.06364560127258,0.25044846534729,15.88312339782715,-0.06444711238146,-0.20525798201561,9.84267711639404,1.20415079593658,0.16838799417019,-0.36422163248062
76,613885116,-1.06381738185883,0.24999165534973,15.88316822052002,-0.05370354652405,-0.15418668091297,9.87083053588867,1.29487645626068,0.09469583630562,-0.31842336058617
77,613893449,-1.06368911266327,0.25108540058136,15.88427925109863,-0.03769548237324,-0.14615404605865,9.83368587493896,1.32996797561646,0.27806815505028,-0.17513734102249
78,613901782,-1.06368350982666,0.25109761953354,15.88390254974365,-0.04848197102547,-0.20556555688381,9.83879280090332,1.31639242172241,0.15271206200123,-0.36937007308006
79,613910115,-1.06316864490509,0.25052589178085,15.88453578948975,-0.04101451486349,-0.17409302294254,9.84743881225586,1.37684202194214,0.07948096841574,-0.23594555258751
80,613918448,-1.06341230869293,0.24985483288765,15.88477325439453,-0.02947686612606,-0.18248333036900,9.84312725067139,1.28598821163177,0.06762157380581,-0.29262983798981
81,613926781,-1.06297194957733,0.24975515902042,15.88535213470459,-0.03234515711665,-0.20147413015366,9.85925674438477,1.36774897575378,0.13726668059826,-0.24168312549591
82,613935114,-1.06282079219818,0.24931719899178,15.88528347015381,-0.02117956802249,-0.18270507454872,9.86736869812012,1.33350265026093,0.09784637391567,-0.32767009735107
83,613943447,-1.06222653388977,0.24899804592133,15.88538932800293,-0.04655056074262,-0.15704067051411,9.86506652832031,1.38637042045593,0.11057665199041,-0.29934075474739
84,613951780,-1.06243085861206,0.24905207753181,15.88539791107178,-0.05166484043002,-0.20804044604301,9.86484432220459,1.29131603240967,0.15629805624485,-0.32521110773087
85,613960113,-1.06229448318481,0.24916724860668,15.88517570495605,-0.04742334783077,-0.16971550881863,9.84910011291504,1.33163285255432,0.16403356194496,-0.33740350604057
86,613968446,-1.06228744983673,0.24935483932495,15.88535022735596,-0.06132860481739,-0.16473712027073,9.84451389312744,1.31634104251862,0.17146167159081,-0.29191264510155
87,613976779,-1.06175708770752,0.24927495419979,15.88510417938232,-0.05815960466862,-0.19088077545166,9.85576057434082,1.37909615039825,0.14064776897430,-0.33986246585846
88,613985112,-1.06143867969513,0.24900908768177,15.88522720336914,-0.04334622994065,-0.16794875264168,9.85212516784668,1.35340487957001,0.11813284456730,-0.32121530175209
89,613993445,-1.06184422969818,0.24923622608185,15.88545131683350,-0.02939830906689,-0.16287022829056,9.87485599517822,1.26670074462891,0.17673821747303,-0.28264027833939
90,614001778,-1.06174874305725,0.25022581219673,15.88512325286865,-0.00739587470889,-0.20693889260292,9.86565303802490,1.32638192176819,0.26946175098419,-0.35535907745361
91,614010111,-1.06207036972046,0.25055608153343,15.88526439666748,-0.02668010443449,-0.20173163712025,9.87670230865479,1.27658760547638,0.18934041261673,-0.29191264510155
92,614018444,-1.06227624416351,0.25000628829002,15.88464355468750,-0.04569218307734,-0.15784178674221,9.85563850402832,1.29139280319214,0.08414275199175,-0.40461522340775
93,614026777,-1.06240439414978,0.25010591745377,15.88465309143066,-0.03816055506468,-0.20879147946835,9.84233188629150,1.29935884475708,0.16308581829071,-0.30945834517479
94,614035110,-1.06264436244965,0.24969659745693,15.88495922088623,-0.05657183378935,-0.17734043300152,9.86283302307129,1.28652608394623,0.09887094795704,-0.28543221950531
95,614043443,-1.06356918811798,0.24993999302387,15.88458824157715,-0.03607894107699,-0.15342132747173,9.85846328735352,1.20432996749878,0.18045227229595,-0.35430890321732
96,614051776,-1.06405723094940,0.25032764673233,15.88436317443848,-0.05452628061175,-0.17420749366283,9.87208080291748,1.25706970691681,0.19694785773754,-0.37008729577065
97,614060109,-1.06398010253906,0.25020277500153,15.88480758666992,-0.04457640275359,-0.18753324449062,9.84425163269043,1.32402527332306,0.13360384106636,-0.25764074921608
98,614068442,-1.06367254257202,0.24979631602764,15.88588333129883,-0.05156494304538,-0.18099550902843,9.86381244659424,1.35217535495758,0.09840988367796,-0.20897370576859
99,614076775,-1.06417584419250,0.24959382414818,15.88627910614014,-0.04649347811937,-0.19311960041523,9.88771820068359,1.25479006767273,0.12456201761961,-0.26266115903854
100,614085108,-1.06409251689911,0.24992142617702,15.88622760772705,-0.03311766311526,-0.21033650636673,9.84240531921387,1.32517802715302,0.18898183107376,-0.31583631038666
101,614093441,-1.06420326232910,0.24953693151474,15.88637161254883,-0.03521357476711,-0.17141787707806,9.85341167449951,1.30204832553864,0.10332782566547,-0.29373121261597
102,614101774,-1.06396043300629,0.25017443299294,15.88623332977295,-0.02384042553604,-0.19196084141731,9.87636661529541,1.34426069259644,0.22658352553844,-0.33965757489204
103,614110107,-1.06366372108459,0.25020653009415,15.88564395904541,-0.04805279895663,-0.21076567471027,9.86168861389160,1.35112524032593,0.15578576922417,-0.38099893927574
104,614118440,-1.06363070011139,0.24935345351696,15.88520336151123,-0.04560652747750,-0.17717592418194,9.84789085388184,1.31949162483215,0.04800107702613,-0.38553264737129
105,614126773,-1.06324338912964,0.24926292896271,15.88579463958740,-0.04191554710269,-0.16920050978661,9.86837768554688,1.36167836189270,0.13742038607597,-0.23881433904171
106,614135106,-1.06325614452362,0.24938733875751,15.88591670989990,-0.05516272410750,-0.18772636353970,9.84574508666992,1.31365168094635,0.16518619656563,-0.30254253745079
107,614143439,-1.06314039230347,0.24955977499485,15.88670635223389,-0.05466917902231,-0.18990083038807,9.84030151367188,1.32873845100403,0.16772203147411,-0.21535168588161
108,614151772,-1.06316995620728,0.24943631887436,15.88656902313232,-0.04034903272986,-0.16472998261452,9.84155464172363,1.31255042552948,0.13519193232059,-0.33504703640938
109,614160105,-1.06240093708038,0.24899324774742,15.88615608215332,-0.05169359594584,-0.18858470022678,9.86344146728516,1.40773260593414,0.09797444194555,-0.36099418997765
110,614168438,-1.06224012374878,0.24932105839252,15.88598918914795,-0.04302450641990,-0.17586694657803,9.88425445556641,1.33475780487061,0.18905866146088,-0.33894035220146
111,614176771,-1.06187856197357,0.24943354725838,15.88599586486816,-0.03603602200747,-0.17178267240524,9.87444210052490,1.35845088958740,0.16452021896839,-0.30997064709663
112,614185104,-1.06156945228577,0.25011882185936,15.88619041442871,-0.03360420092940,-0.20007216930389,9.84761810302734,1.35227787494659,0.23132215440273,-0.30715307593346
113,614193437,-1.06140887737274,0.25012341141701,15.88622760772705,-0.05277367681265,-0.16612477600574,9.88579368591309,1.33462953567505,0.14920289814472,-0.30623096227646
114,614201770,-1.06145858764648,0.25040143728256,15.88633918762207,-0.04824592545629,-0.15993042290211,9.85447883605957,1.30983519554138,0.18370528519154,-0.31821843981743
115,614210103,-1.06140220165253,0.25040483474731,15.88695335388184,-0.04379674792290,-0.20272588729858,9.84475231170654,1.32159209251404,0.14899800717831,-0.23658588528633
116,614218436,-1.06140196323395,0.25003680586815,15.88678932189941,-0.04132197424769,-0.17690411210060,9.85678958892822,1.31572639942169,0.10481344163418,-0.33804386854172
117,614226769,-1.06177079677582,0.24997268617153,15.88650131225586,-0.03694428503513,-0.16208343207836,9.86130428314209,1.27100384235382,0.14302988350391,-0.34483161568642
118,614235102,-1.06211268901825,0.24954786896706,15.88729381561279,-0.03085736371577,-0.20498616993427,9.85919952392578,1.27371895313263,0.09774391353130,-0.22277979552746
119,614243435,-1.06200397014618,0.25010335445404,15.88654899597168,-0.06939670443535,-0.17558798193932,9.86253452301025,1.32850790023804,0.21779783070087,-0.39895451068878
120,614251768,-1.06162452697754,0.25082787871361,15.88656425476074,-0.02004226669669,-0.16806319355965,9.86429214477539,1.36101245880127,0.23682923614979,-0.32915574312210
121,614260101,-1.06142938137054,0.25119301676750,15.88581848144531,-0.02560002543032,-0.20161002874374,9.87038707733154,1.33906090259552,0.19520607590675,-0.39905697107315
122,614268434,-1.06101369857788,0.25138053297997,15.88591384887695,-0.03140113130212,-0.18508695065975,9.86375522613525,1.36536693572998,0.17205083370209,-0.31624615192413
123,614276767,-1.06163382530212,0.25146403908730,15.88560295104980,-0.03142989426851,-0.18697533011436,9.83110237121582,1.24083042144775,0.16060125827789,-0.34900677204132
124,614285100,-1.06181406974792,0.25142180919647,15.88585567474365,-0.03018512949347,-0.20098057389259,9.84613704681396,1.29377484321594,0.14405445754528,-0.29211750626564
125,614293433,-1.06203174591064,0.25169694423676,15.88533973693848,-0.04969795420766,-0.17880676686764,9.87144565582275,1.28929257392883,0.18280880153179,-0.37328907847404
126,614301766,-1.06095349788666,0.25176239013672,15.88518810272217,-0.04671521857381,-0.17491562664509,9.85320568084717,1.44471955299377,0.15801420807838,-0.33530312776566
127,614310099,-1.06027150154114,0.25150871276855,15.88555526733398,-0.04793120175600,-0.18930713832378,9.87580871582031,1.39730775356293,0.11849144101143,-0.26552996039391
128,614318432,-1.06039535999298,0.25137704610825,15.88617706298828,-0.05418267473578,-0.16870695352554,9.86179733276367,1.29997360706329,0.13304033875465,-0.25408038496971
129,614326765,-1.06082344055176,0.25073358416557,15.88539123535156,-0.06049159169197,-0.15855707228184,9.84992980957031,1.26421630382538,0.07438375055790,-0.40648511052132
130,614335098,-1.06145596504211,0.25105798244476,15.88533973693848,-0.05204408615828,-0.18874922394753,9.83874225616455,1.23970341682434,0.18923793733120,-0.33327960968018
131,614343431,-1.06136941909790,0.25180056691170,15.88529872894287,-0.02022838592529,-0.17523035407066,9.84282588958740,1.32540857791901,0.23872466385365,-0.31391525268555
132,614351764,-1.06087660789490,0.25102582573891,15.88527488708496,-0.03120070137084,-0.16388593614101,9.84421443939209,1.37489545345306,0.05722220614552,-0.34465235471725
133,614360097,-1.06089341640472,0.25117766857147,15.88562679290771,-0.05870325863361,-0.18410703539848,9.86518764495850,1.31293439865112,0.16713286936283,-0.26832190155983
134,614368430,-1.06091487407684,0.25165495276451,15.88514900207520,-0.02918360009789,-0.19511525332928,9.84009456634521,1.31301140785217,0.20803880691528,-0.37953895330429
135,614376763,-1.06056725978851,0.25211063027382,15.88484859466553,-0.03385440632701,-0.17095294594765,9.84070968627930,1.35731112957001,0.20528526604176,-0.34443461894989
136,614385096,-1.06027901172638,0.25235015153885,15.88461971282959,-0.05542006716132,-0.16859966516495,9.81426715850830,1.34969091415405,0.17871052026749,-0.34598430991173
137,614393429,-1.06040179729462,0.25254231691360,15.88416194915771,-0.06257306784391,-0.19983612000942,9.85784053802490,1.30092132091522,0.17381818592548,-0.36383739113808
138,614401762,-1.06019878387451,0.25209560990334,15.88401317596436,-0.05360355973244,-0.17535193264484,9.89134311676025,1.33965027332306,0.09677058458328,-0.34170672297478
139,614410095,-1.06033468246460,0.25204476714134,15.88471889495850,-0.05796663835645,-0.17078128457069,9.86669635772705,1.29887223243713,0.14141619205475,-0.22541807591915
140,614418428,-1.05992507934570,0.25182709097862,15.88496303558350,-0.04293865710497,-0.18660335242748,9.86970615386963,1.36395800113678,0.12333253771067,-0.29995548725128
141,614426761,-1.06000173091888,0.25114166736603,15.88519096374512,-0.05511980876327,-0.16059562563896,9.85996532440186,1.30609548091888,0.06739105284214,-0.28410029411316
142,614435094,-1.06026196479797,0.25126522779465,15.88545417785645,-0.03451259806752,-0.20668138563633,9.87714481353760,1.28411853313446,0.16454583406448,-0.29099053144455
143,614443427,-1.06080710887909,0.25140148401260,15.88518619537354,-0.02836817502975,-0.18994374573231,9.84289169311523,1.25007700920105,0.16516059637070,-0.34252634644508
144,614451760,-1.06079173088074,0.25167682766914,15.88459587097168,-0.01436272915453,-0.16802027821541,9.84140491485596,1.31721198558807,0.18421757221222,-0.39395970106125
145,614460093,-1.06052088737488,0.25189429521561,15.88466358184814,-0.04303164407611,-0.18196116387844,9.85997772216797,1.34728312492371,0.17645646631718,-0.30305480957031
146,614468426,-1.06029117107391,0.25264772772789,15.88501167297363,-0.03480573371053,-0.17406442761421,9.83758354187012,1.34287738800049,0.23908324539661,-0.27562195062637
147,614476759,-1.06053423881531,0.25344747304916,15.88553428649902,-0.05175797268748,-0.19457878172398,9.85902786254883,1.28547608852386,0.24466717243195,-0.24736946821213
148,614485092,-1.06089997291565,0.25363877415657,15.88516044616699,-0.04100724682212,-0.17744056880474,9.83920764923096,1.27218222618103,0.17427924275398,-0.36896026134491
149,614493425,-1.06136894226074,0.25424700975418,15.88553142547607,-0.05730857700109,-0.17005169391632,9.85752582550049,1.25904202461243,0.22161434590816,-0.26427486538887
150,614501758,-1.06101989746094,0.25422284007072,15.88540172576904,-0.06084906682372,-0.18439315259457,9.85817813873291,1.35704207420349,0.14623165130615,-0.35710084438324
151,614510091,-1.06048536300659,0.25404021143913,15.88588142395020,-0.03430503606796,-0.18103130161762,9.88841915130615,1.37904477119446,0.12801994383335,-0.25336322188377
152,614518424,-1.05989062786102,0.25424721837044,15.88556194305420,-0.02826803550124,-0.18756900727749,9.83473682403564,1.38654971122742,0.17491960525513,-0.35561522841454
153,614526757,-1.05964970588684,0.25464528799057,15.88549041748047,-0.03501316532493,-0.16731214523315,9.85463619232178,1.34420955181122,0.19853594899178,-0.31839779019356
154,614535090,-1.06026244163513,0.25485998392105,15.88641929626465,-0.03499886021018,-0.16712617874146,9.85417175292969,1.24159884452820,0.17202521860600,-0.21337941288948
155,614543423,-1.06043434143066,0.25570172071457,15.88560295104980,-0.04183679074049,-0.21122345328331,9.84226989746094,1.29492771625519,0.25317108631134,-0.40758651494980
156,614551756,-1.06014859676361,0.25566148757935,15.88468933105469,-0.04537763446569,-0.17163962125778,9.87693119049072,1.34966540336609,0.14692325890064,-0.42879509925842
157,614560089,-1.06056725978851,0.25595292448997,15.88412761688232,-0.04958350583911,-0.16496601700783,9.87161731719971,1.26526641845703,0.18624110519886,-0.37792521715164
158,614568422,-1.06071567535400,0.25574707984924,15.88348197937012,-0.05121417343616,-0.17798419296741,9.84196281433105,1.29823184013367,0.12681606411934,-0.40669000148773
159,614576755,-1.06039166450500,0.25593730807304,15.88339996337891,-0.05655737966299,-0.18219007551670,9.86684036254883,1.35409665107727,0.17228133976460,-0.32072868943214
160,614585088,-1.05985903739929,0.25623625516891,15.88406276702881,-0.04907553642988,-0.17070975899696,9.85825729370117,1.37868618965149,0.18485790491104,-0.25018703937531
161,614593421,-1.05953538417816,0.25629991292953,15.88403892517090,-0.04479110240936,-0.17253372073174,9.87409210205078,1.35430145263672,0.15745070576668,-0.31240400671959
162,614601754,-1.05946218967438,0.25638335943222,15.88379669189453,-0.05949019640684,-0.18106706440449,9.84183311462402,1.32412767410278,0.16001212596893,-0.34752109646797
163,614610087,-1.05959439277649,0.25576800107956,15.88362884521484,-0.02097928896546,-0.16970120370388,9.87140274047852,1.29984557628632,0.07525461912155,-0.33125606179237
164,614618420,-1.05976188182831,0.25653123855591,15.88450336456299,-0.04213035106659,-0.18500111997128,9.85195255279541,1.29431283473969,0.23946747183800,-0.23018231987953
165,614626753,-1.05956649780273,0.25645887851715,15.88490581512451,-0.03495582565665,-0.19307669997215,9.84384346008301,1.33867681026459,0.14095513522625,-0.26109871268272
166,614635086,-1.05968832969666,0.25649687647820,15.88523387908936,-0.04275969415903,-0.17284844815731,9.88331890106201,1.30066525936127,0.15355734527111,-0.30343902111053
167,614643419,-1.06032979488373,0.25624373555183,15.88518619537354,-0.04449068382382,-0.17542347311974,9.86427116394043,1.23849928379059,0.12043812870979,-0.31468364596367
168,614651752,-1.06053936481476,0.25613528490067,15.88494014739990,-0.05368923768401,-0.18286958336830,9.84412860870361,1.29008638858795,0.13680562376976,-0.35930365324020
169,614660085,-1.05997383594513,0.25631454586983,15.88487529754639,-0.05657898634672,-0.19369898736477,9.82623958587646,1.38316857814789,0.17135922610760,-0.31783419847488
170,614668418,-1.06028378009796,0.25633922219276,15.88505840301514,-0.04447651654482,-0.15809927880764,9.86421966552734,1.27797091007233,0.15199486911297,-0.31363347172737
171,614676751,-1.06058359146118,0.25590860843658,15.88505458831787,-0.04234483093023,-0.19675324857235,9.86560916900635,1.27932846546173,0.09910146892071,-0.31168681383133
172,614685084,-1.06100237369537,0.25541508197784,15.88507366180420,-0.05080637335777,-0.17440062761307,9.86995220184326,1.26475405693054,0.09067439287901,-0.31440192461014
173,614693417,-1.06110000610352,0.25593793392181,15.88533973693848,-0.03243099153042,-0.17852064967155,9.86093044281006,1.30335462093353,0.21172723174095,-0.27687707543373
174,614701750,-1.06074202060699,0.25607338547707,15.88596820831299,-0.04645044729114,-0.18399259448051,9.85848617553711,1.35791301727295,0.16341881453991,-0.24608875811100
175,614710083,-1.06024467945099,0.25660395622253,15.88644313812256,-0.02338967472315,-0.17430049180984,9.88545894622803,1.37440872192383,0.21357150375843,-0.25277408957481
176,614718416,-1.06041300296783,0.25630891323090,15.88729000091553,-0.03428357467055,-0.17668952047825,9.86080169677734,1.29477381706238,0.11231840401888,-0.22160154581070
177,614726749,-1.06050240993500,0.25641828775406,15.88747787475586,-0.04157935082912,-0.17553077638149,9.84556770324707,1.30463540554047,0.16162580251694,-0.28663608431816
178,614735082,-1.05980765819550,0.25681146979332,15.88732433319092,-0.05715836957097,-0.17213316261768,9.85842037200928,1.39876770973206,0.19746012985706,-0.33737790584564
179,614743415,-1.05976331233978,0.25657850503922,15.88749122619629,-0.06982591748238,-0.17771954834461,9.88479423522949,1.32018327713013,0.12128340452909,-0.29175892472267
180,614751748,-1.05935466289520,0.25672066211700,15.88764190673828,-0.04863933101296,-0.18442890048027,9.88004302978516,1.36459827423096,0.16695356369019,-0.31396648287773
181,614760081,-1.05933856964111,0.25693652033806,15.88851261138916,-0.05266638100147,-0.18286243081093,9.85884189605713,1.31646907329559,0.17392063140869,-0.20607931911945
182,614768414,-1.05911469459534,0.25692197680473,15.88824272155762,-0.04861088469625,-0.15997332334518,9.84161663055420,1.34277498722076,0.14820396900177,-0.35382220149040
183,614776747,-1.05911087989807,0.25798493623734,15.88837623596191,-0.03622199594975,-0.17565952241421,9.85677528381348,1.31557273864746,0.27645444869995,-0.29268106818199
184,614785080,-1.05960690975189,0.25833407044411,15.88864612579346,-0.02820392325521,-0.17376403510571,9.84803295135498,1.25548160076141,0.19185061752796,-0.30023723840714
185,614793413,-1.05987250804901,0.25831246376038,15.88811302185059,-0.03788877278566,-0.17593131959438,9.85660934448242,1.28345239162445,0.14925414323807,-0.37518447637558
186,614801746,-1.05975508689880,0.25829464197159,15.88842391967773,-0.03105049207807,-0.19685338437557,9.85266876220703,1.32971191406250,0.14635975658894,-0.29283478856087
187,614810079,-1.05979073047638,0.25823983550072,15.88908100128174,-0.02215235494077,-0.18969339132309,9.85303401947021,1.31032180786133,0.14210776984692,-0.23230828344822
188,614818412,-1.05967223644257,0.25817421078682,15.88919544219971,-0.04209433868527,-0.16352830827236,9.85785675048828,1.32935309410095,0.14128811657429,-0.30871555209160
189,614826745,-1.05949997901917,0.25799092650414,15.88878536224365,-0.05394674092531,-0.18073087930679,9.84362125396729,1.33598721027374,0.12773819267750,-0.36145526170731
190,614835078,-1.05941843986511,0.25907367467880,15.88894653320312,-0.03985578566790,-0.18030887842178,9.85045051574707,1.32520365715027,0.28086006641388,-0.31014996767044
191,614843411,-1.05923938751221,0.25891494750977,15.89007663726807,-0.05692232400179,-0.15164026618004,9.84139633178711,1.33619213104248,0.12830170989037,-0.17518857121468
192,614851744,-1.05936741828918,0.25851118564606,15.89032554626465,-0.04662938416004,-0.16387163102627,9.84994411468506,1.30007612705231,0.10002359002829,-0.30658957362175
193,614860077,-1.05941128730774,0.25877782702446,15.89057826995850,-0.05260200798512,-0.19048735499382,9.82447242736816,1.30960464477539,0.18173301219940,-0.28048869967461
194,614868410,-1.05938994884491,0.25872111320496,15.89008522033691,-0.05632863938808,-0.15788470208645,9.83646774291992,1.31841576099396,0.14336286485195,-0.38279190659523
195,614876743,-1.05963420867920,0.25868803262711,15.88964653015137,-0.04493416100740,-0.17260524630547,9.85450744628906,1.28606510162354,0.14761482179165,-0.36250543594360
196,614885076,-1.05987882614136,0.25882059335709,15.88956928253174,-0.03107925504446,-0.20686736702919,9.86116600036621,1.28624439239502,0.16546794772148,-0.33993932604790
197,614893409,-1.05968725681305,0.25870642066002,15.88936614990234,-0.03600025922060,-0.15555287897587,9.86049461364746,1.33816432952881,0.13642141222954,-0.33553367853165
198,614901742,-1.06024432182312,0.25822588801384,15.88938713073730,-0.03896868973970,-0.17987969517708,9.89078712463379,1.24877071380615,0.09315897524357,-0.32743957638741
199,614910075,-1.06026065349579,0.25827729701996,15.88951969146729,-0.03852534666657,-0.19440710544586,9.85999202728271,1.31334424018860,0.15463313460350,-0.29493510723114
200,614918408,-1.06050980091095,0.25804153084755,15.88989067077637,-0.06216535717249,-0.15462300181389,9.84821987152100,1.28527104854584,0.12174445390701,-0.28855714201927
201,614926741,-1.06036102771759,0.25903177261353,15.88984775543213,-0.05871053412557,-0.17433623969555,9.83798408508301,1.33277273178101,0.26847559213638,-0.31531125307083
202,614935074,-1.06010496616364,0.25924828648567,15.89025592803955,-0.07203628122807,-0.20899176597595,9.82332134246826,1.34582316875458,0.17466348409653,-0.26307103037834
203,614943407,-1.05889737606049,0.25900629162788,15.88956928253174,-0.02771031297743,-0.17328476905823,9.86686611175537,1.46083080768585,0.12133462727070,-0.39232039451599
204,614951740,-1.05843973159790,0.25860062241554,15.88966369628906,-0.04534887149930,-0.17372110486031,9.83788585662842,1.36987483501434,0.10104815661907,-0.32334128022194
205,614960073,-1.05870723724365,0.25896248221397,15.89048671722412,-0.05194385349751,-0.21213187277317,9.88231945037842,1.28237664699554,0.19233730435371,-0.21150957047939
206,614968406,-1.05892264842987,0.25947999954224,15.89105987548828,-0.07232955098152,-0.17744056880474,9.86985778808594,1.28926694393158,0.21060022711754,-0.25884467363358
207,614976739,-1.05867362022400,0.26008769869804,15.89069175720215,-0.02207367308438,-0.15936534106731,9.86252593994141,1.34546446800232,0.22269015014172,-0.35295134782791
208,614985072,-1.05862891674042,0.26065656542778,15.89128875732422,-0.03507754206657,-0.21135935187340,9.85507297515869,1.32020878791809,0.21702937781811,-0.25536110997200
209,614993405,-1.05782830715179,0.26019454002380,15.89115905761719,-0.04115761443973,-0.18448612093925,9.85869026184082,1.41185653209686,0.09426038712263,-0.32559534907341
210,615001738,-1.05706501007080,0.26033025979996,15.89201259613037,-0.04763077944517,-0.15626816451550,9.89237499237061,1.40619599819183,0.16457144916058,-0.23617604374886
211,615010071,-1.05720949172974,0.26116138696671,15.89246940612793,-0.03660824894905,-0.19792631268501,9.82754135131836,1.29779636859894,0.24835561215878,-0.25318387150764
212,615018404,-1.05712139606476,0.26089942455292,15.89277648925781,-0.03901888802648,-0.18655328452587,9.86843967437744,1.32566475868225,0.11690335720778,-0.28535541892052
213,615026737,-1.05690443515778,0.26083713769913,15.89299678802490,-0.06400363892317,-0.15472315251827,9.87057304382324,1.34141743183136,0.14236392080784,-0.28276833891869
214,615035070,-1.05744659900665,0.26025691628456,15.89343738555908,-0.04134343191981,-0.20011508464813,9.85367107391357,1.24910378456116,0.07878938317299,-0.26614469289780
215,615043403,-1.05712926387787,0.26059898734093,15.89326095581055,-0.02806075662374,-0.19452156126499,9.86194515228271,1.35368657112122,0.19156883656979,-0.32966798543930
216,615051736,-1.05659997463226,0.26137638092041,15.89344787597656,-0.03497024998069,-0.16729068756104,9.86394214630127,1.37835311889648,0.24161906540394,-0.28038620948792
217,615060069,-1.05700707435608,0.26097300648689,15.89280223846436,-0.02174481190741,-0.19751860201359,9.86334705352783,1.26682877540588,0.10325098037720,-0.38883692026138
218,615068402,-1.05669820308685,0.26094079017639,15.89281940460205,-0.03411190956831,-0.20155280828476,9.85624599456787,1.35258531570435,0.14513024687767,-0.31435069441795
219,615076735,-1.05655443668365,0.26087203621864,15.89266204833984,-0.04841759428382,-0.15057449042797,9.87928485870361,1.33250367641449,0.14323477447033,-0.33007782697678
220,615085068,-1.05694150924683,0.26060044765472,15.89270782470703,-0.04545617103577,-0.18120297789574,9.85262012481689,1.26928782463074,0.11567388474941,-0.33348453044891
221,615093401,-1.05726659297943,0.26042640209198,15.89203357696533,-0.06761582195759,-0.19805507361889,9.86528015136719,1.27610123157501,0.13191331923008,-0.39298638701439
222,615101734,-1.05689108371735,0.26040488481522,15.89303779602051,-0.04625743627548,-0.15277756750584,9.83221912384033,1.35975730419159,0.14436182379723,-0.20851266384125
223,615110067,-1.05674469470978,0.26109108328819,15.89308166503906,-0.04391130432487,-0.19236139953136,9.83796977996826,1.33281099796295,0.23183441162109,-0.30323410034180
224,615118400,-1.05629086494446,0.26163333654404,15.89400768280029,-0.03839656710625,-0.19988618791103,9.82680320739746,1.36918330192566,0.21264936029911,-0.21678607165813
225,615126733,-1.05626630783081,0.26163488626480,15.89415740966797,-0.03492733091116,-0.14681924879551,9.85318470001221,1.31805729866028,0.15058608353138,-0.29173332452774
226,615135066,-1.05648839473724,0.26232820749283,15.89443111419678,-0.04345352202654,-0.18164645135403,9.86990070343018,1.28865218162537,0.23214180767536,-0.28727644681931
227,615143399,-1.05664825439453,0.26246917247772,15.89447689056396,-0.02816803380847,-0.22421300411224,9.86602210998535,1.29569602012634,0.16633886098862,-0.30518081784248
228,615151732,-1.05631923675537,0.26125022768974,15.89432525634766,-0.02582876384258,-0.16519492864609,9.84144783020020,1.35506987571716,0.00366283534095,-0.32933506369591
229,615160065,-1.05690550804138,0.26074603199959,15.89448928833008,-0.05296680331230,-0.19041582942009,9.84690380096436,1.24451863765717,0.08931683003902,-0.29298838973045
230,615168398,-1.05643820762634,0.26071247458458,15.89471054077148,-0.03291724994779,-0.21610170602798,9.85424423217773,1.37164223194122,0.14351655542850,-0.28161570429802
231,615176731,-1.05682373046875,0.26017835736275,15.89434432983398,-0.04442630708218,-0.15068894624710,9.86142444610596,1.26895475387573,0.08719084411860,-0.35546153783798
232,615185064,-1.05660331249237,0.26011401414871,15.89349842071533,-0.06267321109772,-0.16618914902210,9.87859153747559,1.34259581565857,0.14361901581287,-0.43519869446754
233,615193397,-1.05715477466583,0.26031461358070,15.89331054687500,-0.02660857513547,-0.18764053285122,9.87378406524658,1.24892449378967,0.17445856332779,-0.33404803276062
234,615201730,-1.05724978446960,0.26072725653648,15.89358043670654,-0.05821698904037,-0.15499494969845,9.85420036315918,1.30366206169128,0.19920189678669,-0.28456133604050
235,615210063,-1.05756723880768,0.26054626703262,15.89383983612061,-0.05547745153308,-0.17693987488747,9.85880661010742,1.27734363079071,0.12700818479061,-0.27794006466866
236,615218396,-1.05726754665375,0.26031959056854,15.89331054687500,-0.05114997923374,-0.21043664216995,9.82893562316895,1.35127878189087,0.12445954978466,-0.39516359567642
237,615226729,-1.05702304840088,0.26027214527130,15.89259719848633,-0.04377558082342,-0.20231099426746,9.87448406219482,1.34497785568237,0.14461797475815,-0.39636743068695
238,615235062,-1.05708396434784,0.25967657566071,15.89272689819336,-0.03486281633377,-0.15725526213646,9.84163379669189,1.30817008018494,0.07855885475874,-0.31824404001236
239,615243395,-1.05743885040283,0.25895974040031,15.89270114898682,-0.02902623638511,-0.19663165509701,9.84153270721436,1.27233588695526,0.06411242485046,-0.31632295250893
240,615251728,-1.05768120288849,0.25894719362259,15.89251327514648,-0.03682269528508,-0.17384269833565,9.85160446166992,1.28657734394073,0.14792220294476,-0.32065179944038
241,615260061,-1.05781149864197,0.25893455743790,15.89225864410400,-0.04279561340809,-0.14664758741856,9.84668064117432,1.29981982707977,0.14846010506153,-0.34075894951820
242,615268394,-1.05829882621765,0.25919622182846,15.89221286773682,-0.02429806254804,-0.19424261152744,9.86352825164795,1.25660884380341,0.18140001595020,-0.33018031716347
243,615276727,-1.05781912803650,0.25915628671646,15.89233875274658,-0.05666482076049,-0.18289819359779,9.85098075866699,1.37271797657013,0.14474602043629,-0.29565230011940
244,615285060,-1.05828762054443,0.25845575332642,15.89261627197266,-0.05313847213984,-0.17357088625431,9.85454368591309,1.25883722305298,0.06529068201780,-0.29406425356865
245,615293393,-1.05854916572571,0.25835001468658,15.89270114898682,-0.03920473158360,-0.18624572455883,9.85285472869873,1.28399026393890,0.13644704222679,-0.29923829436302
246,615301726,-1.05879771709442,0.25835180282593,15.89314651489258,-0.03800293430686,-0.19173911213875,9.83820056915283,1.28545033931732,0.14938221871853,-0.27418756484985
247,615310059,-1.05888652801514,0.25844499468803,15.89309883117676,-0.05024858191609,-0.16254836320877,9.84327888488770,1.30427682399750,0.16131845116615,-0.31665596365929
248,615318392,-1.05904924869537,0.25792759656906,15.89293479919434,-0.03091458790004,-0.18495106697083,9.86002922058105,1.29620838165283,0.08721647411585,-0.33320274949074
249,615326725,-1.05875718593597,0.25815436244011,15.89234256744385,-0.02489922568202,-0.15539552271366,9.86803245544434,1.35068976879120,0.17871052026749,-0.38053786754608
250,615335058,-1.05875444412231,0.25885748863220,15.89254093170166,-0.04677959159017,-0.17349220812321,9.87192440032959,1.31549584865570,0.23421655595303,-0.31637421250343
251,615343391,-1.05894887447357,0.25870081782341,15.89245319366455,-0.04152239486575,-0.18924990296364,9.85527133941650,1.29198193550110,0.13109365105629,-0.32060056924820
252,615351724,-1.05883634090424,0.25913435220718,15.89255619049072,-0.04708716645837,-0.19060896337032,9.86394882202148,1.32899439334869,0.20078997313976,-0.30792152881622
253,615360057,-1.05922377109528,0.25949859619141,15.89348506927490,-0.05240888148546,-0.17284844815731,9.85899257659912,1.26798141002655,0.19156885147095,-0.19888170063496
254,615368390,-1.05997967720032,0.25911903381348,15.89367961883545,-0.04354650899768,-0.19613811373711,9.85806941986084,1.22461664676666,0.10422431677580,-0.28330627083778
255,615376723,-1.06062757968903,0.25966349244118,15.89363861083984,-0.04943329840899,-0.20472867786884,9.85726165771484,1.23744928836823,0.21426306664944,-0.31368470191956
256,615385056,-1.06070661544800,0.25983431935310,15.89344024658203,-0.06220112368464,-0.17281268537045,9.85881328582764,1.30555748939514,0.17138482630253,-0.34665024280548
257,615393389,-1.06041026115417,0.25991922616959,15.89393234252930,-0.05227297544479,-0.18352764844894,9.87640953063965,1.35081779956818,0.15934616327286,-0.25131407380104
258,615401722,-1.06000447273254,0.25850853323936,15.89418125152588,-0.05406118556857,-0.21774683892727,9.88141632080078,1.36398363113403,-0.02163122221828,-0.30200466513634
259,615410055,-1.05983221530914,0.25801247358322,15.89431858062744,-0.05544870346785,-0.17927171289921,9.84448051452637,1.33578240871429,0.09021333605051,-0.29483267664909
260,615418388,-1.05969405174255,0.25758320093155,15.89471435546875,-0.02293201535940,-0.16848520934582,9.83905029296875,1.33206832408905,0.09764146059752,-0.28617507219315
261,615426721,-1.05972135066986,0.25762474536896,15.89438629150391,-0.03826770931482,-0.17912864685059,9.82611751556396,1.31219148635864,0.15545277297497,-0.35003128647804
262,615435054,-1.05969655513763,0.25731179118156,15.89426040649414,-0.04017021507025,-0.17509445548058,9.86741256713867,1.31808292865753,0.11321491003036,-0.33399683237076
263,615443387,-1.05955040454865,0.25735944509506,15.89456748962402,-0.07788015156984,-0.18774066865444,9.87665939331055,1.33227312564850,0.15414646267891,-0.27505844831467
264,615451720,-1.05910134315491,0.25753715634346,15.89427375793457,-0.05898234248161,-0.19367037713528,9.84613132476807,1.36959302425385,0.17182028293610,-0.35031306743622
265,615460053,-1.05903673171997,0.25820028781891,15.89390850067139,-0.06888187676668,-0.17471534013748,9.86274051666260,1.32307767868042,0.22996459901333,-0.35318186879158
266,615468386,-1.05945515632629,0.25890254974365,15.89392566680908,-0.05748739838600,-0.15252722799778,9.85161018371582,1.26521515846252,0.23334570229053,-0.31655350327492
267,615476719,-1.05967557430267,0.25899103283882,15.89405536651611,-0.02598627842963,-0.18746885657310,9.85125255584717,1.28839600086212,0.16119037568569,-0.29455086588860
268,615485052,-1.05957102775574,0.25887519121170,15.89380264282227,-0.05313131585717,-0.17753356695175,9.83982276916504,1.32802128791809,0.13652385771275,-0.34916043281555
269,615493385,-1.06045067310333,0.25866514444351,15.89460849761963,-0.03968397155404,-0.15991610288620,9.86892032623291,1.20947837829590,0.12128340452909,-0.21335376799107
270,615501718,-1.05959796905518,0.25837758183479,15.89538002014160,-0.03263127058744,-0.18563057482243,9.85397815704346,1.41685140132904,0.11495668441057,-0.23307670652866
271,615510051,-1.05919027328491,0.25834429264069,15.89473152160645,-0.03364697471261,-0.19356308877468,9.85484409332275,1.36464965343475,0.14607797563076,-0.38783791661263
272,615518384,-1.05878734588623,0.25800246000290,15.89489555358887,-0.04232337325811,-0.18157492578030,9.86960029602051,1.36326634883881,0.10809206962585,-0.30635905265808
273,615526717,-1.05897748470306,0.25736576318741,15.89498043060303,-0.04059967026114,-0.19639560580254,9.87622928619385,1.29234051704407,0.07389706373215,-0.30151796340942
274,615535050,-1.05904448032379,0.25736391544342,15.89509487152100,-0.03824625164270,-0.18745455145836,9.85094547271729,1.30712008476257,0.14881870150566,-0.30213272571564
275,615543383,-1.05883646011353,0.25754752755165,15.89532756805420,-0.02555724047124,-0.18941442668438,9.86652278900146,1.34023916721344,0.17100062966347,-0.28205114603043
276,615551716,-1.05948019027710,0.25711771845818,15.89491939544678,-0.05044184997678,-0.18873491883278,9.86276149749756,1.23811519145966,0.09853795915842,-0.36422160267830
277,615560049,-1.06001484394073,0.25665301084518,15.89446544647217,-0.04789543524384,-0.18720421195030,9.85080242156982,1.25122988224030,0.09623268991709,-0.36619395017624
278,615568382,-1.05972397327423,0.25729259848595,15.89443778991699,-0.04461958259344,-0.15742692351341,9.87064266204834,1.35022878646851,0.22640423476696,-0.32444271445274
279,615576715,-1.05958473682404,0.25797444581985,15.89421939849854,-0.03535650297999,-0.19197514653206,9.85505104064941,1.33227312564850,0.23193690180779,-0.33502137660980
280,615585048,-1.05951821804047,0.25849485397339,15.89432144165039,-0.02274604141712,-0.19884188473225,9.86766147613525,1.32289862632751,0.21077956259251,-0.30784469842911
281,615593381,-1.06012237071991,0.25806987285614,15.89365100860596,-0.00703873252496,-0.17277692258358,9.85904121398926,1.24305891990662,0.10153483599424,-0.39080920815468
282,615601714,-1.06036520004272,0.25868347287178,15.89427852630615,-0.02907642163336,-0.16695450246334,9.82947826385498,1.28601396083832,0.22169122099876,-0.25679549574852
283,615610047,-1.06002426147461,0.25835931301117,15.89395141601562,-0.03694443404675,-0.20807620882988,9.87876987457275,1.35640168190002,0.11162683367729,-0.35054358839989
284,615618380,-1.06015717983246,0.25889667868614,15.89378166198730,-0.05285936221480,-0.17404296994209,9.84861469268799,1.29905152320862,0.21446798741817,-0.33584102988243
285,615626713,-1.06052827835083,0.25914007425308,15.89360427856445,-0.05591362714767,-0.18612413108349,9.85616111755371,1.27087581157684,0.18017053604126,-0.33099994063377
286,615635046,-1.06066071987152,0.25971531867981,15.89347457885742,-0.06883896142244,-0.19644567370415,9.83570289611816,1.29935884475708,0.21831011772156,-0.34065648913383
287,615643379,-1.06107211112976,0.26001051068306,15.89323234558105,-0.03785984963179,-0.17089572548866,9.87552356719971,1.26580429077148,0.18531899154186,-0.33963194489479
288,615651712,-1.06174540519714,0.25985094904900,15.89319610595703,-0.04686542600393,-0.16563838720322,9.86401367187500,1.23406827449799,0.13155470788479,-0.31727072596550
289,615660045,-1.06119871139526,0.25989285111427,15.89270114898682,-0.06243001297116,-0.20176024734974,9.87427806854248,1.38111948966980,0.15601631999016,-0.37036907672882
290,615668378,-1.06092977523804,0.25934725999832,15.89305782318115,-0.02549273148179,-0.18745455145836,9.85857009887695,1.34728300571442,0.08234975486994,-0.27810654044151
291,615676711,-1.06085419654846,0.25984928011894,15.89344024658203,-0.03474147617817,-0.18244755268097,9.88504219055176,1.32420480251312,0.20914024114609,-0.26248186826706
292,615685044,-1.06013333797455,0.26017919182777,15.89346313476562,-0.05018434673548,-0.18794095516205,9.86674594879150,1.40163648128510,0.18967340886593,-0.31555458903313
293,615693377,-1.05976414680481,0.25998139381409,15.89351558685303,-0.03725915774703,-0.15027408301830,9.86362743377686,1.35944986343384,0.12525360286236,-0.30395129323006
294,615701710,-1.05969965457916,0.25979483127594,15.89333152770996,-0.03906882926822,-0.16641089320183,9.83627510070801,1.32328259944916,0.12743081152439,-0.34434497356415
295,615710043,-1.05974733829498,0.25950175523758,15.89301395416260,-0.05928991362453,-0.19613811373711,9.87114524841309,1.30963027477264,0.11605809628963,-0.34913480281830
296,615718376,-1.05858945846558,0.25979015231133,15.89274406433105,-0.04311733692884,-0.17683258652687,9.85904216766357,1.45450437068939,0.18470427393913,-0.35610195994377
297,615726709,-1.05880105495453,0.25987753272057,15.89290237426758,-0.04928295686841,-0.16736938059330,9.83408737182617,1.28944611549377,0.16019143164158,-0.29193827509880
298,615735042,-1.05880522727966,0.26000839471817,15.89311981201172,-0.04626458883286,-0.18131741881371,9.85283374786377,1.31447136402130,0.16554479300976,-0.29549860954285
299,615743375,-1.05833971500397,0.25994580984116,15.89263153076172,-0.03581411018968,-0.19933544099331,9.86270618438721,1.37159097194672,0.14205653965473,-0.36814060807228
300,615751708,-1.05786645412445,0.26001372933388,15.89274692535400,-0.03745228424668,-0.17814870178699,9.85414981842041,1.37205207347870,0.15829597413540,-0.31196856498718
301,615760041,-1.05789387226105,0.26021978259087,15.89222812652588,-0.03855365514755,-0.18115289509296,9.85802078247070,1.31221723556519,0.17476591467857,-0.37264865636826
302,615768374,-1.05839145183563,0.25981029868126,15.89220046997070,-0.01709529384971,-0.18615989387035,9.87677383422852,1.25527679920197,0.10197027772665,-0.32393041253090
303,615776707,-1.05794322490692,0.25930529832840,15.89193439483643,-0.03115079365671,-0.18983644247055,9.86655139923096,1.36913204193115,0.08975227177143,-0.34411442279816
304,615785040,-1.05853331089020,0.25914734601974,15.89233398437500,-0.01633709296584,-0.16794875264168,9.86609554290771,1.24375033378601,0.12935188412666,-0.25866535305977
305,615793373,-1.05935800075531,0.25952464342117,15.89288425445557,-0.02567155286670,-0.19615957140923,9.87236118316650,1.21621513366699,0.19310569763184,-0.24345049262047
306,615801706,-1.06310045719147,0.25480017066002,15.89731693267822,-0.05888201668859,-0.17589557170868,9.86791992187500,1.30445623397827,0.15243031084538,-0.41419500112534
307,615810039,-1.06312298774719,0.25468042492867,15.89734745025635,-0.05160060897470,-0.17938615381718,9.87144565582275,1.31252479553223,0.13549931347370,-0.30692261457443
308,615818372,-1.06257045269012,0.25446295738220,15.89698219299316,-0.05147185921669,-0.18797671794891,9.85278320312500,1.38188803195953,0.12456202507019,-0.37262308597565
309,615826705,-1.06226694583893,0.25428602099419,15.89747047424316,-0.05943297222257,-0.16492310166359,9.86257553100586,1.35191929340363,0.12743079662323,-0.25249230861664
310,615835038,-1.06246888637543,0.25460058450699,15.89694404602051,-0.04054231569171,-0.19870597124100,9.88008594512939,1.29121363162994,0.18898181617260,-0.38489231467247
311,615843371,-1.06213963031769,0.25525432825089,15.89753913879395,-0.02194503322244,-0.15309944748878,9.84154510498047,1.35466015338898,0.22799232602119,-0.23771291971207
312,615851704,-1.06173610687256,0.25585785508156,15.89633464813232,-0.02687344513834,-0.17399291694164,9.85287570953369,1.36429095268250,0.22491858899593,-0.45325669646263
313,615860037,-1.06214153766632,0.25601613521576,15.89629173278809,-0.03562831133604,-0.19254738092422,9.87505054473877,1.26695704460144,0.16872096061707,-0.31639981269836
314,615868370,-1.06146931648254,0.25686308741570,15.89621353149414,-0.04331030324101,-0.17263385653496,9.89674663543701,1.39615499973297,0.25206968188286,-0.32536479830742
315,615876703,-1.06069338321686,0.25710844993591,15.89653301239014,-0.03401163965464,-0.16962252557278,9.83930206298828,1.40857791900635,0.17855681478977,-0.27272754907608
316,615885036,-1.06107711791992,0.25666835904121,15.89684867858887,-0.03583574295044,-0.16286307573318,9.83465862274170,1.26931345462799,0.09623268991709,-0.27521216869354
317,615893369,-1.06158542633057,0.25674918293953,15.89719200134277,-0.02620801702142,-0.18609552085400,9.85684680938721,1.25425219535828,0.15868018567562,-0.27021738886833
318,615901702,-1.06093800067902,0.25694900751114,15.89693737030029,-0.04851773381233,-0.17097440361977,9.84990119934082,1.39292776584625,0.17507329583168,-0.32577463984489
319,615910035,-1.06031882762909,0.25636303424835,15.89731311798096,-0.05649315193295,-0.15931527316570,9.87451362609863,1.38985395431519,0.07817464321852,-0.26696434617043
320,615918368,-1.06030130386353,0.25563398003578,15.89653682708740,-0.04413304105401,-0.18124589323997,9.86399173736572,1.31769883632660,0.06475278735161,-0.41293990612030
321,615926701,-1.06009793281555,0.25609755516052,15.89599895477295,-0.04179406166077,-0.18292680382729,9.84956455230713,1.34039294719696,0.20693741738796,-0.37446731328964
322,615935034,-1.05991780757904,0.25619378685951,15.89541816711426,-0.02057157643139,-0.18559481203556,9.85203266143799,1.33721673488617,0.16370058059692,-0.39380607008934
323,615943367,-1.05951273441315,0.25583687424660,15.89522361755371,-0.04308872669935,-0.17339922487736,9.83418655395508,1.36454701423645,0.10632468014956,-0.33463716506958
324,615951700,-1.05821061134338,0.25631901621819,15.89612865447998,-0.02647982537746,-0.17223329842091,9.83352088928223,1.47153782844543,0.20563109219074,-0.20879444479942
325,615960033,-1.05819201469421,0.25667670369148,15.89586830139160,-0.03836784884334,-0.18631725013256,9.85183906555176,1.31787800788879,0.19374607503414,-0.34162983298302
326,615968366,-1.05779635906219,0.25669276714325,15.89595603942871,-0.04391845688224,-0.17312026023865,9.85652446746826,1.36265182495117,0.15196926891804,-0.30226078629494
327,615976699,-1.05847203731537,0.25640252232552,15.89572048187256,-0.04512013494968,-0.19434989988804,9.84915733337402,1.23409390449524,0.11567389965057,-0.34162986278534
328,615985032,-1.05825161933899,0.25600314140320,15.89621543884277,-0.03727346286178,-0.17460805177689,9.82892894744873,1.34195542335510,0.10099692642689,-0.26168784499168
329,615993365,-1.05768275260925,0.25655400753021,15.89501190185547,-0.05549175664783,-0.18455764651299,9.84091663360596,1.38416767120361,0.21979576349258,-0.45553633570671
330,616001698,-1.05733001232147,0.25625208020210,15.89476776123047,-0.05318138748407,-0.16912181675434,9.85010147094727,1.35829734802246,0.11365035921335,-0.34949344396591
331,616010031,-1.05790162086487,0.25596591830254,15.89418888092041,-0.02894755452871,-0.18968623876572,9.86493587493896,1.24715685844421,0.11756931245327,-0.38046100735664
332,616018364,-1.05754804611206,0.25644248723984,15.89403152465820,-0.05085655674338,-0.18275512754917,9.87533092498779,1.35804104804993,0.20750090479851,-0.33476522564888
333,616026697,-1.05740964412689,0.25660470128059,15.89389801025391,-0.04218746721745,-0.19233278930187,9.84357070922852,1.33247792720795,0.16966868937016,-0.32562094926834
334,616035030,-1.05722475051880,0.25716680288315,15.89254951477051,-0.03208072111011,-0.18945735692978,9.86969184875488,1.33875346183777,0.21925784647465,-0.47213438153267
335,616043363,-1.05727672576904,0.25669917464256,15.89194965362549,-0.03408329561353,-0.18044476211071,9.84030151367188,1.30937409400940,0.09582284837961,-0.38409826159477
336,616051696,-1.05701911449432,0.25644320249557,15.89228439331055,-0.02668010443449,-0.17487986385822,9.85367774963379,1.34630966186523,0.11818407475948,-0.28983786702156
337,616060029,-1.05628597736359,0.25699928402901,15.89221763610840,-0.04653639718890,-0.20332671701908,9.84684658050537,1.40342938899994,0.21723428368568,-0.31765490770340
338,616068362,-1.05657255649567,0.25695171952248,15.89268112182617,-0.06184336543083,-0.15856422483921,9.87216186523438,1.28096795082092,0.14343972504139,-0.26140606403351
339,616076695,-1.05672383308411,0.25732618570328,15.89361095428467,-0.06020556762815,-0.18127448856831,9.85683822631836,1.29677188396454,0.19331061840057,-0.19877927005291
340,616085028,-1.05714309215546,0.25698369741440,15.89380264282227,-0.03219494596124,-0.19004388153553,9.86523723602295,1.26529204845428,0.10816892236471,-0.30220955610275
341,616093361,-1.05754923820496,0.25737974047661,15.89394283294678,-0.05594953894615,-0.19063042104244,9.85864162445068,1.26664960384369,0.19766506552696,-0.29347512125969
342,616101694,-1.05777287483215,0.25781708955765,15.89407730102539,-0.05632135272026,-0.17496569454670,9.87976551055908,1.28844726085663,0.20268544554710,-0.30341342091560
343,616110027,-1.05707561969757,0.25774854421616,15.89501857757568,-0.04534902423620,-0.17465096712112,9.86306190490723,1.39874207973480,0.13987933099270,-0.19819015264511
344,616118360,-1.05741035938263,0.25801709294319,15.89541149139404,-0.03734511137009,-0.17225475609303,9.86717414855957,1.27502536773682,0.18081088364124,-0.27175420522690
345,616126693,-1.05785918235779,0.25862255692482,15.89563941955566,-0.03208037838340,-0.18503689765930,9.89128875732422,1.26162910461426,0.22163994610310,-0.28299883008003
346,616135026,-1.05792164802551,0.25832459330559,15.89560222625732,-0.04768815264106,-0.16043826937675,9.87373352050781,1.30745315551758,0.11534091085196,-0.32882279157639
347,616143359,-1.05821621417999,0.25879776477814,15.89512634277344,-0.05052768439054,-0.16070292890072,9.84970760345459,1.28045558929443,0.20668126642704,-0.36750024557114
348,616151692,-1.05833578109741,0.25942173600197,15.89548301696777,-0.04125759750605,-0.18050199747086,9.84334945678711,1.30117750167847,0.22386841475964,-0.28051429986954
349,616160025,-1.05843639373779,0.25922921299934,15.89573192596436,-0.06956842541695,-0.18017296493053,9.84552478790283,1.30358517169952,0.12717467546463,-0.28056553006172
350,616168358,-1.05844819545746,0.25895726680756,15.89618968963623,-0.05863888561726,-0.18156062066555,9.86636066436768,1.31349802017212,0.11636546999216,-0.26719486713409
351,616176691,-1.05849015712738,0.25844642519951,15.89590263366699,-0.04995529726148,-0.18392105400562,9.88196182250977,1.31042420864105,0.09013648331165,-0.34744429588318
352,616185024,-1.05917167663574,0.25797012448311,15.89556503295898,-0.03813211619854,-0.20750397443771,9.86956310272217,1.23378622531891,0.09341511130333,-0.36440086364746
353,616193357,-1.05918955802917,0.25750753283501,15.89583110809326,-0.04233780503273,-0.16658970713615,9.86318969726562,1.31326735019684,0.09374810010195,-0.27964338660240
354,616201690,-1.05930542945862,0.25795099139214,15.89520645141602,-0.04715887084603,-0.19168904423714,9.87620830535889,1.30197179317474,0.20493951439857,-0.39513802528381
355,616210023,-1.06005537509918,0.25841537117958,15.89532566070557,-0.06696491688490,-0.17084565758705,9.84769821166992,1.22556424140930,0.20450404286385,-0.29516562819481
356,616218356,-1.06027984619141,0.25892966985703,15.89533233642578,-0.04089995473623,-0.17724744975567,9.84498023986816,1.28888261318207,0.21252126991749,-0.31801351904869
357,616226689,-1.05970716476440,0.25937971472740,15.89583492279053,-0.03267418593168,-0.18693955242634,9.85123825073242,1.38368082046509,0.20278787612915,-0.25159582495689
358,616235022,-1.05974400043488,0.25921526551247,15.89631462097168,-0.04273108392954,-0.17677536606789,9.85776233673096,1.31093657016754,0.12919819355011,-0.26181590557098
359,616243355,-1.05949652194977,0.25890132784843,15.89714241027832,-0.03943362459540,-0.18088109791279,9.86129570007324,1.34443998336792,0.11090963333845,-0.21389165520668
360,616251688,-1.05958080291748,0.25935626029968,15.89782047271729,-0.04625039547682,-0.19203951954842,9.83983612060547,1.30501961708069,0.20219875872135,-0.24798421561718
361,616260021,-1.06040263175964,0.25968527793884,15.89792156219482,-0.05170049518347,-0.19126699864864,9.87178993225098,1.21706032752991,0.18985269963741,-0.29639509320259
362,616268354,-1.06066143512726,0.25973364710808,15.89741706848145,-0.03382562845945,-0.17754071950912,9.85141181945801,1.28437471389771,0.15642614662647,-0.37892419099808
363,616276687,-1.06124162673950,0.25961378216743,15.89776039123535,-0.04995545372367,-0.18037323653698,9.85922145843506,1.24538969993591,0.13608843088150,-0.27103701233864
364,616285020,-1.06165659427643,0.26055485010147,15.89780139923096,-0.04059940204024,-0.18096691370010,9.86008834838867,1.26593220233917,0.26257151365280,-0.30254250764847
365,616293353,-1.06226086616516,0.26085090637207,15.89792442321777,-0.05657183378935,-0.18039469420910,9.86196041107178,1.24300742149353,0.18437126278877,-0.29631826281548
366,616301686,-1.06115210056305,0.26158785820007,15.89791584014893,-0.04471242055297,-0.17136780917645,9.85663223266602,1.44838249683380,0.23839166760445,-0.33192205429077
367,616310019,-1.06116557121277,0.26140362024307,15.89773654937744,-0.03227362781763,-0.17184704542160,9.86831283569336,1.31385648250580,0.12917259335518,-0.33266487717628
368,616318352,-1.06126594543457,0.26177617907524,15.89788913726807,-0.02886887453496,-0.19507949054241,9.85632419586182,1.30317533016205,0.19461692869663,-0.29613894224167
369,616326685,-1.06132602691650,0.26180860400200,15.89744853973389,-0.03396186232567,-0.18442174792290,9.85608005523682,1.30878484249115,0.15406961739063,-0.36288967728615
370,616335018,-1.06140089035034,0.26264593005180,15.89731311798096,-0.03361120820045,-0.15410085022449,9.81825733184814,1.30645406246185,0.25068652629852,-0.32905325293541
371,616343351,-1.06060552597046,0.26294770836830,15.89713954925537,-0.04056377336383,-0.18821990489960,9.84358501434326,1.41093456745148,0.18621550500393,-0.33156347274780
372,616351684,-1.06039905548096,0.26321262121201,15.89706897735596,-0.06053466349840,-0.19343432784081,9.85931968688965,1.33995747566223,0.18291124701500,-0.33023154735565
373,616360017,-1.05997097492218,0.26336887478828,15.89700412750244,-0.04351789504290,-0.16631075739861,9.86232566833496,1.36695480346680,0.16818307340145,-0.31931984424591
374,616368350,-1.05978250503540,0.26302000880241,15.89761924743652,-0.03718752041459,-0.17988686263561,9.88373565673828,1.33765208721161,0.10763101279736,-0.24339926242828
375,616376683,-1.05942749977112,0.26328977942467,15.89765834808350,-0.02838948927820,-0.18470071256161,9.85495185852051,1.35824596881866,0.18273194134235,-0.30561622977257
376,616385016,-1.06010401248932,0.26373091340065,15.89798927307129,-0.02690184302628,-0.17291282117367,9.84716892242432,1.23465728759766,0.20130224525928,-0.28935119509697
377,616393349,-1.05964350700378,0.26372531056404,15.89775562286377,-0.05253031849861,-0.17042364180088,9.87337779998779,1.37066888809204,0.14961273968220,-0.33927336335182
378,616401682,-1.05898785591125,0.26388928294182,15.89804744720459,-0.05215123668313,-0.20565855503082,9.86961555480957,1.39369595050812,0.16997605562210,-0.29163086414337
379,616410015,-1.05892479419708,0.26433864235878,15.89815330505371,-0.05075657367706,-0.18256200850010,9.84682559967041,1.32320582866669,0.20327457785606,-0.29698425531387
380,616418348,-1.05913066864014,0.26442828774452,15.89845085144043,-0.06363156437874,-0.18016581237316,9.85156154632568,1.29062449932098,0.16047316789627,-0.28143641352654
381,616426681,-1.05936658382416,0.26495850086212,15.89783191680908,-0.04663636535406,-0.17768377065659,9.86133956909180,1.28760182857513,0.21464727818966,-0.38438001275063
382,616435014,-1.06025278568268,0.26617076992989,15.89778137207031,-0.04810287058353,-0.20753973722458,9.85728263854980,1.20891499519348,0.29507598280907,-0.32536482810974
383,616443347,-1.06142127513885,0.26553261280060,15.89802360534668,-0.06406085938215,-0.19384919106960,9.87575149536133,1.17533469200134,0.07420443743467,-0.28256344795227
384,616451680,-1.06069231033325,0.26471233367920,15.89874458312988,-0.03399030864239,-0.18742594122887,9.85412883758545,1.40245616436005,0.04882072657347,-0.23251318931580
385,616460013,-1.06136238574982,0.26449760794640,15.89813804626465,-0.05600675940514,-0.18852747976780,9.85912132263184,1.23519527912140,0.12679046392441,-0.38555824756622
386,616468346,-1.06091988086700,0.26470547914505,15.89748382568359,-0.03249555453658,-0.18809831142426,9.84216022491455,1.36902964115143,0.17609786987305,-0.40451282262802
387,616476679,-1.06149494647980,0.26466622948647,15.89700126647949,-0.05323145911098,-0.17356373369694,9.84659671783447,1.24672162532806,0.14676956832409,-0.36947253346443
388,616485012,-1.06114149093628,0.26397433876991,15.89775753021240,-0.03986994549632,-0.17636765539646,9.81990242004395,1.35770833492279,0.06529068946838,-0.22339457273483
389,616493345,-1.06127715110779,0.26420131325722,15.89738655090332,-0.03572129830718,-0.17678967118263,9.84871387481689,1.29951250553131,0.17686627805233,-0.35543593764305
390,616501678,-1.06131207942963,0.26412141323090,15.89736747741699,-0.06146438047290,-0.18130311369896,9.84882831573486,1.31119263172150,0.14141617715359,-0.32582584023476
391,616510011,-1.06189882755280,0.26370999217033,15.89681148529053,-0.05895373225212,-0.18726143240929,9.87555122375488,1.24562036991119,0.10156044363976,-0.37866804003716
392,616518344,-1.06277835369110,0.26396855711937,15.89695453643799,-0.05032740160823,-0.19441427290440,9.82359313964844,1.21040058135986,0.18083648383617,-0.30630782246590
393,616526677,-1.06259107589722,0.26380583643913,15.89699077606201,-0.06105666607618,-0.16679714620113,9.84346389770508,1.33767759799957,0.13029959797859,-0.30792152881622
394,616535010,-1.06178092956543,0.26347780227661,15.89614486694336,-0.04731605574489,-0.14478069543839,9.84947204589844,1.41329097747803,0.11306122690439,-0.42472243309021
395,616543343,-1.06194138526917,0.26275232434273,15.89640140533447,-0.04127190262079,-0.18291965126991,9.83824157714844,1.29605472087860,0.06190960109234,-0.28228166699409
396,616551676,-1.06130516529083,0.26291838288307,15.89595603942871,-0.03966251388192,-0.19180348515511,9.85254764556885,1.39164686203003,0.17025779187679,-0.37318655848503
397,616560009,-1.05977332592010,0.26259094476700,15.89701271057129,-0.04830324649811,-0.16385731101036,9.83365535736084,1.49871432781219,0.10978259146214,-0.18502442538738
398,616568342,-1.06011724472046,0.26279202103615,15.89795017242432,-0.04572812467813,-0.16141104698181,9.88247489929199,1.27402639389038,0.17092378437519,-0.20356911420822
399,616576675,-1.05995166301727,0.26252183318138,15.89801502227783,-0.04431901499629,-0.19167473912239,9.85814857482910,1.33514189720154,0.11808162182570,-0.30500152707100
400,616585008,-1.05964267253876,0.26264682412148,15.89826297760010,-0.02891179174185,-0.17422895133495,9.86051559448242,1.35227775573730,0.16431529819965,-0.28945362567902
401,616593341,-1.05962407588959,0.26322159171104,15.89777946472168,-0.02258867770433,-0.17640341818333,9.85855579376221,1.31810843944550,0.22028240561485,-0.36629638075829
402,616601674,-1.05970704555511,0.26401802897453,15.89721393585205,-0.04177242517471,-0.19518677890301,9.85937976837158,1.30555748939514,0.24699808657169,-0.38770988583565
403,616610007,-1.05879437923431,0.26337310671806,15.89651107788086,-0.04548473283648,-0.18314139544964,9.85430812835693,1.42571389675140,0.07371776551008,-0.39582952857018
404,616618340,-1.05917704105377,0.26356109976768,15.89691066741943,-0.05659329518676,-0.18528008460999,9.86378479003906,1.26944136619568,0.17064203321934,-0.26227691769600
405,616626673,-1.05922043323517,0.26369324326515,15.89653968811035,-0.04126491025090,-0.17091716825962,9.83852005004883,1.31039845943451,0.16767078638077,-0.35566645860672
406,616635006,-1.05956482887268,0.26459157466888,15.89712333679199,-0.04085692763329,-0.16441525518894,9.85978794097900,1.27371895313263,0.25655218958855,-0.24836841225624
407,616643339,-1.05890965461731,0.26443278789520,15.89738655090332,-0.04226601496339,-0.18606691062450,9.86955165863037,1.39387536048889,0.13068382441998,-0.28051427006721
408,616651672,-1.05847573280334,0.26425069570541,15.89754581451416,-0.03602171689272,-0.19751860201359,9.87469291687012,1.36774897575378,0.12735398113728,-0.29498630762100
409,616660005,-1.05739796161652,0.26460117101669,15.89725208282471,-0.03646519407630,-0.18757615983486,9.84884262084961,1.44471967220306,0.19172255694866,-0.34677833318710
410,616668338,-1.05773937702179,0.26487463712692,15.89781665802002,-0.04459797590971,-0.18261922895908,9.83884239196777,1.27410316467285,0.18229649960995,-0.25203126668930
411,616676671,-1.05755531787872,0.26441815495491,15.89733028411865,-0.05261631309986,-0.18603113293648,9.87153148651123,1.33780574798584,0.09669373929501,-0.37093251943588
412,616685004,-1.05809998512268,0.26486778259277,15.89669513702393,-0.04550638794899,-0.18653184175491,9.85481548309326,1.25002574920654,0.20517002046108,-0.39739203453064
413,616693337,-1.05826568603516,0.26503187417984,15.89704036712646,-0.05056344717741,-0.19638130068779,9.86828422546387,1.29551661014557,0.16920763254166,-0.26868048310280
414,616701670,-1.05834317207336,0.26573461294174,15.89708614349365,-0.06140701472759,-0.17681826651096,9.87437915802002,1.30571103096008,0.23362742364407,-0.30763971805573
415,616710003,-1.05844867229462,0.26563692092896,15.89704036712646,-0.05456918105483,-0.19074484705925,9.84955692291260,1.30307304859161,0.13841933012009,-0.31614372134209
416,616718336,-1.05925667285919,0.26558312773705,15.89771938323975,-0.05469043552876,-0.18267644941807,9.89639568328857,1.21790564060211,0.14190286397934,-0.23553568124771
417,616726669,-1.05913376808167,0.26598799228668,15.89774703979492,-0.04254496842623,-0.18168221414089,9.84380054473877,1.33030092716217,0.19866400957108,-0.30671766400337
418,616735002,-1.05882644653320,0.26572108268738,15.89796257019043,-0.04100009426475,-0.18627433478832,9.85658168792725,1.35204732418060,0.11672406643629,-0.29759901762009
419,616743335,-1.05870318412781,0.26584553718567,15.89809226989746,-0.03779562190175,-0.18117435276508,9.87824821472168,1.33042895793915,0.16513496637344,-0.29460212588310
420,616751668,-1.05916893482208,0.26592305302620,15.89820098876953,-0.04700133204460,-0.16824917495251,9.84073066711426,1.25914466381073,0.15811668336391,-0.30707630515099
421,616760001,-1.05962860584259,0.26573169231415,15.89818382263184,-0.04014175385237,-0.17925024032593,9.85191059112549,1.26037395000458,0.12840415537357,-0.31347981095314
422,616768334,-1.05957138538361,0.26662433147430,15.89855670928955,-0.04826010018587,-0.16952952742577,9.84473800659180,1.32225799560547,0.25588619709015,-0.27577564120293
423,616776667,-1.05997717380524,0.26772978901863,15.89772605895996,-0.04661507904530,-0.18518710136414,9.86423492431641,1.26739227771759,0.28444606065750,-0.40791946649551
424,616785000,-1.05987381935120,0.26761686801910,15.89802360534668,-0.04638618603349,-0.18176804482937,9.85789775848389,1.32766258716583,0.13624212145805,-0.30010920763016
425,616793333,-1.05970931053162,0.26778122782707,15.89804077148438,-0.05126442387700,-0.17097440361977,9.84075927734375,1.33537256717682,0.16987362504005,-0.30746051669121
426,616801666,-1.06038832664490,0.26765438914299,15.89796543121338,-0.04076405242085,-0.16613192856312,9.87728977203369,1.23404252529144,0.13411612808704,-0.33381748199463
427,616809999,-1.06078600883484,0.26741033792496,15.89799308776855,-0.03202341124415,-0.16317780315876,9.87899780273438,1.26769959926605,0.12118093669415,-0.30771660804749
428,616818332,-1.06026160717010,0.26739844679832,15.89807319641113,-0.05441167578101,-0.18013720214367,9.85272598266602,1.37825071811676,0.14787097275257,-0.30776780843735
429,616826665,-1.06038594245911,0.26803615689278,15.89847469329834,-0.03543506935239,-0.17040218412876,9.87496566772461,1.30012726783752,0.22630175948143,-0.26140606403351
430,616834998,-1.06093144416809,0.26754850149155,15.89780139923096,-0.02147998660803,-0.17363525927067,9.86671066284180,1.25079429149628,0.09269791096449,-0.40497383475304
431,616843331,-1.06082820892334,0.26771888136864,15.89807701110840,-0.03886152058840,-0.18186818063259,9.85572910308838,1.32779061794281,0.16989919543266,-0.27831146121025
432,616851664,-1.05984723567963,0.26795330643654,15.89882278442383,-0.03728061914444,-0.18641023337841,9.86852741241455,1.43288588523865,0.17558556795120,-0.22813317179680
433,616859997,-1.05965280532837,0.26820740103722,15.89834785461426,-0.03228776529431,-0.17638909816742,9.87106037139893,1.33913791179657,0.18221966922283,-0.36703920364380
434,616868330,-1.05949032306671,0.26866343617439,15.89817905426025,-0.03474135696888,-0.18477223813534,9.85622406005859,1.33516740798950,0.20463210344315,-0.34834074974060
435,616876663,-1.06014287471771,0.26906672120094,15.89851570129395,-0.05335305631161,-0.16221217811108,9.83540916442871,1.23691129684448,0.19733206927776,-0.26955139636993
436,616884996,-1.06074619293213,0.26813998818398,15.89931774139404,-0.04776668548584,-0.16935071349144,9.82066059112549,1.24267470836639,0.03734555467963,-0.23940347135067
437,616893329,-1.06152629852295,0.26885369420052,15.89956378936768,-0.04398998245597,-0.18641023337841,9.84741878509521,1.22192692756653,0.23611201345921,-0.27923357486725
438,616901662,-1.06123530864716,0.26886126399040,15.89940357208252,-0.05522694438696,-0.16101765632629,9.86063194274902,1.35015189647675,0.14979204535484,-0.33522629737854
439,616909995,-1.06178104877472,0.26899722218513,15.89880943298340,-0.04359657689929,-0.16444386541843,9.85156726837158,1.25017952919006,0.16869534552097,-0.38251018524170
440,616918328,-1.06173193454742,0.26841109991074,15.89909076690674,-0.03931931033731,-0.18719704449177,9.82917118072510,1.32131040096283,0.07876376807690,-0.29716351628304
441,616926661,-1.06190645694733,0.26824164390564,15.89890861511230,-0.04753063991666,-0.17241212725639,9.83317089080811,1.29449212551117,0.12965925037861,-0.33394560217857
442,616934994,-1.06191110610962,0.26872667670250,15.90000629425049,-0.02952685207129,-0.16577430069447,9.84299278259277,1.31477880477905,0.20552863180637,-0.18348759412766
443,616943327,-1.06160414218903,0.26866421103477,15.90017032623291,-0.02131533436477,-0.18872061371803,9.84141159057617,1.35212433338165,0.14269693195820,-0.29206633567810
444,616951660,-1.06134998798370,0.26891952753067,15.89977741241455,-0.03522775322199,-0.18613843619823,9.86968612670898,1.34602808952332,0.18099018931389,-0.36194193363190
445,616959993,-1.06179714202881,0.26833695173264,15.89973449707031,-0.02826088294387,-0.17240497469902,9.85704708099365,1.26188528537750,0.07999325543642,-0.31706577539444
446,616968326,-1.06175005435944,0.26838260889053,15.90018844604492,-0.05020580440760,-0.18477939069271,9.87718963623047,1.32082355022430,0.15437699854374,-0.26975628733635
447,616976659,-1.06119000911713,0.26820820569992,15.89982700347900,-0.06193646788597,-0.19267612695694,9.86948585510254,1.38280999660492,0.12955680489540,-0.35525664687157
448,616984992,-1.06198239326477,0.26849767565727,15.90015125274658,-0.04903989285231,-0.17443637549877,9.85851287841797,1.21982669830322,0.18521651625633,-0.28873646259308
449,616993325,-1.06180691719055,0.26849755644798,15.90041065216064,-0.05563494190574,-0.18051628768444,9.87963390350342,1.33665311336517,0.14838325977325,-0.27931043505669
450,617001658,-1.06139230728149,0.26877388358116,15.90128326416016,-0.04368241131306,-0.18572357296944,9.87017917633057,1.36452150344849,0.18147686123848,-0.21665799617767
451,617009991,-1.06201529502869,0.26812729239464,15.90121364593506,-0.03361863270402,-0.16091750562191,9.85319042205811,1.24068951606750,0.07293652743101,-0.32097193598747
452,617018324,-1.06197154521942,0.26754993200302,15.90221405029297,-0.02968429774046,-0.16860681772232,9.86444282531738,1.32023453712463,0.07766236364841,-0.20192982256413
453,617026657,-1.06177473068237,0.26769778132439,15.90227413177490,-0.03204473480582,-0.16782715916634,9.85924243927002,1.33908653259277,0.16779884696007,-0.30372077226639
454,617034990,-1.06205904483795,0.26854932308197,15.90327262878418,-0.04150088503957,-0.16025944054127,9.85239601135254,1.28012263774872,0.25017422437668,-0.20231401920319
455,617043323,-1.06247782707214,0.26873490214348,15.90308094024658,-0.05873184651136,-0.16699743270874,9.86023139953613,1.26565062999725,0.17238382995129,-0.33325400948524
456,617051656,-1.06311905384064,0.26912969350815,15.90321826934814,-0.05125011876225,-0.18143185973167,9.87071609497070,1.23816645145416,0.19712714850903,-0.30940714478493
457,617059989,-1.06311714649200,0.26873347163200,15.90353012084961,-0.05334590375423,-0.17327046394348,9.85794830322266,1.31539332866669,0.10271307826042,-0.27500721812248
458,617068322,-1.06360602378845,0.26877221465111,15.90359687805176,-0.02784601785243,-0.19536559283733,9.87459945678711,1.25650632381439,0.15399278700352,-0.31588754057884
459,617076655,-1.06302690505981,0.26852118968964,15.90374565124512,-0.05144338682294,-0.16845659911633,9.86321830749512,1.38488483428955,0.11882442981005,-0.29383367300034
460,617084988,-1.06290805339813,0.26854109764099,15.90386009216309,-0.03551386669278,-0.16277009248734,9.85103797912598,1.32948124408722,0.15230223536491,-0.32008832693100
461,617093321,-1.06299662590027,0.26828485727310,15.90369987487793,-0.04280261322856,-0.19710373878479,9.86257553100586,1.30486607551575,0.12002831697464,-0.33051329851151
462,617101654,-1.06259691715240,0.26776361465454,15.90373325347900,-0.04955504462123,-0.19288355112076,9.89770984649658,1.36357378959656,0.08824103325605,-0.32031878829002
463,617109987,-1.06267535686493,0.26722362637520,15.90345382690430,-0.03770978748798,-0.16676138341427,9.85910701751709,1.30614650249481,0.08539785444736,-0.34606111049652
464,617118320,-1.06266808509827,0.26694586873055,15.90393161773682,-0.03336086124182,-0.18954318761826,9.84519481658936,1.31593132019043,0.11518720537424,-0.26391628384590
465,617126653,-1.06335580348969,0.26775538921356,15.90347766876221,-0.05599976703525,-0.18217577040195,9.83701229095459,1.23317170143127,0.24722857773304,-0.36345314979553
466,617134986,-1.06290876865387,0.26728773117065,15.90260791778564,-0.04834606498480,-0.14440874755383,9.81871509552002,1.36961877346039,0.09615583717823,-0.42331361770630
467,617143319,-1.06325221061707,0.26745396852493,15.90274333953857,-0.04470513761044,-0.19483630359173,9.85998821258545,1.27397525310516,0.16928449273109,-0.29501196742058
468,617151652,-1.06282639503479,0.26781421899796,15.90193748474121,-0.04105712845922,-0.18303409218788,9.87803459167480,1.36746704578400,0.19477061927319,-0.40553733706474
469,617159985,-1.06261157989502,0.26787701249123,15.90166091918945,-0.05110706388950,-0.18121013045311,9.86238288879395,1.34154546260834,0.15875703096390,-0.34303858876228
470,617168318,-1.06319737434387,0.26720649003983,15.90154647827148,-0.03482719138265,-0.19254738092422,9.85821247100830,1.24510800838470,0.06915843486786,-0.33432978391647
471,617176651,-1.06340646743774,0.26637813448906,15.90113162994385,-0.02004941925406,-0.19015116989613,9.85879898071289,1.29052209854126,0.05250918120146,-0.36227497458458
472,617184984,-1.06407213211060,0.26732203364372,15.90192699432373,-0.03831043466926,-0.16535939276218,9.86100387573242,1.23504149913788,0.26044553518295,-0.22326646745205
473,617193317,-1.06493115425110,0.26791656017303,15.90102863311768,-0.02781740576029,-0.16539518535137,9.88633060455322,1.21283400058746,0.22399649024010,-0.41685888171196
474,617201650,-1.06499302387238,0.26813444495201,15.90116882324219,-0.04851058125496,-0.19745422899723,9.85943603515625,1.30777323246002,0.17454820871353,-0.29430755972862
475,617209983,-1.06454706192017,0.26846128702164,15.90129375457764,-0.03393322601914,-0.16715477406979,9.87195205688477,1.36864542961121,0.18967342376709,-0.29588285088539
476,617218316,-1.06439828872681,0.26897135376930,15.90123748779297,-0.06531260907650,-0.17199011147022,9.86048030853271,1.33329772949219,0.21062584221363,-0.32457074522972
477,617226649,-1.06390917301178,0.26910424232483,15.90228366851807,-0.06638544797897,-0.19432128965855,9.86616802215576,1.37366592884064,0.16385428607464,-0.18512688577175
478,617234982,-1.06448113918304,0.26853144168854,15.90222454071045,-0.05592064186931,-0.18062359094620,9.83910179138184,1.24700331687927,0.08035185933113,-0.32882273197174
479,617243315,-1.06403362751007,0.26850229501724,15.90177726745605,-0.04465502873063,-0.17822024226189,9.85404396057129,1.36936259269714,0.14825516939163,-0.36437529325485
480,617251648,-1.06407403945923,0.26805257797241,15.90183448791504,-0.03234515711665,-0.17676106095314,9.85780525207520,1.31047534942627,0.09515687823296,-0.30028846859932
481,617259981,-1.06454336643219,0.26808711886406,15.90137386322021,-0.04958366230130,-0.18507264554501,9.83851242065430,1.25965690612793,0.15442821383476,-0.36468270421028
482,617268314,-1.06341743469238,0.26850634813309,15.90108871459961,-0.04214455187321,-0.19015833735466,9.85863494873047,1.45050847530365,0.20171208679676,-0.34516459703445
483,617276647,-1.06409132480621,0.26835235953331,15.90180110931396,-0.03567837923765,-0.17537340521812,9.87547969818115,1.23429870605469,0.12947995960712,-0.22616088390350
484,617284980,-1.06477916240692,0.26790016889572,15.90169143676758,-0.03324670344591,-0.16836363077164,9.85393428802490,1.23268508911133,0.09651444852352,-0.34109199047089
485,617293313,-1.06530439853668,0.26875481009483,15.90210151672363,-0.03868280351162,-0.18467211723328,9.87117195129395,1.25204920768738,0.25163424015045,-0.26084256172180
486,617301646,-1.06473112106323,0.26855623722076,15.90245628356934,-0.03189466148615,-0.17698279023170,9.88484859466553,1.38391149044037,0.12540729343891,-0.27966901659966
487,617309979,-1.06458759307861,0.26900961995125,15.90290927886963,-0.04523457959294,-0.16512337327003,9.86390590667725,1.33245241641998,0.20224998891354,-0.25561723113060
488,617318312,-1.06474506855011,0.26882538199425,15.90295982360840,-0.05476216599345,-0.19308383762836,9.81922245025635,1.29631090164185,0.12842977046967,-0.31102085113525
489,617326645,-1.06437480449677,0.26872828602791,15.90331840515137,-0.04369671642780,-0.17783397436142,9.87127399444580,1.35962915420532,0.13649825751781,-0.26793771982193
490,617334978,-1.06439614295959,0.26827773451805,15.90304374694824,-0.03497724235058,-0.17465811967850,9.87299156188965,1.31349802017212,0.09641198068857,-0.35377100110054
491,617343311,-1.06404459476471,0.26786190271378,15.90382575988770,-0.04919714853168,-0.17354944348335,9.88246917724609,1.35711896419525,0.09812813252211,-0.21952679753304
492,617351644,-1.06456959247589,0.26875802874565,15.90412330627441,-0.03542087972164,-0.17679682374001,9.83073139190674,1.25233113765717,0.25755113363266,-0.28937685489655
493,617359977,-1.06468760967255,0.26743960380554,15.90434837341309,-0.04750918224454,-0.19141007959843,9.87866973876953,1.30127990245819,-0.00982305780053,-0.28694346547127
494,617368310,-1.06493413448334,0.26732823252678,15.90374755859375,-0.03426944464445,-0.17264100909233,9.83839797973633,1.28588581085205,0.13936704397202,-0.39447200298309
495,617376643,-1.06469678878784,0.26759544014931,15.90311241149902,-0.02509932592511,-0.17804141342640,9.86175346374512,1.34459364414215,0.18252703547478,-0.38630107045174
496,617384976,-1.06468701362610,0.26772239804268,15.90341281890869,-0.02418376132846,-0.17807717621326,9.86301231384277,1.31616175174713,0.16464830935001,-0.27721002697945
497,617393309,-1.06450140476227,0.26824346184731,15.90339756011963,-0.04059953615069,-0.17051662504673,9.88480663299561,1.33772897720337,0.21285431087017,-0.31222474575043
498,617401642,-1.06446599960327,0.26721417903900,15.90357303619385,-0.04757342487574,-0.18406413495541,9.82813644409180,1.31946611404419,0.02553739398718,-0.29844427108765
499,617409975,-1.06426167488098,0.26704061031342,15.90310192108154,-0.03685843199492,-0.17795558273792,9.84383678436279,1.34031605720520,0.12914697825909,-0.36778199672699
500,617418308,-1.06432700157166,0.26707020401955,15.90370941162109,-0.04333203285933,-0.18640308082104,9.82509422302246,1.30712008476257,0.15260961651802,-0.24711331725121
501,617426641,-1.06435227394104,0.26664817333221,15.90419483184814,-0.03068581037223,-0.17750494182110,9.82962131500244,1.31244778633118,0.09756461530924,-0.25313267111778
502,617434974,-1.06375896930695,0.26679971814156,15.90386390686035,-0.04828151315451,-0.16791298985481,9.85857200622559,1.38634479045868,0.16997605562210,-0.36691108345985
503,617443307,-1.06375026702881,0.26663774251938,15.90391445159912,-0.05805247277021,-0.18374222517014,9.88020801544189,1.31657171249390,0.12963365018368,-0.30589801073074
504,617451640,-1.06438040733337,0.26638299226761,15.90426635742188,-0.04035634174943,-0.20647396147251,9.85945034027100,1.23937034606934,0.11854268610477,-0.27979710698128
505,617459973,-1.06425023078918,0.26707828044891,15.90320396423340,-0.05451181530952,-0.18621711432934,9.85039424896240,1.33155596256256,0.23570217192173,-0.43681234121323
506,617468306,-1.06425940990448,0.26685452461243,15.90366554260254,-0.06901778280735,-0.16145397722721,9.86486434936523,1.31390786170959,0.12123217433691,-0.25154462456703
507,617476639,-1.06391298770905,0.26708644628525,15.90384483337402,-0.05457619205117,-0.17578111588955,9.85520839691162,1.35686290264130,0.17735299468040,-0.29101613163948
508,617484972,-1.06373953819275,0.26772317290306,15.90520763397217,-0.06370329856873,-0.19090221822262,9.88285255432129,1.33552610874176,0.22445751726627,-0.17831347882748
509,617493305,-1.06313812732697,0.26772502064705,15.90517807006836,-0.03838215395808,-0.17259094119072,9.85467243194580,1.38759994506836,0.15002256631851,-0.31458121538162
510,617501638,-1.06393432617188,0.26721134781837,15.90605640411377,-0.05283785983920,-0.19254024326801,9.83875846862793,1.21944272518158,0.08624313771725,-0.22662197053432
511,617509971,-1.06416344642639,0.26705634593964,15.90602874755859,-0.05705107375979,-0.16864973306656,9.85612392425537,1.28752505779266,0.13181084394455,-0.31596440076828
512,617518304,-1.06517660617828,0.26669350266457,15.90569019317627,-0.04208017513156,-0.17719022929668,9.85522270202637,1.19418692588806,0.10663206875324,-0.36363250017166
513,617526637,-1.06496167182922,0.26765567064285,15.90606594085693,-0.03848944976926,-0.18303409218788,9.86695384979248,1.34121251106262,0.26454383134842,-0.26317343115807
514,617534970,-1.06409573554993,0.26917928457260,15.90622997283936,-0.04098578915000,-0.14955164492130,9.85106658935547,1.41882395744324,0.33193489909172,-0.28976103663445
515,617543303,-1.06376564502716,0.27018907666206,15.90585994720459,-0.02396901138127,-0.16606754064560,9.84589672088623,1.35512113571167,0.27220249176025,-0.35436016321182
516,617551636,-1.06426823139191,0.26996701955795,15.90529251098633,-0.01755307614803,-0.19424259662628,9.86788368225098,1.25527656078339,0.12389604747295,-0.38530209660530
517,617559969,-1.06435465812683,0.27055525779724,15.90539360046387,-0.05050622299314,-0.20475013554096,9.87126636505127,1.30501961708069,0.22048732638359,-0.29749652743340
518,617568302,-1.06387007236481,0.27082771062851,15.90526008605957,-0.03945508226752,-0.14851447939873,9.84889221191406,1.37323033809662,0.18321861326694,-0.34403759241104
519,617576635,-1.06382942199707,0.27069756388664,15.90494918823242,-0.05488376319408,-0.17826315760612,9.85107421875000,1.32072126865387,0.13450033962727,-0.34764918684959
520,617584968,-1.06382954120636,0.27096223831177,15.90527725219727,-0.06037714704871,-0.21713170409203,9.85947895050049,1.31500923633575,0.18091332912445,-0.29452526569366
521,617593301,-1.06414258480072,0.27137333154678,15.90559482574463,-0.04457639902830,-0.17593848705292,9.88485145568848,1.27748429775238,0.19820295274258,-0.27231773734093
522,617601634,-1.06381654739380,0.27095445990562,15.90639019012451,-0.04138645529747,-0.17848488688469,9.86379051208496,1.35437834262848,0.09753900766373,-0.22431667149067
523,617609967,-1.06358754634857,0.27037003636360,15.90562725067139,-0.04988374188542,-0.20050850510597,9.87999439239502,1.34303104877472,0.08222169429064,-0.40497386455536
524,617618300,-1.06392860412598,0.27050438523293,15.90618228912354,-0.01330440305173,-0.17897842824459,9.85464954376221,1.27407753467560,0.16472513973713,-0.26237940788269
525,617626633,-1.06430518627167,0.27058228850365,15.90639019012451,-0.02647267095745,-0.17484408617020,9.85970020294189,1.27033793926239,0.15798860788345,-0.28571397066116
526,617634966,-1.06462311744690,0.27055561542511,15.90711307525635,-0.05394674092531,-0.18834866583347,9.86398506164551,1.27681827545166,0.14571936428547,-0.23571495711803
527,617643299,-1.06535279750824,0.26979577541351,15.90633964538574,-0.04298858717084,-0.16697596013546,9.89788913726807,1.22833061218262,0.06050083041191,-0.40474331378937
528,617651632,-1.06594443321228,0.27013063430786,15.90692996978760,-0.04924753680825,-0.17005884647369,9.85273933410645,1.24382722377777,0.18872566521168,-0.24462875723839
529,617659965,-1.06556236743927,0.27014023065567,15.90692996978760,-0.07006924599409,-0.21281853318214,9.87507152557373,1.36106359958649,0.14945904910564,-0.31194296479225
530,617668298,-1.06544601917267,0.27038535475731,15.90604782104492,-0.03147250786424,-0.18995805084705,9.86331939697266,1.32994222640991,0.18239895999432,-0.42251959443092
531,617676631,-1.06612944602966,0.27016142010689,15.90550994873047,-0.04848197102547,-0.16385732591152,9.86044406890869,1.23391461372375,0.12328131496906,-0.37536382675171
532,617684964,-1.06612098217010,0.27027395367622,15.90548896789551,-0.03697304427624,-0.21299020946026,9.85048770904541,1.31667423248291,0.16393110156059,-0.31867954134941
533,617693297,-1.06660866737366,0.26988813281059,15.90560531616211,-0.03529927879572,-0.19386349618435,9.85152435302734,1.25699317455292,0.10238010436296,-0.29762461781502
534,617701630,-1.06737816333771,0.26982519030571,15.90557098388672,-0.03777416422963,-0.16533796489239,9.85795497894287,1.22272109985352,0.14313234388828,-0.34032350778580
535,617709963,-1.06767165660858,0.26969960331917,15.90603160858154,-0.02841813117266,-0.17513737082481,9.85786342620850,1.28007149696350,0.13365508615971,-0.25477200746536
536,617718296,-1.06775033473969,0.26946255564690,15.90631675720215,-0.04705867916346,-0.19012971222401,9.84070873260498,1.30565989017487,0.11995146423578,-0.27897739410400
537,617726629,-1.06804001331329,0.26904666423798,15.90655422210693,-0.02029964327812,-0.16687583923340,9.84357929229736,1.28071177005768,0.09892218559980,-0.28312695026398
538,617734962,-1.06772458553314,0.26836583018303,15.90657711029053,-0.03132945299149,-0.17555221915245,9.87519359588623,1.35273909568787,0.06931211799383,-0.32339254021645
539,617743295,-1.06806898117065,0.26772662997246,15.90630149841309,-0.04914003238082,-0.17623889446259,9.86346244812012,1.27456438541412,0.07269319891930,-0.34501093626022
540,617751628,-1.06779825687408,0.26788210868835,15.90656471252441,-0.03861805796623,-0.19208244979382,9.86628913879395,1.34774410724640,0.16900271177292,-0.30223515629768
541,617759961,-1.06719970703125,0.26831832528114,15.90645885467529,-0.06782325357199,-0.17589555680752,9.84577369689941,1.38736939430237,0.20232683420181,-0.32270094752312
542,617768294,-1.06744897365570,0.26830366253853,15.90651226043701,-0.04890412837267,-0.17567381262779,9.87084293365479,1.28545045852661,0.14825519919395,-0.32118970155716
543,617776627,-1.06737744808197,0.26814442873001,15.90640926361084,-0.06150729581714,-0.18710406124592,9.85094547271729,1.32412791252136,0.13058137893677,-0.32346937060356
544,617784960,-1.06612789630890,0.26796445250511,15.90552616119385,-0.04950504377484,-0.17889259755611,9.84942817687988,1.46608197689056,0.12973611056805,-0.42743754386902
545,617793293,-1.06534516811371,0.26840978860855,15.90561866760254,-0.02864698879421,-0.18829859793186,9.86829185485840,1.40937197208405,0.20299279689789,-0.29900774359703
546,617801626,-1.06193923950195,0.25714647769928,15.90762329101562,-0.03299606591463,-0.16707611083984,9.84559535980225,1.38138854503632,0.01727680116892,-0.31582352519035
547,617809959,-1.06131279468536,0.25783523917198,15.90770053863525,-0.02841824479401,-0.19922813773155,9.83104610443115,1.39021253585815,0.23278215527534,-0.30072391033173
548,617818292,-1.06152224540710,0.25751605629921,15.90702247619629,-0.04496992379427,-0.20068016648293,9.85171794891357,1.29029142856598,0.11380404233932,-0.41534763574600
549,617826625,-1.06139075756073,0.25810918211937,15.90670299530029,-0.05255210027099,-0.18592385947704,9.86544322967529,1.33155596256256,0.22156314551830,-0.34698322415352
550,617834958,-1.06130218505859,0.25864073634148,15.90742492675781,-0.04828884452581,-0.19528691470623,9.85972213745117,1.32481920719147,0.21321284770966,-0.23207774758339
551,617843291,-1.06095182895660,0.25964194536209,15.90692996978760,-0.06183650344610,-0.20289754867554,9.85735988616943,1.35752868652344,0.27217683196068,-0.36790999770164
552,617851624,-1.05995523929596,0.25870913267136,15.90715599060059,-0.04950469359756,-0.17945054173470,9.86558151245117,1.43490958213806,0.03670519590378,-0.27093455195427
553,617859957,-1.05985450744629,0.25887876749039,15.90753841400146,-0.04054231569171,-0.17560230195522,9.84651088714600,1.32720148563385,0.17023219168186,-0.26499205827713
554,617868290,-1.06017148494720,0.25867995619774,15.90726280212402,-0.03809619694948,-0.18631725013256,9.89156532287598,1.27681827545166,0.12725150585175,-0.35510292649269
555,617876623,-1.05983710289001,0.25840803980827,15.90735340118408,-0.05058490484953,-0.18504405021667,9.88346958160400,1.35509550571442,0.11828653514385,-0.30149233341217
556,617884956,-1.06031489372253,0.25804284214973,15.90800285339355,-0.05542737990618,-0.17400005459785,9.85369968414307,1.25773572921753,0.10455730557442,-0.24329681694508
557,617893289,-1.05990338325500,0.25867074728012,15.90796470642090,-0.03917612135410,-0.20934225618839,9.88258266448975,1.36482894420624,0.22589196264744,-0.31391525268555
558,617901622,-1.06006526947021,0.25912263989449,15.90823841094971,-0.02256006747484,-0.18180380761623,9.89316177368164,1.29538857936859,0.20424789190292,-0.27180543541908
559,617909955,-1.05943334102631,0.25948882102966,15.90778064727783,-0.02603634819388,-0.17652501165867,9.90148067474365,1.39087855815887,0.19551345705986,-0.36693671345711
560,617918288,-1.05952191352844,0.26028165221214,15.90793418884277,-0.03868257626891,-0.19456447660923,9.83098888397217,1.30463540554047,0.24510259926319,-0.31826967000961
561,617926621,-1.05901706218719,0.26003706455231,15.90782451629639,-0.04041356220841,-0.19173911213875,9.87136650085449,1.37561249732971,0.12207744270563,-0.32498061656952
562,617934954,-1.05833613872528,0.25964328646660,15.90829658508301,-0.05765919387341,-0.18735440075397,9.87233829498291,1.39715409278870,0.10115061700344,-0.26191839575768
563,617943287,-1.05829870700836,0.25885012745857,15.90765762329102,-0.04949749633670,-0.20279026031494,9.85362911224365,1.31974780559540,0.05793939530849,-0.38975900411606
564,617951620,-1.05841624736786,0.25862449407578,15.90799427032471,-0.05901095271111,-0.19512240588665,9.86341953277588,1.30051136016846,0.12310200929642,-0.28965854644775
565,617959953,-1.05834925174713,0.25844180583954,15.90841388702393,-0.04086419194937,-0.17487271130085,9.86412811279297,1.32325708866119,0.12658554315567,-0.26089379191399
566,617968286,-1.05822312831879,0.25824660062790,15.90904045104980,-0.04667241126299,-0.16982994973660,9.87162303924561,1.33032643795013,0.12609887123108,-0.24567888677120
567,617976619,-1.05840265750885,0.25835630297661,15.90891933441162,-0.03182299807668,-0.19767597317696,9.81688308715820,1.29367256164551,0.16385427117348,-0.32580024003983
568,617984952,-1.05847620964050,0.25857514142990,15.90928363800049,-0.03506336361170,-0.17299865186214,9.87917613983154,1.30637717247009,0.17509891092777,-0.27869567275047
569,617993285,-1.05814385414124,0.25883021950722,15.90931701660156,-0.03577136620879,-0.15495203435421,9.88326930999756,1.35509550571442,0.18142563104630,-0.30679449439049
570,618001618,-1.05830991268158,0.25875747203827,15.90895843505859,-0.03837484121323,-0.19411386549473,9.85933017730713,1.29541432857513,0.14328603446484,-0.36350443959236
571,618009951,-1.05885827541351,0.25879162549973,15.90824794769287,-0.04176545143127,-0.18758331239223,9.84284877777100,1.25002574920654,0.15581139922142,-0.39590638875961
572,618018284,-1.05887663364410,0.25932961702347,15.90797138214111,-0.05193663388491,-0.19151736795902,9.86205482482910,1.31285762786865,0.21539010107517,-0.35031303763390
573,618026617,-1.05818247795105,0.25919711589813,15.90785217285156,-0.05248756334186,-0.17565952241421,9.88656616210938,1.39861404895782,0.13508947193623,-0.32605639100075
574,618034950,-1.05779063701630,0.25912615656853,15.90748310089111,-0.05621436238289,-0.15422244369984,9.89053535461426,1.36253631114960,0.14232547581196,-0.36623230576515
575,618043283,-1.05764293670654,0.25912588834763,15.90807056427002,-0.05037032067776,-0.19370613992214,9.86636734008789,1.33247804641724,0.14958712458611,-0.24109396338463
576,618051616,-1.05759549140930,0.25948685407639,15.90824127197266,-0.04274552315474,-0.17886398732662,9.84703159332275,1.32010638713837,0.19308011233807,-0.29780387878418
577,618059949,-1.05731022357941,0.25928601622581,15.90765380859375,-0.02923349104822,-0.18068797886372,9.86849975585938,1.34992158412933,0.12866032123566,-0.38117823004723
578,618068282,-1.05726754665375,0.25848138332367,15.90738105773926,-0.04015589505434,-0.16588875651360,9.87971496582031,1.32020890712738,0.05509622022510,-0.35779240727425
579,618076615,-1.05695891380310,0.25829473137856,15.90758895874023,-0.03408329561353,-0.19635269045830,9.84816265106201,1.35232913494110,0.12627817690372,-0.28689223527908
580,618084948,-1.05644655227661,0.25828662514687,15.90749168395996,-0.03414767235518,-0.19520823657513,9.85221862792969,1.37676525115967,0.14961275458336,-0.33000102639198
581,618093281,-1.05651688575745,0.25839778780937,15.90757083892822,-0.04126475006342,-0.14605389535427,9.85668945312500,1.30655646324158,0.16464830935001,-0.30192780494690
582,618101614,-1.05621671676636,0.25914528965950,15.90784931182861,-0.05710829794407,-0.17751210927963,9.85727596282959,1.35156059265137,0.23944184184074,-0.27977144718170
583,618109947,-1.05563282966614,0.26010462641716,15.90867900848389,-0.04471957311034,-0.17138211429119,9.83858489990234,1.38488495349884,0.26349365711212,-0.20930673182011
584,618118280,-1.05559253692627,0.26022559404373,15.90886974334717,-0.06349591910839,-0.15620377659798,9.86005687713623,1.31944036483765,0.16434094309807,-0.29982739686966
585,618126613,-1.05557179450989,0.25979205965996,15.90854740142822,-0.04198718816042,-0.18598106503487,9.83912849426270,1.31790351867676,0.09984427690506,-0.35044109821320
586,618134946,-1.05503034591675,0.25976243615150,15.90915679931641,-0.05526275187731,-0.19065903127193,9.85993766784668,1.37976193428040,0.14428499341011,-0.23763604462147
587,618143279,-1.05392670631409,0.25984016060829,15.90923881530762,-0.02114395424724,-0.17150370776653,9.86241054534912,1.44771647453308,0.16019140183926,-0.30041649937630
588,618151612,-1.05361902713776,0.25878363847733,15.90904045104980,-0.04794567078352,-0.18280518054962,9.84802532196045,1.35209858417511,0.02371878176928,-0.34916040301323
589,618159945,-1.05295670032501,0.25883468985558,15.90929698944092,-0.02249569073319,-0.18907110393047,9.86498641967773,1.39459264278412,0.15742509067059,-0.27951532602310
590,618168278,-1.05273926258087,0.25915932655334,15.91010284423828,-0.05227297544479,-0.16161133348942,9.86241149902344,1.34041845798492,0.18693266808987,-0.23353777825832
591,618176611,-1.05284762382507,0.25868603587151,15.91079616546631,-0.07134960591793,-0.17912149429321,9.84749031066895,1.30209958553314,0.09195510298014,-0.22823563218117
592,618184944,-1.05248296260834,0.25857052206993,15.91073131561279,-0.04484117403626,-0.18738302588463,9.86570930480957,1.35873258113861,0.13675439357758,-0.33028271794319
593,618193277,-1.05339586734772,0.25893825292587,15.90964317321777,-0.04022758826613,-0.15643267333508,9.85788345336914,1.20627677440643,0.19735766947269,-0.44047516584396
594,618201610,-1.05309009552002,0.25886073708534,15.90976428985596,-0.03545664250851,-0.18448612093925,9.89790344238281,1.35174000263214,0.14098075032234,-0.30615413188934
595,618209943,-1.05285167694092,0.25932842493057,15.91038990020752,-0.05418993905187,-0.20621646940708,9.84712600708008,1.34356904029846,0.20586161315441,-0.23476725816727
596,618218276,-1.05168235301971,0.25978606939316,15.91028022766113,-0.03407597914338,-0.15729816257954,9.86822032928467,1.45555436611176,0.20534931123257,-0.32800307869911
597,618226609,-1.05154621601105,0.25998988747597,15.91061878204346,-0.03323913738132,-0.14292810857296,9.86475849151611,1.33122289180756,0.17348518967628,-0.27154931426048
598,618234942,-1.05155837535858,0.25969862937927,15.91064262390137,-0.04391144961119,-0.21441361308098,9.82336997985840,1.31384372711182,0.11558423936367,-0.32286745309830
599,618243275,-1.05126106739044,0.26022756099701,15.90935802459717,-0.03024937212467,-0.17235490679741,9.88251781463623,1.35158622264862,0.21695256233215,-0.46391221880913
600,618251608,-1.05112838745117,0.25919169187546,15.90994071960449,-0.04568520933390,-0.15156158804893,9.88823986053467,1.33091568946838,0.02551177702844,-0.25559163093567
601,618259941,-1.05149245262146,0.25894570350647,15.91040706634521,-0.02994895353913,-0.19422113895416,9.86927795410156,1.27120888233185,0.11928549408913,-0.25620639324188
602,618268274,-1.05098295211792,0.25851315259933,15.91005802154541,-0.04130034521222,-0.17585265636444,9.85192680358887,1.37638092041016,0.10035657137632,-0.36452895402908
603,618276607,-1.05087232589722,0.25882259011269,15.91095447540283,-0.04161533340812,-0.15508078038692,9.86224555969238,1.32827746868134,0.18455058336258,-0.20218597352505
604,618284940,-1.05063188076019,0.25935897231102,15.91098403930664,-0.05316708236933,-0.19552296400070,9.84528732299805,1.34395337104797,0.21505713462830,-0.31601566076279
605,618293273,-1.04988443851471,0.25970011949539,15.91025447845459,-0.04549942910671,-0.17464381456375,9.87208747863770,1.40512013435364,0.19284957647324,-0.39857029914856
606,618301606,-1.04968500137329,0.26018756628036,15.90992832183838,-0.05399681255221,-0.16019506752491,9.88806819915771,1.33900976181030,0.21067708730698,-0.35774120688438
607,618309939,-1.05063414573669,0.26000055670738,15.90943145751953,-0.04930454492569,-0.20176739990711,9.84379291534424,1.20166623592377,0.12832732498646,-0.37154734134674
608,618318272,-1.05086159706116,0.25992214679718,15.90961074829102,-0.02795330993831,-0.19440712034702,9.83516597747803,1.28767883777618,0.14136496186256,-0.30284988880157
609,618326605,-1.04989600181580,0.25988435745239,15.90903759002686,-0.04746626690030,-0.14815683662891,9.88086605072021,1.43132340908051,0.14659026265144,-0.38120383024216
610,618334938,-1.05022323131561,0.25932422280312,15.90880489349365,-0.03385455906391,-0.17026627063751,9.85258960723877,1.27594757080078,0.08380977809429,-0.34859690070152
611,618343271,-1.04956340789795,0.25940707325935,15.90897083282471,-0.05318839848042,-0.19628833234310,9.87033843994141,1.39397788047791,0.16106230020523,-0.29134911298752
612,618351604,-1.04957795143127,0.25918877124786,15.90951156616211,-0.04682239145041,-0.16587443649769,9.85726261138916,1.31329309940338,0.12292270362377,-0.26617032289505
613,618359937,-1.04932034015656,0.25891873240471,15.90985012054443,-0.03954091668129,-0.19539421796799,9.85030174255371,1.34615588188171,0.11672406643629,-0.27119070291519
614,618368270,-1.04895317554474,0.25841087102890,15.91013908386230,-0.05307409539819,-0.19891341030598,9.87550067901611,1.35896313190460,0.08911191672087,-0.29334703087807
615,618376603,-1.04869818687439,0.25802254676819,15.90990829467773,-0.06411093473434,-0.16315634548664,9.84721183776855,1.34572064876556,0.10450607538223,-0.34014421701431
616,618384936,-1.04885041713715,0.25786656141281,15.91030788421631,-0.03753823786974,-0.18439312279224,9.84550094604492,1.29659259319305,0.13122171163559,-0.27195912599564
617,618393269,-1.04928112030029,0.25767260789871,15.91118717193604,-0.03524205833673,-0.19153882563114,9.84543800354004,1.26329398155212,0.12474132329226,-0.20643790066242
618,618401602,-1.04912662506104,0.25820726156235,15.91099071502686,-0.04242334514856,-0.13764214515686,9.84381484985352,1.33411753177643,0.21551816165447,-0.36314582824707
619,618409935,-1.04911375045776,0.25751525163651,15.91084003448486,-0.04781690239906,-0.18563772737980,9.85206699371338,1.31685340404510,0.06808263808489,-0.33076944947243
620,618418268,-1.04865825176239,0.25786340236664,15.91101169586182,-0.03926910832524,-0.19976459443569,9.86470031738281,1.36913204193115,0.19269587099552,-0.30543690919876
621,618426601,-1.04803657531738,0.25748351216316,15.91023254394531,-0.03552836552262,-0.16453683376312,9.85339069366455,1.39034056663513,0.10588924586773,-0.40510189533234
622,618434934,-1.04791283607483,0.25695621967316,15.90999031066895,-0.03839646279812,-0.16547386348248,9.84627437591553,1.33030092716217,0.08842033892870,-0.35459065437317
623,618443267,-1.04786252975464,0.25644475221634,15.90915679931641,-0.03125077113509,-0.20913481712341,9.87339115142822,1.32143843173981,0.09162212908268,-0.41347780823708
624,618451600,-1.04815340042114,0.25638821721077,15.90879154205322,-0.04256640374660,-0.14044608175755,9.85042476654053,1.28030204772949,0.14308111369610,-0.36929324269295
625,618459933,-1.04836022853851,0.25631779432297,15.90979862213135,-0.04695134609938,-0.15790615975857,9.87776756286621,1.28993272781372,0.14005863666534,-0.18966060876846
626,618468266,-1.04802036285400,0.25687259435654,15.90981960296631,-0.05559904873371,-0.22170236706734,9.83656787872314,1.35605597496033,0.21770818531513,-0.31925582885742
627,618476599,-1.04763567447662,0.25714969635010,15.90921020507812,-0.05842442065477,-0.16140389442444,9.85592365264893,1.36155033111572,0.18547268211842,-0.38420075178146
628,618484932,-1.04768443107605,0.25679135322571,15.90874004364014,-0.05242318660021,-0.16766978800297,9.88509273529053,1.30998885631561,0.10781031847000,-0.37556871771812
629,618493265,-1.04753947257996,0.25756442546844,15.90860366821289,-0.03413336724043,-0.20236822962761,9.87615203857422,1.33288800716400,0.24272048473358,-0.32551851868629
630,618501598,-1.04689776897430,0.25780138373375,15.90864086151123,-0.03447670489550,-0.17771953344345,9.87625885009766,1.39205682277679,0.17896664142609,-0.31191733479500
631,618509931,-1.04667365550995,0.25848740339279,15.90798568725586,-0.02338246256113,-0.14553888142109,9.84829330444336,1.34249317646027,0.23460081219673,-0.38796600699425
632,618518264,-1.04661643505096,0.25845625996590,15.90826225280762,-0.05118560418487,-0.21243229508400,9.86455821990967,1.32172000408173,0.14659026265144,-0.30763974785805
633,618526597,-1.04634499549866,0.25763368606567,15.90765953063965,-0.04041356220841,-0.17465096712112,9.85598087310791,1.34812831878662,0.05320076271892,-0.38527652621269
634,618534930,-1.04608345031738,0.25769022107124,15.90777015686035,-0.04502714797854,-0.15236270427704,9.85408592224121,1.34665548801422,0.15638770163059,-0.31128978729248
635,618543263,-1.04591977596283,0.25748574733734,15.90743064880371,-0.05615713074803,-0.21831905841827,9.86180210113525,1.33519315719604,0.12707221508026,-0.35156816244125
636,618551596,-1.04573094844818,0.25707954168320,15.90620994567871,-0.05190102756023,-0.19593067467213,9.87802600860596,1.33818995952606,0.10540255904198,-0.46765184402466
637,618559929,-1.04571366310120,0.25741970539093,15.90620994567871,-0.05476202443242,-0.15057450532913,9.84616851806641,1.31754505634308,0.19059552252293,-0.31030365824699
638,618568262,-1.04566860198975,0.25770419836044,15.90629863739014,-0.05923283472657,-0.19872742891312,9.85622310638428,1.32005524635315,0.18357720971107,-0.30991944670677
639,618576595,-1.04561078548431,0.25754791498184,15.90572166442871,-0.05373913794756,-0.20615209639072,9.87104606628418,1.32236051559448,0.13462843000889,-0.38020494580269
640,618584928,-1.04581844806671,0.25805410742760,15.90537261962891,-0.06524807214737,-0.13635464012623,9.83142662048340,1.29072690010071,0.21218831837177,-0.37387815117836
641,618593261,-1.04684555530548,0.25828960537910,15.90494632720947,-0.03243099153042,-0.17904996871948,9.83905696868896,1.19198405742645,0.17973507940769,-0.36260789632797
642,618601594,-1.04673492908478,0.25732344388962,15.90521621704102,-0.04856780543923,-0.19731117784977,9.88912010192871,1.32850801944733,0.03401570767164,-0.29706108570099
643,618609927,-1.04592955112457,0.25703030824661,15.90485382080078,-0.04936892166734,-0.16263419389725,9.85523033142090,1.41221499443054,0.11598124355078,-0.35548713803291
644,618618260,-1.04618036746979,0.25749999284744,15.90465259552002,-0.05142878741026,-0.18200407922268,9.85636806488037,1.28457939624786,0.20770582556725,-0.34908354282379
645,618626593,-1.04657232761383,0.25808140635490,15.90501117706299,-0.03976992145181,-0.17279121279716,9.85911273956299,1.26831436157227,0.21892485022545,-0.26604226231575
646,618634926,-1.04639863967896,0.25836130976677,15.90494918823242,-0.05277367681265,-0.14324283599854,9.87039375305176,1.33573114871979,0.18462739884853,-0.32736271619797
647,618643259,-1.04667413234711,0.25898519158363,15.90563964843750,-0.04705865681171,-0.18779788911343,9.88174438476562,1.28222286701202,0.22294628620148,-0.22657071053982
648,618651592,-1.04637181758881,0.25807350873947,15.90511035919189,-0.04770946130157,-0.19186785817146,9.85239696502686,1.35104835033417,0.04292945936322,-0.38850387930870
649,618659925,-1.04597032070160,0.25933858752251,15.90461826324463,-0.04554930329323,-0.15244853496552,9.85671806335449,1.36382985115051,0.30268344283104,-0.36673179268837
650,618668258,-1.04628241062164,0.25884136557579,15.90438270568848,-0.03868956863880,-0.19388496875763,9.84281349182129,1.27743315696716,0.09262106567621,-0.36906269192696
651,618676591,-1.04655003547668,0.25868654251099,15.90441703796387,-0.04827453568578,-0.20357705652714,9.83432960510254,1.28337562084198,0.13147787749767,-0.30651271343231
652,618684924,-1.04684889316559,0.25880986452103,15.90504169464111,-0.03224512934685,-0.15565301477909,9.86732387542725,1.27899563312531,0.16436655819416,-0.25049439072609
653,618693257,-1.04749691486359,0.25874808430672,15.90408325195312,-0.03539226576686,-0.16546671092510,9.87613010406494,1.23793590068817,0.14492532610893,-0.42728382349014
654,618701590,-1.04744648933411,0.25835141539574,15.90392303466797,-0.03514891490340,-0.20234678685665,9.88078784942627,1.32131040096283,0.10273870080709,-0.34485727548599
655,618709923,-1.04698121547699,0.25858506560326,15.90400028228760,-0.05966901406646,-0.15715511143208,9.84767627716064,1.37096345424652,0.17977350950241,-0.30058303475380
656,618718256,-1.04713952541351,0.25847911834717,15.90392017364502,-0.05020580440760,-0.13127613067627,9.85095214843750,1.29638767242432,0.13639578223228,-0.33845365047455
657,618726589,-1.04683506488800,0.25771671533585,15.90401363372803,-0.05012698099017,-0.19460026919842,9.86581707000732,1.35199606418610,0.05898958444595,-0.30087757110596
658,618734922,-1.04687082767487,0.25696247816086,15.90384483337402,-0.04846766218543,-0.17137496173382,9.88546466827393,1.31039857864380,0.06021905690432,-0.34191158413887
659,618743255,-1.04705297946930,0.25655233860016,15.90291786193848,-0.02884722687304,-0.16575284302235,9.83406639099121,1.29359555244446,0.10463413596153,-0.42323672771454
660,618751588,-1.04700958728790,0.25670993328094,15.90292453765869,-0.05262360721827,-0.20039403438568,9.88471984863281,1.32066988945007,0.16815742850304,-0.31491419672966
661,618759921,-1.04751813411713,0.25679144263268,15.90239524841309,-0.05681503191590,-0.15896478295326,9.88199615478516,1.25420105457306,0.16162580251694,-0.37574800848961
662,618768254,-1.04730689525604,0.25684285163879,15.90231132507324,-0.02437704429030,-0.17447929084301,9.84477806091309,1.34039270877838,0.15791174769402,-0.33230626583099
663,618776587,-1.04718112945557,0.25722119212151,15.90246295928955,-0.03758805617690,-0.19141724705696,9.82094001770020,1.33037781715393,0.19494995474815,-0.29155406355858
664,618784920,-1.04735946655273,0.25671106576920,15.90260028839111,-0.03934049978852,-0.16696166992188,9.90246868133545,1.29333961009979,0.08954736590385,-0.30699941515923
665,618793253,-1.04703009128571,0.25641629099846,15.90246009826660,-0.04926162958145,-0.14651884138584,9.86364173889160,1.35486507415771,0.11513599008322,-0.32848975062370
666,618801586,-1.04710400104523,0.25587669014931,15.90313053131104,-0.06456871330738,-0.21101601421833,9.85963630676270,1.30571115016937,0.08462942391634,-0.24063293635845
667,618809919,-1.04736471176147,0.25580599904060,15.90335273742676,-0.05117143690586,-0.19645282626152,9.85578060150146,1.28391349315643,0.14151863753796,-0.28404906392097
668,618818252,-1.04711627960205,0.25604295730591,15.90294170379639,-0.05782358348370,-0.15092498064041,9.85879898071289,1.34513139724731,0.17927402257919,-0.36432403326035
669,618826585,-1.04732918739319,0.25622931122780,15.90382766723633,-0.05813124403358,-0.19746851921082,9.84434223175049,1.28903627395630,0.17051395773888,-0.20523405075073
670,618834918,-1.04721045494080,0.25619626045227,15.90353202819824,-0.04471258446574,-0.19816949963570,9.86188125610352,1.32925093173981,0.14840890467167,-0.36263355612755
671,618843251,-1.04778861999512,0.25627079606056,15.90406513214111,-0.03620769083500,-0.15881457924843,9.88335514068604,1.24585080146790,0.15793736279011,-0.24685718119144
672,618851584,-1.04836392402649,0.25600749254227,15.90301322937012,-0.05793822556734,-0.20213934779167,9.87007236480713,1.24633741378784,0.12153953313828,-0.45492160320282
673,618859917,-1.04831814765930,0.25582715868950,15.90335273742676,-0.05780224502087,-0.19245438277721,9.85818958282471,1.32066977024078,0.12722589075565,-0.27031981945038
674,618868250,-1.04841136932373,0.25642600655556,15.90328788757324,-0.02719495445490,-0.16335661709309,9.85479450225830,1.30376458168030,0.22243401408195,-0.34296178817749
675,618876583,-1.04823207855225,0.25567805767059,15.90297508239746,-0.03343254700303,-0.17395713925362,9.84444236755371,1.33678114414215,0.06295978277922,-0.34998005628586
676,618884916,-1.04717767238617,0.25527828931808,15.90374088287354,-0.04923301935196,-0.18126735091209,9.83741188049316,1.44090318679810,0.09981867671013,-0.23991572856903
677,618893249,-1.04730665683746,0.25533205270767,15.90348815917969,-0.04033488035202,-0.16477288305759,9.82980155944824,1.30007624626160,0.15850090980530,-0.33978566527367
678,618901582,-1.04748344421387,0.25498971343040,15.90348434448242,-0.05571363493800,-0.19022269546986,9.86031436920166,1.29377520084381,0.10898857563734,-0.31762933731079
679,618909915,-1.04693102836609,0.25530287623405,15.90365505218506,-0.04401859641075,-0.19025847315788,9.88301849365234,1.38109385967255,0.18795722723007,-0.29111856222153
680,618918248,-1.04687237739563,0.25564220547676,15.90489482879639,-0.03487011045218,-0.15359300374985,9.87894153594971,1.32143831253052,0.18844391405582,-0.16960464417934
681,618926581,-1.04741549491882,0.25553050637245,15.90483474731445,-0.04903989285231,-0.19626685976982,9.83903598785400,1.25030755996704,0.13639579713345,-0.31893560290337
682,618934914,-1.04603075981140,0.25532293319702,15.90453243255615,-0.01905535720289,-0.20505769550800,9.85557937622070,1.48096382617950,0.12750765681267,-0.35994401574135
683,618943247,-1.04599380493164,0.25592908263206,15.90467453002930,-0.03773124516010,-0.15773449838161,9.86902809143066,1.31977343559265,0.22181926667690,-0.29288595914841
684,618951580,-1.04731357097626,0.25643554329872,15.90529918670654,-0.05041323602200,-0.16598172485828,9.88089466094971,1.15627777576447,0.21065148711205,-0.24560210108757
685,618959913,-1.04709839820862,0.25679576396942,15.90585994720459,-0.02754559740424,-0.20266865193844,9.85531616210938,1.34059786796570,0.19205553829670,-0.24375787377357
686,618968246,-1.04754877090454,0.25688681006432,15.90641975402832,-0.03197320923209,-0.16429364681244,9.83771228790283,1.26086056232452,0.15998652577400,-0.25382423400879
687,618976579,-1.04731726646423,0.25752618908882,15.90640735626221,-0.02840379439294,-0.16583865880966,9.86035251617432,1.34292876720428,0.22758249938488,-0.31158435344696
688,618984912,-1.04713451862335,0.25733494758606,15.90560531616211,-0.04288110136986,-0.18131741881371,9.84771347045898,1.33765208721161,0.12845538556576,-0.41895923018456
689,618993245,-1.04645001888275,0.25648653507233,15.90570735931396,-0.02430550567806,-0.15067461133003,9.85480690002441,1.39720535278320,0.04920494928956,-0.30082640051842
690,619001578,-1.04643726348877,0.25648587942123,15.90532207489014,-0.02894040197134,-0.16480866074562,9.86625957489014,1.31680226325989,0.15089346468449,-0.38184422254562
691,619009911,-1.04669356346130,0.25621831417084,15.90500259399414,-0.04879669472575,-0.19532983005047,9.84701156616211,1.28481006622314,0.11938794702291,-0.34910923242569
692,619018244,-1.04747390747070,0.25657719373703,15.90493583679199,-0.04110023379326,-0.16375003755093,9.83705425262451,1.22103059291840,0.19415588676929,-0.32710656523705
693,619026577,-1.04849541187286,0.25641739368439,15.90478515625000,-0.02904769591987,-0.17078843712807,9.85686779022217,1.19270122051239,0.13127295672894,-0.32966798543930
694,619034910,-1.04893398284912,0.25701379776001,15.90419101715088,-0.04467665776610,-0.22102999687195,9.87735366821289,1.26260256767273,0.22356103360653,-0.38947725296021
695,619043243,-1.04880177974701,0.25708147883415,15.90397739410400,-0.03092174045742,-0.14227004349232,9.86379146575928,1.33109498023987,0.15947423875332,-0.33724978566170
