sep=,
DeviceTag:,left leg
FirmwareVersion:,2.2.1
AppVersion:,2023.6.0
StartTime: ,2025-03-06_12:43:39_000 PST
© Movella Technologies B. V. 2005-2025

PacketCounter,SampleTimeFine,Euler_X,Euler_Y,Euler_Z,Acc_X,Acc_Y,Acc_Z,Gyr_X,Gyr_Y,Gyr_Z
0,2042652963,-0.50678420066833,0.59981608390808,50.21524429321289,0.00000000000000,0.00000000000000,0.00000000000000,0.00000000000000,0.00000000000000,0.00000000000000
1,2042661296,-0.50624519586563,0.59936779737473,50.21525192260742,-0.11777987331152,-0.07718314975500,10.01517486572266,1.38215708732605,1.74954199790955,0.84653770923615
2,2042669629,-0.50573283433914,0.59917259216309,50.21455001831055,-0.13104978203773,-0.07175651192665,10.00665283203125,1.38005650043488,1.78091919422150,0.75573515892029
3,2042677962,-0.50504481792450,0.59968686103821,50.21431350708008,-0.10783603042364,-0.07655368745327,10.00551986694336,1.39929294586182,1.86452424526215,0.81244522333145
4,2042686295,-0.50517159700394,0.60039311647415,50.21383666992188,-0.13485884666443,-0.07636180520058,10.00994300842285,1.30395674705505,1.88860177993774,0.78111892938614
5,2042694628,-0.50509756803513,0.60032641887665,50.21360778808594,-0.13078869879246,-0.07808250188828,10.00936985015869,1.32624101638794,1.79569876194000,0.81708133220673
6,2042702961,-0.50560790300369,0.60043621063232,50.21414947509766,-0.13087077438831,-0.08262601494789,9.99259948730469,1.25677525997162,1.81567800045013,0.90468192100525
7,2042711294,-0.50590956211090,0.60060334205627,50.21476364135742,-0.10676521062851,-0.07446210831404,10.04385089874268,1.28039169311523,1.82223510742188,0.92028111219406
8,2042719627,-0.50566709041595,0.60064578056335,50.21514892578125,-0.10964112728834,-0.07839179039001,10.00681304931641,1.34678375720978,1.80889022350311,0.88608610630035
9,2042727960,-0.50556313991547,0.59989374876022,50.21495819091797,-0.10605617612600,-0.06948087364435,10.02052688598633,1.32872557640076,1.71263170242310,0.81224018335342
10,2042736293,-0.50548195838928,0.60034388303757,50.21479034423828,-0.09401401877403,-0.09260033071041,10.00193786621094,1.32826459407806,1.85778760910034,0.81928414106369
11,2042744626,-0.50580948591232,0.60072731971741,50.21494293212891,-0.10388077795506,-0.07986236363649,9.98684406280518,1.27777874469757,1.84910428524017,0.86682409048080
12,2042752959,-0.50554704666138,0.60012191534042,50.21463012695312,-0.09101624786854,-0.08071519434452,10.01655292510986,1.35116362571716,1.73068964481354,0.80196893215179
13,2042761292,-0.50526350736618,0.60148191452026,50.21467208862305,-0.08896281570196,-0.09140427410603,9.99143123626709,1.34962689876556,1.96654558181763,0.84740853309631
14,2042769625,-0.50548034906387,0.60131317377090,50.21411514282227,-0.12382844090462,-0.08296309411526,10.03013706207275,1.29345476627350,1.78406977653503,0.77107810974121
15,2042777958,-0.50469005107880,0.60175704956055,50.21435165405273,-0.10991500318050,-0.12046507000923,9.98396492004395,1.41138291358948,1.85566186904907,0.86523610353470
16,2042786291,-0.50364673137665,0.60216265916824,50.21473693847656,-0.11831983178854,-0.08294040709734,10.02425956726074,1.44235038757324,1.85205018520355,0.88567620515823
17,2042794624,-0.50334501266479,0.60217517614365,50.21497726440430,-0.14017997682095,-0.09801672399044,10.03176784515381,1.35410928726196,1.80340862274170,0.85934484004974
18,2042802957,-0.50276714563370,0.60273247957230,50.21568679809570,-0.12400650978088,-0.09382576495409,10.01013946533203,1.38646006584167,1.87015938758850,0.92583942413330
19,2042811290,-0.50346010923386,0.60255420207977,50.21620941162109,-0.14887270331383,-0.09297043830156,10.00095748901367,1.23326134681702,1.78127777576447,0.88726425170898
20,2042819623,-0.50440502166748,0.60197973251343,50.21605682373047,-0.12721954286098,-0.09295143932104,10.02325725555420,1.20618712902069,1.73537707328796,0.81907916069031
21,2042827956,-0.50493037700653,0.60060268640518,50.21596908569336,-0.13110804557800,-0.07234639674425,10.00691795349121,1.25406014919281,1.63724911212921,0.83219367265701
22,2042836289,-0.50528723001480,0.60004532337189,50.21644210815430,-0.08061151206493,-0.09998267143965,9.99907302856445,1.27424407005310,1.73668348789215,0.89425694942474
23,2042844622,-0.50520110130310,0.59960144758224,50.21666336059570,-0.10983632504940,-0.07125216722488,9.99971103668213,1.32762408256531,1.74867093563080,0.86377596855164
24,2042852955,-0.50536268949509,0.60050898790359,50.21649932861328,-0.08901011198759,-0.07562266290188,10.02220821380615,1.29944860935211,1.91308879852295,0.82059043645859
25,2042861288,-0.50579428672791,0.60056865215302,50.21673583984375,-0.09037451446056,-0.09119933843613,10.01080131530762,1.26404976844788,1.81070876121521,0.85931915044785
26,2042869621,-0.50551778078079,0.60002648830414,50.21668243408203,-0.11345108598471,-0.09066846966743,10.02419567108154,1.35159909725189,1.73770809173584,0.83196312189102
27,2042877954,-0.50594395399094,0.60007309913635,50.21622467041016,-0.10056239366531,-0.10046701878309,10.02034950256348,1.26627802848816,1.80963277816772,0.78188735246658
28,2042886287,-0.50642627477646,0.59994053840637,50.21550750732422,-0.09171582758427,-0.06182940304279,10.02524089813232,1.26177000999451,1.78885960578918,0.75240534543991
29,2042894620,-0.50618773698807,0.60096377134323,50.21557998657227,-0.12702679634094,-0.07758023589849,10.01006698608398,1.34639942646027,1.92528140544891,0.84185022115707
30,2042902953,-0.50647884607315,0.60103023052216,50.21574783325195,-0.12498801946640,-0.08451251685619,10.00206947326660,1.28290188312531,1.81196355819702,0.86042064428329
31,2042911286,-0.50625264644623,0.60069656372070,50.21566390991211,-0.13696554303169,-0.08365763723850,10.00341320037842,1.34394037723541,1.76132440567017,0.84246492385864
32,2042919619,-0.50630825757980,0.60076522827148,50.21590423583984,-0.12373080849648,-0.07728967070580,10.00475120544434,1.31079578399658,1.81286048889160,0.86823302507401
33,2042927952,-0.50636065006256,0.60078626871109,50.21534729003906,-0.14087831974030,-0.08776275813580,10.02117347717285,1.31187140941620,1.80538082122803,0.79461753368378
34,2042936285,-0.50620424747467,0.60046184062958,50.21457290649414,-0.14244869351387,-0.07183880358934,10.01244640350342,1.33769059181213,1.76475667953491,0.74646282196045
35,2042944618,-0.50582373142242,0.60062462091446,50.21437454223633,-0.13558326661587,-0.09210372716188,10.00271320343018,1.36279261112213,1.82282423973083,0.82181996107101
36,2042952951,-0.50540918111801,0.60088872909546,50.21392440795898,-0.11298937350512,-0.08871741592884,10.01500320434570,1.36865830421448,1.83619499206543,0.78488421440125
37,2042961284,-0.50574558973312,0.60070389509201,50.21391296386719,-0.10891475528479,-0.08982712775469,10.01006984710693,1.27800941467285,1.78130340576172,0.79236352443695
38,2042969617,-0.50518083572388,0.60061144828796,50.21310806274414,-0.10605204850435,-0.08717997372150,10.01846694946289,1.38725411891937,1.79195928573608,0.74180102348328
39,2042977950,-0.50551587343216,0.60005271434784,50.21274566650391,-0.10426586866379,-0.09894602745771,10.02118682861328,1.27695918083191,1.73624813556671,0.79354184865952
40,2042986283,-0.50567919015884,0.60044103860855,50.21242141723633,-0.09899549931288,-0.09413664042950,10.00274467468262,1.29952549934387,1.85020601749420,0.80102115869522
41,2042994616,-0.50613075494766,0.60077130794525,50.21251678466797,-0.09149768203497,-0.08912759274244,10.01901912689209,1.26284575462341,1.84316182136536,0.85219836235046
42,2043002949,-0.50585794448853,0.60117745399475,50.21310806274414,-0.10361278802156,-0.09555317461491,10.01110935211182,1.35031843185425,1.85176825523376,0.90990734100342
43,2043011282,-0.50611078739166,0.60208976268768,50.21290206909180,-0.10946489870548,-0.09968453645706,10.01481151580811,1.28707695007324,1.91211557388306,0.80801391601562
44,2043019615,-0.50525766611099,0.60196894407272,50.21250534057617,-0.11797166615725,-0.07651942968369,9.99868106842041,1.42093670368195,1.78873133659363,0.79005825519562
45,2043027948,-0.50534504652023,0.60271781682968,50.21236038208008,-0.11103867739439,-0.08403493463993,10.02084732055664,1.30641567707062,1.89272570610046,0.82479113340378
46,2043036281,-0.50467032194138,0.60293757915497,50.21134948730469,-0.13239988684654,-0.07750054448843,10.03714561462402,1.40095794200897,1.83120024204254,0.71862024068832
47,2043044614,-0.50466388463974,0.60277450084686,50.21138381958008,-0.12944686412811,-0.08320126682520,10.00751209259033,1.31699430942535,1.78468453884125,0.84684503078461
48,2043052947,-0.50481957197189,0.60275793075562,50.21107101440430,-0.12238827347755,-0.08262678235769,9.98627662658691,1.30052423477173,1.80130803585052,0.80148220062256
49,2043061280,-0.50443959236145,0.60248565673828,50.21075820922852,-0.11962468922138,-0.06190140917897,10.02414321899414,1.36289501190186,1.77141642570496,0.79930502176285
50,2043069613,-0.50414019823074,0.60166072845459,50.21089553833008,-0.12917372584343,-0.06889671087265,9.99277114868164,1.35462164878845,1.70446085929871,0.85388892889023
51,2043077946,-0.50445437431335,0.60202538967133,50.21085357666016,-0.12750370800495,-0.07667271792889,10.00208282470703,1.27893161773682,1.84638953208923,0.85965222120285
52,2043086279,-0.50454628467560,0.60305398702621,50.21051025390625,-0.10574872791767,-0.09386237710714,10.01560592651367,1.30723524093628,1.92625451087952,0.79966348409653
53,2043094612,-0.50409632921219,0.60377395153046,50.21041107177734,-0.09695432335138,-0.10284946113825,10.01276111602783,1.37216734886169,1.88962602615356,0.82205051183701
54,2043102945,-0.50398021936417,0.60493612289429,50.21056365966797,-0.08569033443928,-0.09043249487877,10.00364112854004,1.33128714561462,1.94223797321320,0.85908871889114
55,2043111278,-0.50370562076569,0.60478991270065,50.21083450317383,-0.07673013955355,-0.06654130667448,10.00050163269043,1.34970378875732,1.78517150878906,0.88442111015320
56,2043119611,-0.50400286912918,0.60503441095352,50.21051025390625,-0.09200622886419,-0.08358795940876,10.01304054260254,1.28302991390228,1.83317244052887,0.80125176906586
57,2043127944,-0.50333791971207,0.60591435432434,50.21056747436523,-0.09601268917322,-0.08685950189829,10.01160144805908,1.39675700664520,1.90783786773682,0.85009813308716
58,2043136277,-0.50368779897690,0.60653191804886,50.20997619628906,-0.08565657585859,-0.07556831836700,10.02418994903564,1.27762532234192,1.87912428379059,0.76782512664795
59,2043144610,-0.50272524356842,0.60716772079468,50.20965194702148,-0.12414681911469,-0.10130372643471,10.02486133575439,1.43297564983368,1.87876570224762,0.79684603214264
60,2043152943,-0.50307166576385,0.60666447877884,50.21041488647461,-0.12622679769993,-0.07734186947346,9.98543930053711,1.27588355541229,1.74257481098175,0.92947649955750
61,2043161276,-0.50240397453308,0.60634678602219,50.21074295043945,-0.13110153377056,-0.07588470727205,9.99890804290771,1.39662897586823,1.76503837108612,0.88393437862396
62,2043169609,-0.50282800197601,0.60549992322922,50.21058654785156,-0.14076200127602,-0.07846100628376,9.99898338317871,1.26758444309235,1.70069551467896,0.81859248876572
63,2043177942,-0.50248396396637,0.60524320602417,50.21091079711914,-0.12923751771450,-0.06790703535080,10.00322723388672,1.35751605033875,1.77174937725067,0.88022035360336
64,2043186275,-0.50243467092514,0.60563051700592,50.21051788330078,-0.13979651033878,-0.08516327291727,9.99767398834229,1.32442247867584,1.85041093826294,0.79269653558731
65,2043194608,-0.50190556049347,0.60540765523911,50.21030044555664,-0.11918696016073,-0.07744705677032,10.01293563842773,1.38082492351532,1.77607834339142,0.80942267179489
66,2043202941,-0.50277364253998,0.60562759637833,50.21055984497070,-0.12827330827713,-0.08098097145557,9.97976589202881,1.21422994136810,1.83061087131500,0.87066620588303
67,2043211274,-0.50233560800552,0.60576903820038,50.21029281616211,-0.09240036457777,-0.08592937141657,10.04411220550537,1.36960613727570,1.81980192661285,0.80811637639999
68,2043219607,-0.50209218263626,0.60759466886520,50.20996475219727,-0.09743349999189,-0.06941957771778,10.01727771759033,1.34885823726654,2.02264070510864,0.80143094062805
69,2043227940,-0.50131326913834,0.60875403881073,50.20980072021484,-0.09202501922846,-0.07453803718090,9.99913311004639,1.40961539745331,1.94172573089600,0.82097470760345
70,2043236273,-0.50165385007858,0.60812956094742,50.20932769775391,-0.09244844317436,-0.10245707631111,10.02251148223877,1.27834248542786,1.73038232326508,0.77837818861008
71,2043244606,-0.50134444236755,0.60752505064011,50.20987319946289,-0.09246442466974,-0.09670715779066,10.00117492675781,1.35359704494476,1.72899925708771,0.91551673412323
72,2043252939,-0.50151032209396,0.60725599527359,50.20954895019531,-0.11866310983896,-0.10030248761177,10.00469589233398,1.29837274551392,1.77113461494446,0.80048322677612
73,2043261272,-0.50171089172363,0.60661458969116,50.20954895019531,-0.11924009770155,-0.08179513365030,10.00903701782227,1.29373657703400,1.72613048553467,0.85990822315216
74,2043269605,-0.50162029266357,0.60498428344727,50.20977401733398,-0.12174888700247,-0.08675022423267,10.02473735809326,1.32782912254333,1.60745966434479,0.86449319124222
75,2043277938,-0.50193464756012,0.60557496547699,50.20922088623047,-0.12755331397057,-0.06254193186760,9.98000812530518,1.28062200546265,1.87474417686462,0.79974037408829
76,2043286271,-0.50271874666214,0.60463428497314,50.20968246459961,-0.13074648380280,-0.07465818524361,10.00534343719482,1.22265708446503,1.69021928310394,0.89243835210800
77,2043294604,-0.50250452756882,0.60384964942932,50.20965194702148,-0.15626096725464,-0.09748098999262,9.99442768096924,1.34319758415222,1.70925056934357,0.82317745685577
78,2043302937,-0.50243055820465,0.60317593812943,50.20973205566406,-0.12798759341240,-0.06751467287540,10.03070068359375,1.32767546176910,1.72264683246613,0.84856116771698
79,2043311270,-0.50296276807785,0.60227698087692,50.20900726318359,-0.11467513442039,-0.09358967840672,10.00936126708984,1.25370156764984,1.69454813003540,0.74715441465378
80,2043319603,-0.50334787368774,0.60125416517258,50.20888137817383,-0.11412204056978,-0.10028865188360,9.98725223541260,1.27229750156403,1.68151044845581,0.82205039262772
81,2043327936,-0.50412112474442,0.60134434700012,50.20845031738281,-0.10827348381281,-0.08293539285660,9.98175144195557,1.22601246833801,1.81373119354248,0.79159510135651
82,2043336269,-0.50497299432755,0.60069465637207,50.20759582519531,-0.08365412801504,-0.11158612370491,9.97688579559326,1.21689403057098,1.72659170627594,0.73539751768112
83,2043344602,-0.50565266609192,0.60104805231094,50.20743179321289,-0.08989048004150,-0.07112408429384,10.00418186187744,1.23484957218170,1.84577476978302,0.80688685178757
84,2043352935,-0.50591367483139,0.60145097970963,50.20748901367188,-0.09850843995810,-0.09195549786091,10.01636409759521,1.28694880008698,1.85133302211761,0.84630709886551
85,2043361268,-0.50576359033585,0.60129058361053,50.20691299438477,-0.07874897867441,-0.09724207967520,10.01280593872070,1.33574390411377,1.78463339805603,0.77755856513977
86,2043369601,-0.50549381971359,0.60142219066620,50.20706558227539,-0.09258427470922,-0.09197856485844,10.01680278778076,1.35147094726562,1.81893086433411,0.85552823543549
87,2043377934,-0.50546002388000,0.60123193264008,50.20677947998047,-0.09138501435518,-0.09123618900776,9.99109649658203,1.32152819633484,1.78017663955688,0.80330091714859
88,2043386267,-0.50524270534515,0.60207265615463,50.20700073242188,-0.10807299613953,-0.08313497155905,9.99462604522705,1.34350490570068,1.90412378311157,0.86582517623901
89,2043394600,-0.50579297542572,0.60190856456757,50.20698547363281,-0.10556370019913,-0.08323822170496,10.00650596618652,1.25101196765900,1.78255856037140,0.85752612352371
90,2043402933,-0.50504148006439,0.60092151165009,50.20674133300781,-0.12015524506569,-0.06425021588802,10.02114677429199,1.40797591209412,1.68599295616150,0.80883347988129
91,2043411266,-0.50508445501328,0.60118150711060,50.20592117309570,-0.13807049393654,-0.07956508547068,10.02328872680664,1.31345963478088,1.83496558666229,0.75104784965515
92,2043419599,-0.50516080856323,0.60097074508667,50.20536804199219,-0.13932777941227,-0.08311450481415,9.99401283264160,1.31064188480377,1.77810192108154,0.77138549089432
93,2043427932,-0.50569480657578,0.59987324476242,50.20522308349609,-0.12234000861645,-0.07531873136759,9.99579715728760,1.25152432918549,1.67131590843201,0.80791133642197
94,2043436265,-0.50453126430511,0.59968936443329,50.20539093017578,-0.13593821227551,-0.09693954885006,9.99953937530518,1.45792388916016,1.78143155574799,0.86059981584549
95,2043444598,-0.50427019596100,0.59984654188156,50.20561981201172,-0.11767271906137,-0.10487358272076,9.99568557739258,1.34762895107269,1.82105672359467,0.86608129739761
96,2043452931,-0.50496417284012,0.60039389133453,50.20560836791992,-0.10940203815699,-0.08167283982038,10.00973892211914,1.23669373989105,1.86949324607849,0.83816182613373
97,2043461264,-0.50553655624390,0.59877550601959,50.20542907714844,-0.12105138599873,-0.09695028513670,9.99317550659180,1.24701619148254,1.60830485820770,0.83119463920593
98,2043469597,-0.50572472810745,0.59913563728333,50.20467376708984,-0.10370744019747,-0.09231429547071,9.99841785430908,1.29711771011353,1.84872031211853,0.74902427196503
99,2043477930,-0.50531452894211,0.59832316637039,50.20469284057617,-0.11079026758671,-0.08340243250132,10.01118469238281,1.36622488498688,1.70318007469177,0.84466779232025
100,2043486263,-0.50483542680740,0.59724193811417,50.20501327514648,-0.11106985062361,-0.09096277505159,9.98147487640381,1.37613761425018,1.67428719997406,0.87645518779755
101,2043494596,-0.50450652837753,0.59801751375198,50.20557403564453,-0.10434503853321,-0.08334910124540,9.98232269287109,1.35503149032593,1.89533805847168,0.89079904556274
102,2043502929,-0.50519347190857,0.59943956136703,50.20549011230469,-0.08290383964777,-0.07753019779921,10.04426097869873,1.23651444911957,1.97504973411560,0.83063119649887
103,2043511262,-0.50502991676331,0.59933018684387,50.20578384399414,-0.09540449827909,-0.08213551342487,9.97701072692871,1.33697342872620,1.78862929344177,0.86523610353470
104,2043519595,-0.50512838363647,0.59910124540329,50.20586395263672,-0.11091249436140,-0.09900332987309,9.98956298828125,1.30587780475616,1.77676975727081,0.84794640541077
105,2043527928,-0.50536864995956,0.59898787736893,50.20655441284180,-0.11032433062792,-0.08908406645060,10.02672100067139,1.28707695007324,1.78752791881561,0.92343163490295
106,2043536261,-0.50515079498291,0.59881418943405,50.20644378662109,-0.11284623295069,-0.09975252300501,10.01994037628174,1.34465789794922,1.78281497955322,0.82538032531738
107,2043544594,-0.50512069463730,0.59926962852478,50.20619583129883,-0.14354945719242,-0.08421698212624,10.01791954040527,1.32157933712006,1.85653257369995,0.83004206418991
108,2043552927,-0.50496321916580,0.59902918338776,50.20537948608398,-0.13004623353481,-0.08156663179398,10.00853633880615,1.33763945102692,1.77597570419312,0.74149364233017
109,2043561260,-0.50466597080231,0.59881490468979,50.20518112182617,-0.13396051526070,-0.09633016586304,10.02083206176758,1.35357141494751,1.77682101726532,0.81413567066193
110,2043569593,-0.50394153594971,0.59907209873199,50.20441436767578,-0.12443102896214,-0.07786893099546,10.02000236511230,1.40551722049713,1.83532416820526,0.74858891963959
111,2043577926,-0.50331324338913,0.59955221414566,50.20471191406250,-0.10237529873848,-0.10492341220379,10.00510692596436,1.39276123046875,1.85952949523926,0.88009232282639
112,2043586259,-0.50333034992218,0.59891903400421,50.20487976074219,-0.11066272109747,-0.06972373276949,9.99980258941650,1.31637954711914,1.72769284248352,0.85755163431168
113,2043594592,-0.50361955165863,0.59822976589203,50.20472717285156,-0.09124448150396,-0.07037688046694,10.02785873413086,1.28238952159882,1.72090518474579,0.82955533266068
114,2043602925,-0.50422203540802,0.59805524349213,50.20402908325195,-0.07557165622711,-0.09256494790316,10.03978824615479,1.24714410305023,1.78191828727722,0.75309681892395
115,2043611258,-0.50471150875092,0.59800028800964,50.20426177978516,-0.11245265603065,-0.09990467876196,10.01455497741699,1.25831198692322,1.79656970500946,0.86423707008362
116,2043619591,-0.50490379333496,0.59817951917648,50.20427322387695,-0.10226225107908,-0.08716681599617,9.99730968475342,1.29470992088318,1.82500159740448,0.84005725383759
117,2043627924,-0.50461077690125,0.59862256050110,50.20418548583984,-0.10976132750511,-0.08875337243080,9.99827384948730,1.35236775875092,1.85612297058105,0.82776236534119
118,2043636257,-0.50523966550827,0.59906750917435,50.20411682128906,-0.08485972881317,-0.09359806776047,10.04333209991455,1.24299478530884,1.85671198368073,0.83124595880508
119,2043644590,-0.50504320859909,0.59921044111252,50.20429229736328,-0.10982027649879,-0.08072676509619,9.99887371063232,1.33963751792908,1.82033979892731,0.89072227478027
120,2043652923,-0.50578147172928,0.59835213422775,50.20372772216797,-0.10927202552557,-0.08372331410646,10.00437450408936,1.23146831989288,1.70133578777313,0.76833742856979
121,2043661256,-0.50617414712906,0.59845608472824,50.20352554321289,-0.12145850062370,-0.09632857143879,9.99720001220703,1.26899313926697,1.81493496894836,0.83429402112961
122,2043669589,-0.50665122270584,0.59814131259918,50.20316314697266,-0.13732266426086,-0.09238943457603,10.01063060760498,1.26210308074951,1.76724123954773,0.79474574327469
123,2043677922,-0.50567144155502,0.59805977344513,50.20308685302734,-0.12241054326296,-0.07193193584681,9.99890136718750,1.43469178676605,1.79300916194916,0.83654814958572
124,2043686255,-0.50552314519882,0.59943902492523,50.20335388183594,-0.12978936731815,-0.04665620625019,9.99991226196289,1.33494997024536,1.96795463562012,0.87153708934784
125,2043694588,-0.50505942106247,0.59937572479248,50.20329666137695,-0.13175503909588,-0.08121401816607,9.97690582275391,1.37303829193115,1.79531443119049,0.84466779232025
126,2043702921,-0.50520014762878,0.59865617752075,50.20202255249023,-0.12723083794117,-0.07738555222750,10.02620887756348,1.30254781246185,1.71854865550995,0.68483495712280
127,2043711254,-0.50578373670578,0.59847605228424,50.20217132568359,-0.11579790711403,-0.07715566456318,10.02488231658936,1.24773347377777,1.78061211109161,0.85529780387878
128,2043719587,-0.50559628009796,0.59864413738251,50.20278549194336,-0.11269135028124,-0.08068673312664,9.97549152374268,1.33976542949677,1.82320868968964,0.91308349370956
129,2043727920,-0.50606900453568,0.59873592853546,50.20311355590820,-0.10675901919603,-0.07344132661819,10.01019001007080,1.25954151153564,1.81352639198303,0.88636773824692
130,2043736253,-0.50671333074570,0.59844648838043,50.20346069335938,-0.10741390287876,-0.08859809488058,10.00077056884766,1.24092006683350,1.76872718334198,0.88132184743881
131,2043744586,-0.51048427820206,0.59889692068100,50.21443176269531,-0.08172008395195,-0.08176863193512,10.00889301300049,1.26991546154022,1.73145818710327,0.80012464523315
132,2043752919,-0.51056921482086,0.59864586591721,50.21425628662109,-0.09709317982197,-0.10552053153515,10.00789260864258,1.30959177017212,1.77369606494904,0.81359773874283
133,2043761252,-0.50957077741623,0.59868717193604,50.21401596069336,-0.08615487068892,-0.09279128909111,10.00724124908447,1.43738126754761,1.80730199813843,0.80821877717972
134,2043769585,-0.50960850715637,0.59912312030792,50.21443176269531,-0.12003730237484,-0.08668718487024,10.02710342407227,1.31233263015747,1.85499572753906,0.88816082477570
135,2043777918,-0.50995993614197,0.59928685426712,50.21408843994141,-0.11188438534737,-0.07165350019932,10.00102615356445,1.27752280235291,1.82302916049957,0.80624645948410
136,2043786251,-0.51028949022293,0.59765827655792,50.21420669555664,-0.11811599880457,-0.08326426148415,9.98959636688232,1.27793252468109,1.60769021511078,0.84886848926544
137,2043794584,-0.51109224557877,0.59664034843445,50.21387100219727,-0.13937273621559,-0.09195964038372,10.00214004516602,1.22155570983887,1.68092155456543,0.81946337223053
138,2043802917,-0.51055544614792,0.59732586145401,50.21405029296875,-0.13252294063568,-0.08655554801226,10.03742599487305,1.38336086273193,1.88593780994415,0.86062544584274
139,2043811250,-0.51061904430389,0.59666246175766,50.21372222900391,-0.12607084214687,-0.07913116365671,10.00291347503662,1.30907952785492,1.72290301322937,0.79892075061798
140,2043819583,-0.50996094942093,0.59705317020416,50.21407318115234,-0.13295197486877,-0.08576011657715,10.01235485076904,1.39670586585999,1.85061562061310,0.88075822591782
141,2043827916,-0.50969719886780,0.59666711091995,50.21397781372070,-0.12725530564785,-0.07683786004782,10.01711750030518,1.34819233417511,1.75638079643250,0.84953451156616
142,2043836249,-0.51022505760193,0.59582275152206,50.21339797973633,-0.10402009636164,-0.08677675575018,10.01508235931396,1.25715947151184,1.70312881469727,0.76749211549759
143,2043844582,-0.50975185632706,0.59574508666992,50.21380233764648,-0.11026620864868,-0.08482627570629,10.03076934814453,1.37255156040192,1.79306042194366,0.88892918825150
144,2043852915,-0.50921201705933,0.59589689970016,50.21360778808594,-0.09885377436876,-0.08411143720150,9.97913646697998,1.38430857658386,1.82223510742188,0.81595426797867
145,2043861248,-0.50821936130524,0.59721857309341,50.21250152587891,-0.09063995629549,-0.08997268229723,9.99215412139893,1.43797051906586,1.96078252792358,0.72671431303024
146,2043869581,-0.50819450616837,0.59639400243759,50.21232604980469,-0.08020479977131,-0.09206159412861,10.02372264862061,1.32165610790253,1.70566487312317,0.81434059143066
147,2043877914,-0.50850671529770,0.59548020362854,50.21239471435547,-0.09049560129642,-0.07899178564548,9.99985027313232,1.27967441082001,1.69306242465973,0.86111211776733
148,2043886247,-0.50905126333237,0.59555155038834,50.21201324462891,-0.10683829337358,-0.09468053281307,10.01627731323242,1.25393187999725,1.81099033355713,0.79169756174088
149,2043894580,-0.50930112600327,0.59609693288803,50.21113204956055,-0.09910858422518,-0.09784229844809,10.00929164886475,1.28746116161346,1.87059462070465,0.73916286230087
150,2043902913,-0.50930875539780,0.59687542915344,50.21158218383789,-0.12041802704334,-0.09376557171345,9.98858833312988,1.31773710250854,1.89626014232635,0.88987690210342
151,2043911246,-0.50835365056992,0.59751319885254,50.21232223510742,-0.12142670154572,-0.07229359447956,10.02913761138916,1.43084967136383,1.87753641605377,0.89256650209427
152,2043919579,-0.50788313150406,0.59852772951126,50.21187591552734,-0.14014565944672,-0.09934127330780,9.99304962158203,1.37616312503815,1.92671525478363,0.78521710634232
153,2043927912,-0.50734364986420,0.59805357456207,50.21079254150391,-0.13009952008724,-0.08479099720716,9.99180030822754,1.38364267349243,1.74608409404755,0.70962959527969
154,2043936245,-0.50731891393661,0.59873986244202,50.21048355102539,-0.13278220593929,-0.08407814800739,10.01120948791504,1.32170736789703,1.88621926307678,0.80186641216278
155,2043944578,-0.50704306364059,0.59769982099533,50.21049880981445,-0.09990981966257,-0.07087792456150,9.99559879302979,1.35019040107727,1.67751479148865,0.83303898572922
156,2043952911,-0.50741082429886,0.59714239835739,50.21098709106445,-0.11821217089891,-0.08420831710100,10.00315666198730,1.27403914928436,1.73653006553650,0.89715135097504
157,2043961244,-0.50799465179443,0.59643071889877,50.21116638183594,-0.09037029743195,-0.07551006227732,10.05385971069336,1.24665760993958,1.71777999401093,0.84702420234680
158,2043969577,-0.50864112377167,0.59668457508087,50.21089935302734,-0.09091998636723,-0.06361650675535,10.02341556549072,1.24209833145142,1.83363342285156,0.80750155448914
159,2043977910,-0.50933980941772,0.59677165746689,50.21087265014648,-0.08201363682747,-0.09807114303112,9.99734115600586,1.23280036449432,1.81355190277100,0.82863324880600
160,2043986243,-0.50878369808197,0.59739297628403,50.21087265014648,-0.10131040215492,-0.09171514958143,9.99796867370605,1.38579416275024,1.87909877300262,0.83767521381378
161,2043994576,-0.50878787040710,0.59769839048386,50.21058654785156,-0.09635299444199,-0.09724521636963,10.00345516204834,1.31663548946381,1.83867931365967,0.80655378103256
162,2044002909,-0.50878471136093,0.59717249870300,50.21016311645508,-0.09694593399763,-0.09262523055077,10.03090095520020,1.31932508945465,1.74060249328613,0.78514033555984
163,2044011242,-0.50873768329620,0.59700942039490,50.21020507812500,-0.09360333532095,-0.08728339523077,10.00663757324219,1.32360279560089,1.78427481651306,0.83844351768494
164,2044019575,-0.50888830423355,0.59697276353836,50.21060943603516,-0.12337955832481,-0.08016549795866,9.99111843109131,1.30031943321228,1.79800415039062,0.88577872514725
165,2044027908,-0.50839740037918,0.59671336412430,50.20965194702148,-0.13296237587929,-0.09171126037836,10.02250480651855,1.37813556194305,1.77277410030365,0.71987533569336
166,2044036241,-0.50829744338989,0.59726572036743,50.21014404296875,-0.12733548879623,-0.09508707374334,9.98913764953613,1.32913553714752,1.86964714527130,0.89904683828354
167,2044044574,-0.50843751430511,0.59787654876709,50.21043777465820,-0.14482186734676,-0.08508314192295,9.99166870117188,1.30042195320129,1.87546157836914,0.86941123008728
168,2044052907,-0.50909960269928,0.59782266616821,50.21057510375977,-0.13404394686222,-0.08794900774956,9.98790550231934,1.23915266990662,1.79605734348297,0.85445243120193
169,2044061240,-0.50898724794388,0.59824627637863,50.21000671386719,-0.13238716125488,-0.11326901614666,9.99946880340576,1.33021128177643,1.85368943214417,0.82568770647049
170,2044069573,-0.50860649347305,0.59779393672943,50.20941925048828,-0.10501521825790,-0.10773932933807,9.99121665954590,1.36504650115967,1.75064325332642,0.76546865701675
171,2044077906,-0.50896936655045,0.59729576110840,50.20921707153320,-0.09858997166157,-0.09468236565590,9.97919178009033,1.27403914928436,1.74221622943878,0.80883347988129
172,2044086239,-0.51016777753830,0.59728431701660,50.20880126953125,-0.11587993800640,-0.08564648032188,10.00720500946045,1.17532205581665,1.80376720428467,0.78744566440582
173,2044094572,-0.50988638401031,0.59779840707779,50.20835876464844,-0.09141255170107,-0.08590767532587,9.99827575683594,1.35206031799316,1.86393511295319,0.80962765216827
174,2044102905,-0.51012372970581,0.59765690565109,50.20901870727539,-0.07189450412989,-0.09560617804527,10.02878665924072,1.28953588008881,1.78629827499390,0.91605472564697
175,2044111238,-0.50988751649857,0.59817212820053,50.20940399169922,-0.08046700060368,-0.08296436816454,10.01913642883301,1.34391498565674,1.86388397216797,0.87584042549133
176,2044119571,-0.50973373651505,0.59886062145233,50.20929336547852,-0.10525935888290,-0.07857072353363,10.04104900360107,1.33722960948944,1.88634753227234,0.82430458068848
177,2044127904,-0.51018786430359,0.59875154495239,50.20809936523438,-0.09686955064535,-0.09163509309292,9.98425769805908,1.26433157920837,1.79121649265289,0.70706826448441
178,2044136237,-0.51017999649048,0.59802860021591,50.20892715454102,-0.09679669141769,-0.08569924533367,9.99831867218018,1.31883847713470,1.71539807319641,0.93623870611191
179,2044144570,-0.50963282585144,0.59743952751160,50.20935058593750,-0.13247698545456,-0.07730581611395,10.01941585540771,1.38310456275940,1.73112547397614,0.89243835210800
180,2044152903,-0.50929474830627,0.59830999374390,50.20862579345703,-0.12810505926609,-0.08172940462828,10.02880668640137,1.35969316959381,1.90947711467743,0.75104779005051
181,2044161236,-0.50867509841919,0.59757369756699,50.20877456665039,-0.12943504750729,-0.09211643785238,10.00499629974365,1.39173650741577,1.71373307704926,0.82579016685486
182,2044169569,-0.50749301910400,0.59753775596619,50.20883560180664,-0.15408128499985,-0.10288824141026,10.00271320343018,1.46063899993896,1.79959225654602,0.84543627500534
183,2044177902,-0.50684541463852,0.59811991453171,50.20971679687500,-0.13221709430218,-0.07094173133373,10.00455760955811,1.39347851276398,1.87005674839020,0.95196586847305
184,2044186235,-0.50639891624451,0.59736895561218,50.20958709716797,-0.11816107481718,-0.09639845788479,9.99189567565918,1.37270510196686,1.71350240707397,0.81979632377625
185,2044194568,-0.50679826736450,0.59684693813324,50.20959472656250,-0.11357734352350,-0.07672978937626,9.99400138854980,1.26827597618103,1.74011576175690,0.86705464124680
186,2044202901,-0.50733709335327,0.59633600711823,50.20978164672852,-0.12751778960228,-0.05876096710563,10.01470565795898,1.25467479228973,1.74108910560608,0.85796159505844
187,2044211234,-0.50739383697510,0.59661900997162,50.20977401733398,-0.10800074785948,-0.09625437110662,9.99357509613037,1.31066763401031,1.83668148517609,0.84430921077728
188,2044219567,-0.50770795345306,0.59648871421814,50.20951843261719,-0.09542860090733,-0.08339888602495,10.00287246704102,1.28100609779358,1.78967940807343,0.80660498142242
189,2044227900,-0.50851696729660,0.59588360786438,50.20907592773438,-0.09196856617928,-0.10211151838303,10.00253868103027,1.22076165676117,1.72899925708771,0.77994060516357
190,2044236233,-0.50940328836441,0.59565001726151,50.20936965942383,-0.09187804162502,-0.07787938416004,10.01622104644775,1.21271872520447,1.77559149265289,0.87238240242004
191,2044244566,-0.50901782512665,0.59551548957825,50.20936584472656,-0.10824970901012,-0.09513508528471,10.01666545867920,1.36258780956268,1.78640091419220,0.84366893768311
192,2044252899,-0.50896006822586,0.59626042842865,50.20956039428711,-0.09783586859703,-0.09854071587324,9.99037170410156,1.32583141326904,1.89259767532349,0.86195749044418
193,2044261232,-0.50864648818970,0.59678936004639,50.20907592773438,-0.10198976844549,-0.08953059464693,10.03764438629150,1.35600483417511,1.86677825450897,0.78058099746704
194,2044269565,-0.50900238752365,0.59592545032501,50.20952606201172,-0.12707543373108,-0.07406670600176,10.02292633056641,1.27437222003937,1.70028567314148,0.88956958055496
195,2044277898,-0.50866252183914,0.59646469354630,50.20881652832031,-0.12952744960785,-0.07747045904398,10.02538681030273,1.35841262340546,1.86785399913788,0.74981826543808
196,2044286231,-0.50881028175354,0.59682071208954,50.20829391479492,-0.12505371868610,-0.09102882444859,9.99933052062988,1.30254793167114,1.84621024131775,0.77517646551132
197,2044294564,-0.50941431522369,0.59632426500320,50.20873260498047,-0.12393711507320,-0.08764382451773,9.99963855743408,1.24445486068726,1.74400937557220,0.88180851936340
198,2044302897,-0.50966250896454,0.59596973657608,50.20882797241211,-0.14534127712250,-0.10094612836838,10.02053737640381,1.28863930702209,1.76111948490143,0.84789514541626
199,2044311230,-0.50975513458252,0.59656363725662,50.20861053466797,-0.11248865723610,-0.08395134657621,10.01166343688965,1.30562174320221,1.87402725219727,0.81572377681732
200,2044319563,-0.50921112298965,0.59708070755005,50.20855331420898,-0.13284380733967,-0.08911555260420,9.99280643463135,1.38441109657288,1.86575365066528,0.83075934648514
201,2044327896,-0.50887668132782,0.59720265865326,50.20875549316406,-0.12261661887169,-0.08817247301340,10.01059055328369,1.35759294033051,1.81575453281403,0.86987233161926
202,2044336229,-0.50945222377777,0.59591197967529,50.20872497558594,-0.11608787626028,-0.09115148335695,10.03759193420410,1.24842512607574,1.64859616756439,0.83288526535034
203,2044344562,-0.50889170169830,0.59492355585098,50.20841217041016,-0.10988172888756,-0.06099550053477,10.01748371124268,1.38717722892761,1.68471217155457,0.77128303050995
204,2044352895,-0.50849688053131,0.59414273500443,50.20835876464844,-0.10234487801790,-0.08545853197575,9.98751831054688,1.36584067344666,1.70981419086456,0.83145081996918
205,2044361228,-0.50885266065598,0.59316504001617,50.20880889892578,-0.09044378250837,-0.10035386681557,10.01663208007812,1.27373194694519,1.68512201309204,0.86695218086243
206,2044369561,-0.50807052850723,0.59339904785156,50.20907211303711,-0.09329967945814,-0.09397114813328,10.00200462341309,1.41248428821564,1.83107209205627,0.86861717700958
207,2044377894,-0.50852173566818,0.59318441152573,50.20896530151367,-0.11742278188467,-0.08228309452534,10.00340080261230,1.26387047767639,1.77625763416290,0.82251161336899
208,2044386227,-0.50867897272110,0.59356784820557,50.20988464355469,-0.10947172343731,-0.09618429094553,10.01213836669922,1.29755306243896,1.84872007369995,0.94814926385880
209,2044394560,-0.50878620147705,0.59300011396408,50.20996856689453,-0.12964664399624,-0.08038413524628,10.02087974548340,1.30446898937225,1.73460876941681,0.82896631956100
210,2044402893,-0.50905787944794,0.59313035011292,50.21023941040039,-0.13294528424740,-0.08778446912766,10.02970027923584,1.28702545166016,1.81926357746124,0.87153708934784
211,2044411226,-0.50978875160217,0.59257656335831,50.20973587036133,-0.12837840616703,-0.09635233879089,10.01172637939453,1.22975218296051,1.73688840866089,0.77804517745972
212,2044419559,-0.50988578796387,0.59261423349380,50.20978546142578,-0.13882194459438,-0.07984788715839,10.00897789001465,1.30710744857788,1.80781447887421,0.84405314922333
213,2044427892,-0.51026916503906,0.59263300895691,50.20991516113281,-0.14676868915558,-0.07937673479319,10.01531887054443,1.27078628540039,1.80468940734863,0.84725481271744
214,2044436225,-0.51041656732559,0.59290784597397,50.20996475219727,-0.12805944681168,-0.07691089063883,10.02997875213623,1.30108785629272,1.83599007129669,0.84438604116440
215,2044444558,-0.50990027189255,0.59281569719315,50.21016693115234,-0.11855658888817,-0.07455281913280,10.02009487152100,1.37990307807922,1.79085767269135,0.89108079671860
216,2044452891,-0.50990778207779,0.59284532070160,50.21037673950195,-0.11477369815111,-0.08974491804838,9.99092769622803,1.31666111946106,1.80663585662842,0.86277705430984
217,2044461224,-0.51000589132309,0.59384614229202,50.20998382568359,-0.11667247861624,-0.08403171598911,10.00561809539795,1.30595457553864,1.92266857624054,0.79402852058411
218,2044469557,-0.50941199064255,0.59336966276169,50.21025085449219,-0.11627915501595,-0.08176409453154,10.00878906250000,1.38968741893768,1.74608385562897,0.86795109510422
219,2044477890,-0.50923949480057,0.59369009733200,50.21020126342773,-0.07929600775242,-0.10437572002411,9.98442459106445,1.33825409412384,1.84144592285156,0.83677858114243
220,2044486223,-0.50929266214371,0.59523981809616,50.21000289916992,-0.07930435985327,-0.09267985820770,9.99152565002441,1.31292164325714,1.99049520492554,0.81541639566422
221,2044494556,-0.50921636819839,0.59585404396057,50.20923995971680,-0.09195239841938,-0.11279641091824,10.00694751739502,1.32762432098389,1.87620437145233,0.76078128814697
222,2044502889,-0.50906598567963,0.59590893983841,50.20896148681641,-0.11429087817669,-0.08518345654011,10.00006866455078,1.33610272407532,1.81109297275543,0.80363386869431
223,2044511222,-0.50922203063965,0.59656882286072,50.20848083496094,-0.09116556495428,-0.12674097716808,10.00332260131836,1.29988396167755,1.88232612609863,0.78626734018326
224,2044519555,-0.50864374637604,0.59655731916428,50.20874786376953,-0.11743678152561,-0.08789892494678,10.01307487487793,1.38766407966614,1.80118000507355,0.86856597661972
225,2044527888,-0.50831085443497,0.59643864631653,50.20887756347656,-0.11124458163977,-0.09384920448065,10.01652908325195,1.35695254802704,1.78939747810364,0.83846914768219
226,2044536221,-0.50818049907684,0.59659957885742,50.20908737182617,-0.11585102230310,-0.06938324123621,10.01252937316895,1.33366930484772,1.82164609432220,0.86308455467224
227,2044544554,-0.50887936353683,0.59688252210617,50.20877456665039,-0.11895908415318,-0.08887971937656,9.98940944671631,1.23487520217896,1.83729612827301,0.80939698219299
228,2044552887,-0.50932753086090,0.59644162654877,50.20870590209961,-0.11600719392300,-0.07981368154287,10.01369380950928,1.26527905464172,1.75002849102020,0.82940173149109
229,2044561220,-0.50960099697113,0.59565341472626,50.20814132690430,-0.12107802927494,-0.10043776780367,9.98962593078613,1.28464353084564,1.70973730087280,0.77023279666901
230,2044569553,-0.50886434316635,0.59459894895554,50.20850753784180,-0.12090753018856,-0.10187842696905,9.99470615386963,1.40669524669647,1.67536318302155,0.88101434707642
231,2044577886,-0.50968438386917,0.59430575370789,50.20833206176758,-0.12555481493473,-0.08004953712225,10.03177356719971,1.21902000904083,1.76903450489044,0.81772166490555
232,2044586219,-0.50921529531479,0.59460866451263,50.20736694335938,-0.10887399315834,-0.08398502320051,9.98943996429443,1.37618887424469,1.84001159667969,0.72353816032410
233,2044594552,-0.50897276401520,0.59383851289749,50.20669174194336,-0.10522007197142,-0.07344186306000,10.00034141540527,1.34750080108643,1.71101820468903,0.77156472206116
234,2044602885,-0.50828653573990,0.59353345632553,50.20699310302734,-0.11879664659500,-0.09075092524290,10.01896667480469,1.39998447895050,1.76570451259613,0.87363761663437
235,2044611218,-0.50818365812302,0.59395509958267,50.20711898803711,-0.09999775886536,-0.08797199279070,10.00220298767090,1.32939159870148,1.85415053367615,0.82755750417709
236,2044619551,-0.50760906934738,0.59305620193481,50.20711898803711,-0.10594340413809,-0.07860535383224,10.00794506072998,1.38799691200256,1.69490671157837,0.83752143383026
237,2044627884,-0.50755774974823,0.59307545423508,50.20698928833008,-0.09941347688437,-0.09486918896437,9.97443675994873,1.32342350482941,1.80650782585144,0.81772166490555
238,2044636217,-0.50693762302399,0.59286755323410,50.20678329467773,-0.10646665841341,-0.07966482639313,10.00697135925293,1.39381134510040,1.77830660343170,0.81198400259018
239,2044644550,-0.50679463148117,0.59320807456970,50.20679092407227,-0.11931584030390,-0.09801291674376,10.00073432922363,1.33397650718689,1.84270095825195,0.82917118072510
240,2044652883,-0.50606530904770,0.59277713298798,50.20727157592773,-0.12621708214283,-0.09549643844366,10.01631164550781,1.40597808361053,1.75128376483917,0.89576834440231
241,2044661216,-0.50608456134796,0.59270882606506,50.20707321166992,-0.11131829768419,-0.09174614399672,10.00018978118896,1.31573915481567,1.79436671733856,0.83447337150574
242,2044669549,-0.50640714168549,0.59301203489304,50.20737075805664,-0.14042821526527,-0.07845751196146,10.03124332427979,1.27877795696259,1.83990907669067,0.87386810779572
243,2044677882,-0.50585728883743,0.59342324733734,50.20709609985352,-0.13330392539501,-0.10125447809696,10.00698471069336,1.38402688503265,1.85097420215607,0.81500661373138
244,2044686215,-0.50636947154999,0.59240943193436,50.20763397216797,-0.11408691853285,-0.11292750388384,10.00552749633789,1.25651919841766,1.68179214000702,0.90019953250885
245,2044694548,-0.50626254081726,0.59237152338028,50.20740127563477,-0.12987673282623,-0.08740001916885,10.02491569519043,1.32969903945923,1.79874682426453,0.80819320678711
246,2044702881,-0.50590163469315,0.59160178899765,50.20734024047852,-0.11452525109053,-0.09851819276810,10.00749492645264,1.36258780956268,1.71186351776123,0.82909435033798
247,2044711214,-0.50574821233749,0.59194278717041,50.20742416381836,-0.09497275948524,-0.09995697438717,10.00098800659180,1.33423280715942,1.84218871593475,0.87397056818008
248,2044719547,-0.50575333833694,0.59166842699051,50.20788955688477,-0.11227720975876,-0.10772716253996,9.99922847747803,1.31827509403229,1.76916253566742,0.89392393827438
249,2044727880,-0.50577682256699,0.59148466587067,50.20846557617188,-0.11089700460434,-0.09118697047234,10.00151252746582,1.31481695175171,1.77948462963104,0.91111105680466
250,2044736213,-0.50569182634354,0.59072798490524,50.20719528198242,-0.10480333119631,-0.07880014926195,10.02552604675293,1.32887935638428,1.71424543857574,0.68378484249115
251,2044744546,-0.50524652004242,0.59104597568512,50.20713424682617,-0.07445957511663,-0.07756774872541,10.00641059875488,1.37229549884796,1.84072852134705,0.82773679494858
252,2044752879,-0.50475442409515,0.59049683809280,50.20714950561523,-0.09344915300608,-0.08315084874630,9.99570178985596,1.37839150428772,1.73760557174683,0.84028774499893
253,2044761212,-0.50503212213516,0.59002214670181,50.20721435546875,-0.10380522161722,-0.10168918222189,10.02872562408447,1.28369569778442,1.74531543254852,0.84338706731796
254,2044769545,-0.50549817085266,0.59055048227310,50.20749282836914,-0.10833258926868,-0.07498900592327,10.02554607391357,1.26241016387939,1.86662459373474,0.87025642395020
255,2044777878,-0.50613397359848,0.58975565433502,50.20736312866211,-0.11730232834816,-0.09433390945196,10.00821495056152,1.24030530452728,1.70835411548615,0.84392493963242
256,2044786211,-0.50616610050201,0.58924442529678,50.20695877075195,-0.13322366774082,-0.07671914249659,10.02304840087891,1.31589269638062,1.74167835712433,0.78990453481674
257,2044794544,-0.50631660223007,0.58745348453522,50.20726394653320,-0.13000981509686,-0.09058192372322,10.02499580383301,1.29803979396820,1.58686590194702,0.89676713943481
258,2044802877,-0.50620979070663,0.58694785833359,50.20808029174805,-0.10522918403149,-0.07356514036655,10.00396156311035,1.33126151561737,1.74249815940857,0.93431758880615
259,2044811210,-0.50687903165817,0.58623272180557,50.20738601684570,-0.11856041848660,-0.09231076389551,10.01272773742676,1.23718035221100,1.71657633781433,0.78237402439117
260,2044819543,-0.50701957941055,0.58599227666855,50.20738601684570,-0.11894611269236,-0.05861972644925,10.01339149475098,1.30106210708618,1.77479743957520,0.83682984113693
261,2044827876,-0.50660526752472,0.58610224723816,50.20735549926758,-0.12305603176355,-0.09342835843563,9.98975372314453,1.36745440959930,1.81626701354980,0.83882784843445
262,2044836209,-0.50682467222214,0.58582973480225,50.20689392089844,-0.10907279700041,-0.10897609591484,9.99378967285156,1.29371106624603,1.76959776878357,0.78327047824860
263,2044844542,-0.50689136981964,0.58557981252670,50.20667648315430,-0.08997062593699,-0.08487568050623,10.01064872741699,1.30890011787415,1.77413153648376,0.80691248178482
264,2044852875,-0.50748068094254,0.58568650484085,50.20643997192383,-0.09575962275267,-0.08846097439528,10.00995540618896,1.24957764148712,1.81634366512299,0.80901277065277
265,2044861208,-0.50719326734543,0.58557224273682,50.20611190795898,-0.08824943751097,-0.06665372848511,10.01007747650146,1.35157358646393,1.78967952728271,0.79815238714218
266,2044869541,-0.50724977254868,0.58566874265671,50.20568084716797,-0.08352310210466,-0.08221779763699,10.03761768341064,1.31179463863373,1.81475567817688,0.78724068403244
267,2044877874,-0.50703960657120,0.58541417121887,50.20574951171875,-0.10708622634411,-0.07812267541885,10.01913070678711,1.34373557567596,1.77172398567200,0.84940648078918
268,2044886207,-0.50743401050568,0.58567345142365,50.20536041259766,-0.10293992608786,-0.07210028171539,10.02367973327637,1.27140104770660,1.83442771434784,0.79100602865219
269,2044894540,-0.50742131471634,0.58515578508377,50.20543670654297,-0.10556043684483,-0.09380440413952,10.00584506988525,1.31850564479828,1.74090981483459,0.84582042694092
270,2044902873,-0.50785923004150,0.58589208126068,50.20544433593750,-0.12384761869907,-0.09522137045860,10.02631855010986,1.26563775539398,1.89098381996155,0.83928877115250
271,2044911206,-0.50838690996170,0.58601927757263,50.20513916015625,-0.13377627730370,-0.09622673690319,9.99399280548096,1.25493109226227,1.81821393966675,0.83352565765381
272,2044919539,-0.50874060392380,0.58543938398361,50.20559310913086,-0.12306348234415,-0.07375275343657,10.00339984893799,1.27593481540680,1.73258543014526,0.89015877246857
273,2044927872,-0.50835895538330,0.58529806137085,50.20584869384766,-0.12983179092407,-0.09122780710459,10.03076839447021,1.36371457576752,1.78596520423889,0.82187110185623
274,2044936205,-0.50837534666061,0.58509594202042,50.20534896850586,-0.12694989144802,-0.09071120619774,10.00693416595459,1.31632816791534,1.77997159957886,0.77620100975037
275,2044944538,-0.50849038362503,0.58479231595993,50.20484924316406,-0.10832867771387,-0.08057361096144,10.00980472564697,1.30531418323517,1.76613986492157,0.78634417057037
276,2044952871,-0.50865232944489,0.58489346504211,50.20492172241211,-0.11038334667683,-0.08877859264612,9.98942470550537,1.29852652549744,1.81636953353882,0.84571808576584
277,2044961204,-0.50878441333771,0.58608913421631,50.20508575439453,-0.11561974138021,-0.08840628713369,10.00339412689209,1.30165147781372,1.94433796405792,0.87750530242920
278,2044969537,-0.50834965705872,0.58635240793228,50.20539474487305,-0.08704319596291,-0.08346209675074,10.02080821990967,1.37060475349426,1.83598983287811,0.87322765588760
279,2044977870,-0.50852602720261,0.58638101816177,50.20533370971680,-0.09544477611780,-0.08641566336155,10.00796890258789,1.29568314552307,1.80568814277649,0.83209121227264
280,2044986203,-0.50792491436005,0.58639925718307,50.20493316650391,-0.10406901687384,-0.11105814576149,9.98276424407959,1.39176225662231,1.80525279045105,0.78964847326279
281,2044994536,-0.50761020183563,0.58532392978668,50.20443725585938,-0.09983506798744,-0.08274734765291,10.02678680419922,1.35682439804077,1.67395424842834,0.75048422813416
282,2045002869,-0.50722408294678,0.58534532785416,50.20499420166016,-0.09962812811136,-0.09982769191265,10.01860523223877,1.36261332035065,1.80550909042358,0.90529674291611
283,2045011202,-0.50779718160629,0.58606833219528,50.20476150512695,-0.10004533082247,-0.06407763063908,9.99299240112305,1.24939835071564,1.88998484611511,0.80260932445526
284,2045019535,-0.50801473855972,0.58590489625931,50.20469665527344,-0.12044697254896,-0.09775448590517,9.98579120635986,1.29243016242981,1.78396725654602,0.82968342304230
285,2045027868,-0.50752419233322,0.58537179231644,50.20488357543945,-0.14476011693478,-0.09390451759100,10.00320053100586,1.37616324424744,1.73896324634552,0.85803842544556
286,2045036201,-0.50741410255432,0.58506208658218,50.20502853393555,-0.13268126547337,-0.08504866808653,9.99801349639893,1.33290064334869,1.76573002338409,0.85688579082489
287,2045044534,-0.50657975673676,0.58405649662018,50.20500946044922,-0.13285537064075,-0.09431231021881,9.99874496459961,1.41676175594330,1.68171536922455,0.83823859691620
288,2045052867,-0.50630563497543,0.58363008499146,50.20456314086914,-0.10774073749781,-0.09690517187119,9.98527908325195,1.35234212875366,1.75241088867188,0.78309124708176
289,2045061200,-0.50650960206985,0.58340525627136,50.20360183715820,-0.11736553162336,-0.09330335259438,10.00519847869873,1.29473555088043,1.77571976184845,0.71708333492279
290,2045069533,-0.50653553009033,0.58261460065842,50.20371627807617,-0.11801461130381,-0.08070360124111,9.99943256378174,1.31514990329742,1.70889198780060,0.85035413503647
291,2045077866,-0.50643700361252,0.58236187696457,50.20438766479492,-0.10668410360813,-0.06980551034212,10.02068424224854,1.32903301715851,1.77208256721497,0.91285300254822
292,2045086199,-0.50603252649307,0.58281445503235,50.20446014404297,-0.11072017252445,-0.08627929538488,10.00703620910645,1.36637866497040,1.85684013366699,0.84705001115799
293,2045094532,-0.50591242313385,0.58234846591949,50.20372009277344,-0.12168209254742,-0.09490040689707,10.02286529541016,1.33269596099854,1.74746727943420,0.73373258113861
294,2045102865,-0.50619369745255,0.58219051361084,50.20354080200195,-0.09439527243376,-0.07809469103813,10.02021217346191,1.28592419624329,1.78435158729553,0.81454545259476
295,2045111198,-0.50654393434525,0.58111488819122,50.20373535156250,-0.09701403975487,-0.06097020581365,10.01691436767578,1.27462840080261,1.67364680767059,0.86918067932129
296,2045119531,-0.50632619857788,0.58085185289383,50.20344924926758,-0.10035613179207,-0.08390497416258,10.01258945465088,1.34662997722626,1.77249217033386,0.80404365062714
297,2045127864,-0.50669676065445,0.58091932535172,50.20337677001953,-0.10666997730732,-0.09624428302050,10.00590133666992,1.27237427234650,1.81114399433136,0.82463747262955
298,2045136197,-0.50694763660431,0.58049190044403,50.20342254638672,-0.11662940680981,-0.08921927213669,9.99898719787598,1.28766596317291,1.75169336795807,0.84325903654099
299,2045144530,-0.50673520565033,0.58101785182953,50.20310211181641,-0.11559759825468,-0.06026979163289,10.01193428039551,1.34429931640625,1.86513900756836,0.79945874214172
300,2045152863,-0.50695282220840,0.58171308040619,50.20373916625977,-0.11995670199394,-0.09894735366106,9.96944713592529,1.29179000854492,1.88596343994141,0.91592669487000
301,2045161196,-0.50701546669006,0.58148658275604,50.20399475097656,-0.13081754744053,-0.07692609727383,10.03508567810059,1.30884885787964,1.77666735649109,0.85824334621429
302,2045169529,-0.50666022300720,0.58127081394196,50.20363235473633,-0.11253879964352,-0.07331284880638,10.02248573303223,1.36263895034790,1.77766644954681,0.79233801364899
303,2045177862,-0.50727164745331,0.58135932683945,50.20413589477539,-0.10803765803576,-0.09397800266743,9.99188804626465,1.24353265762329,1.81140017509460,0.89448744058609
304,2045186195,-0.50770968198776,0.58144885301590,50.20411300659180,-0.11170453578234,-0.09317570179701,10.00526237487793,1.26489496231079,1.81462764739990,0.83652245998383
305,2045194528,-0.50803810358047,0.58119845390320,50.20449829101562,-0.11416400223970,-0.09942509233952,9.99032688140869,1.27918767929077,1.77249217033386,0.87970817089081
306,2045202861,-0.50876134634018,0.58101171255112,50.20368957519531,-0.11159525811672,-0.05966356396675,10.00797653198242,1.23157072067261,1.78117537498474,0.73975187540054
307,2045211194,-0.50881981849670,0.58069664239883,50.20344543457031,-0.09640124440193,-0.09771668165922,9.98739147186279,1.31151270866394,1.76624238491058,0.79920250177383
308,2045219527,-0.50901395082474,0.58067619800568,50.20402908325195,-0.10794097185135,-0.09247686713934,10.00274562835693,1.29442822933197,1.79948973655701,0.90673118829727
309,2045227860,-0.50972491502762,0.58064162731171,50.20416259765625,-0.09478458017111,-0.11647769063711,10.01773357391357,1.23256981372833,1.79833722114563,0.85388904809952
310,2045236193,-0.50986725091934,0.58060026168823,50.20465850830078,-0.10262456536293,-0.07898248732090,9.99301624298096,1.30065250396729,1.79808104038239,0.89727950096130
311,2045244526,-0.51019001007080,0.58073067665100,50.20488357543945,-0.10402947664261,-0.08229593932629,9.99946212768555,1.27808630466461,1.81662547588348,0.86736208200455
312,2045252859,-0.51069486141205,0.58125513792038,50.20521163940430,-0.08355455100536,-0.07827114313841,10.02173137664795,1.25805592536926,1.86793100833893,0.87742847204208
313,2045261192,-0.51085788011551,0.58057475090027,50.20460128784180,-0.09466629475355,-0.08927744626999,9.99675941467285,1.29788589477539,1.72087955474854,0.77220511436462
314,2045269525,-0.51072853803635,0.58012789487839,50.20466995239258,-0.10715806484222,-0.08363381028175,10.00376701354980,1.33502662181854,1.74982357025146,0.84479582309723
315,2045277858,-0.51032298803329,0.58010113239288,50.20418930053711,-0.12969593703747,-0.08837546408176,10.03327846527100,1.36676275730133,1.80043745040894,0.77212840318680
316,2045286191,-0.51044785976410,0.58007395267487,50.20411682128906,-0.12943308055401,-0.09035543352365,10.01136875152588,1.30288088321686,1.80015552043915,0.82932490110397
317,2045294524,-0.51059848070145,0.58028972148895,50.20404434204102,-0.13320380449295,-0.07948084920645,10.02396869659424,1.30016565322876,1.82797253131866,0.84231126308441
318,2045302857,-0.51067078113556,0.57990437746048,50.20418548583984,-0.12614190578461,-0.10257281363010,10.01078414916992,1.30849027633667,1.75663697719574,0.85429871082306
319,2045311190,-0.50972372293472,0.58036285638809,50.20387268066406,-0.10616241395473,-0.10395019501448,10.00028705596924,1.43205356597900,1.85809516906738,0.80199456214905
320,2045319523,-0.50960606336594,0.58122682571411,50.20401000976562,-0.12121948599815,-0.09060748666525,10.02722072601318,1.33351552486420,1.90691566467285,0.85404258966446
321,2045327856,-0.51006221771240,0.58043116331100,50.20387268066406,-0.09172986447811,-0.06516661494970,10.01350212097168,1.26241028308868,1.70635616779327,0.82699394226074
322,2045336189,-0.50920504331589,0.58109235763550,50.20375823974609,-0.09941214323044,-0.07325863093138,9.99878883361816,1.42068064212799,1.88317131996155,0.82499611377716
323,2045344522,-0.50933301448822,0.58151638507843,50.20420837402344,-0.11494318395853,-0.08249080926180,10.04127597808838,1.30185651779175,1.85230636596680,0.89382159709930
324,2045352855,-0.50970304012299,0.58182430267334,50.20423507690430,-0.09699653834105,-0.08175814151764,10.03232288360596,1.27508938312531,1.84126639366150,0.84197831153870
325,2045361188,-0.50866550207138,0.58157378435135,50.20411682128906,-0.09843348711729,-0.09591722488403,10.02744579315186,1.44217109680176,1.77264583110809,0.82130765914917
326,2045369521,-0.50829160213470,0.58153331279755,50.20351028442383,-0.08664374798536,-0.07558209449053,10.01042175292969,1.36327934265137,1.79915678501129,0.76592975854874
327,2045377854,-0.50866252183914,0.58224648237228,50.20403289794922,-0.10789782553911,-0.08613986521959,9.98991966247559,1.27255344390869,1.88660347461700,0.90839594602585
328,2045386187,-0.50859695672989,0.58224886655807,50.20402145385742,-0.11726132780313,-0.09734293073416,9.99815082550049,1.32708644866943,1.80486881732941,0.83506250381470
329,2045394520,-0.50863140821457,0.58253341913223,50.20380020141602,-0.12115813791752,-0.07634793221951,10.04984283447266,1.31392073631287,1.83650231361389,0.78831654787064
330,2045402853,-0.50802206993103,0.58228230476379,50.20311737060547,-0.11092466861010,-0.08735634386539,10.02361011505127,1.39194166660309,1.77374756336212,0.75655490159988
331,2045411186,-0.50726330280304,0.58304965496063,50.20341491699219,-0.12450405955315,-0.09927143156528,10.01865196228027,1.40836024284363,1.89505624771118,0.87758207321167
332,2045419519,-0.50721645355225,0.58317935466766,50.20317459106445,-0.13927637040615,-0.07028109580278,10.03765869140625,1.32467854022980,1.81821370124817,0.81031906604767
333,2045427852,-0.50678324699402,0.58381974697113,50.20334625244141,-0.11913303285837,-0.08702184259892,10.02012443542480,1.36909377574921,1.87874019145966,0.85837149620056
334,2045436185,-0.50752049684525,0.58375859260559,50.20291519165039,-0.13102990388870,-0.08160285651684,9.99552822113037,1.23095607757568,1.79767096042633,0.78585749864578
335,2045444518,-0.50812005996704,0.58290785551071,50.20271682739258,-0.11884284019470,-0.07915350794792,10.01033878326416,1.24535143375397,1.70072126388550,0.81390517950058
336,2045452851,-0.50812560319901,0.58342778682709,50.20232009887695,-0.09698795527220,-0.09094237536192,9.99409103393555,1.31906914710999,1.86639404296875,0.79236358404160
337,2045461184,-0.50808012485504,0.58277845382690,50.20180130004883,-0.11835004389286,-0.08657905459404,10.00395965576172,1.32352602481842,1.72446548938751,0.76426470279694
338,2045469517,-0.50794529914856,0.58304023742676,50.20112609863281,-0.12114899605513,-0.09887030720711,9.99011039733887,1.33584642410278,1.83532392978668,0.75719517469406
339,2045477850,-0.50723904371262,0.58337986469269,50.20129776000977,-0.08734142035246,-0.07698997855186,10.01493453979492,1.40236639976501,1.84349477291107,0.86295634508133
340,2045486183,-0.50736862421036,0.58344650268555,50.20105361938477,-0.09459663182497,-0.07276260852814,10.00868129730225,1.30288076400757,1.81116962432861,0.80832111835480
341,2045494516,-0.50725185871124,0.58295816183090,50.20094680786133,-0.09921731799841,-0.10287072509527,9.99792766571045,1.33218348026276,1.74357366561890,0.83667612075806
342,2045502849,-0.50732409954071,0.58383136987686,50.20009613037109,-0.09795107692480,-0.09912510961294,10.00441169738770,1.30997598171234,1.90968203544617,0.73744660615921
343,2045511182,-0.50743043422699,0.58350014686584,50.20061874389648,-0.10080044716597,-0.08328286558390,10.02268028259277,1.30554473400116,1.76278448104858,0.89061969518661
344,2045519515,-0.50827682018280,0.58359420299530,50.20111083984375,-0.11706834286451,-0.06575313955545,10.03087425231934,1.21576690673828,1.81391048431396,0.89720255136490
345,2045527848,-0.50780349969864,0.58330249786377,50.20120620727539,-0.11695171147585,-0.07875707745552,10.00822257995605,1.37401151657104,1.76703631877899,0.85071277618408
346,2045536181,-0.50771725177765,0.58314210176468,50.20088195800781,-0.12278631329536,-0.07655052095652,9.98161888122559,1.32972455024719,1.78550422191620,0.80022716522217
347,2045544514,-0.50722020864487,0.58356589078903,50.20083999633789,-0.13183984160423,-0.08260791748762,9.98724269866943,1.37790501117706,1.85210144519806,0.82976043224335
348,2045552847,-0.50710928440094,0.58377283811569,50.20022201538086,-0.13753034174442,-0.10035660117865,9.99160575866699,1.33156895637512,1.82869005203247,0.76534056663513
349,2045561180,-0.50716000795364,0.58387029170990,50.20011520385742,-0.13293492794037,-0.08495704084635,10.00820541381836,1.31179463863373,1.81347501277924,0.81646656990051
350,2045569513,-0.50690978765488,0.58384072780609,50.20062255859375,-0.13049457967281,-0.09021954983473,10.00211334228516,1.34824371337891,1.80046308040619,0.89717704057693
351,2045577846,-0.50678348541260,0.58358484506607,50.20002746582031,-0.11121398210526,-0.08659490197897,10.00414085388184,1.33302879333496,1.77215921878815,0.76685184240341
352,2045586179,-0.50780290365219,0.58373832702637,50.20000076293945,-0.11245387047529,-0.07668520510197,10.01232624053955,1.19673550128937,1.82149231433868,0.83393555879593
353,2045594512,-0.50787419080734,0.58392816781998,50.19991302490234,-0.11804446578026,-0.08467827737331,10.01589488983154,1.30925881862640,1.82561612129211,0.81403315067291
354,2045602845,-0.50772196054459,0.58395731449127,50.20009231567383,-0.11580854654312,-0.09608263522387,10.00035667419434,1.33763945102692,1.80743026733398,0.85947293043137
355,2045611178,-0.50760084390640,0.58392030000687,50.20008468627930,-0.08003584295511,-0.08864381909370,10.05303955078125,1.33064675331116,1.79667210578918,0.83611267805099
356,2045619511,-0.50761932134628,0.58475494384766,50.20018386840820,-0.11596373468637,-0.07984583824873,10.01591110229492,1.31668710708618,1.90327870845795,0.85135322809219
357,2045627844,-0.50717359781265,0.58503985404968,50.20041656494141,-0.11104491353035,-0.08508856594563,10.01760768890381,1.37147569656372,1.83691191673279,0.85978019237518
358,2045636177,-0.50672197341919,0.58535397052765,50.20080184936523,-0.09258735924959,-0.07212171703577,10.02776432037354,1.37301266193390,1.84021627902985,0.88621419668198
359,2045644510,-0.50624912977219,0.58655333518982,50.20037460327148,-0.12623789906502,-0.11153909564018,10.03118419647217,1.37324333190918,1.94705319404602,0.78478169441223
360,2045652843,-0.50608450174332,0.58674520254135,50.20050430297852,-0.12461361289024,-0.08608360588551,10.00983142852783,1.33876645565033,1.82648694515228,0.85399144887924
361,2045661176,-0.50517797470093,0.58625763654709,50.20047760009766,-0.13974897563457,-0.09193373471498,10.04426479339600,1.42659759521484,1.74480319023132,0.83583086729050
362,2045669509,-0.50519579648972,0.58507370948792,50.20106506347656,-0.12377589941025,-0.09086614102125,10.02330207824707,1.31566226482391,1.65945649147034,0.90780687332153
363,2045677842,-0.50532108545303,0.58515638113022,50.20137023925781,-0.12213911861181,-0.08553237468004,9.98476123809814,1.30175387859344,1.81252753734589,0.88690567016602
364,2045686175,-0.50513994693756,0.58545869588852,50.20126724243164,-0.11640685796738,-0.08730206638575,9.98453235626221,1.34071326255798,1.83942246437073,0.82535475492477
365,2045694508,-0.50535917282104,0.58608835935593,50.20136642456055,-0.14072315394878,-0.09358052909374,10.01507377624512,1.29235339164734,1.87779259681702,0.83268040418625
366,2045702841,-0.50596374273300,0.58548587560654,50.20144271850586,-0.12841287255287,-0.09070488810539,10.02553081512451,1.24555623531342,1.73153507709503,0.84651201963425
367,2045711174,-0.50594258308411,0.58506554365158,50.20049667358398,-0.11864138394594,-0.07459991425276,10.01105213165283,1.32022154331207,1.75284612178802,0.72881460189819
368,2045719507,-0.50596284866333,0.58428394794464,50.20008850097656,-0.11316478252411,-0.10831214487553,9.97030830383301,1.31699419021606,1.70999348163605,0.78800910711288
369,2045727840,-0.50564932823181,0.58408004045486,50.20032119750977,-0.09258402884007,-0.07954766601324,9.98248958587646,1.35631227493286,1.77710294723511,0.86334067583084
370,2045736173,-0.50560414791107,0.58451110124588,50.20057678222656,-0.07646203786135,-0.10993096977472,10.00468254089355,1.32283425331116,1.85514938831329,0.86912935972214
371,2045744506,-0.50949817895889,0.59124457836151,50.21441650390625,-0.08513282984495,-0.09093157947063,9.99545192718506,1.35659396648407,1.80871069431305,0.75594007968903
372,2045752839,-0.51019597053528,0.59113740921021,50.21428298950195,-0.09447757899761,-0.09499733895063,9.99593639373779,1.23776972293854,1.78955137729645,0.81974518299103
373,2045761172,-0.51033109426498,0.59069687128067,50.21466445922852,-0.10721256583929,-0.07784220576286,9.99069213867188,1.29988408088684,1.74902975559235,0.86554348468781
374,2045769505,-0.50980663299561,0.59092533588409,50.21438980102539,-0.11426731199026,-0.09084121137857,9.99305915832520,1.38374507427216,1.83040618896484,0.80194330215454
375,2045777838,-0.51054590940475,0.59058409929276,50.21485900878906,-0.11575539410114,-0.07747244834900,9.98486900329590,1.22780561447144,1.76099145412445,0.89277130365372
376,2045786171,-0.51069641113281,0.59095662832260,50.21432876586914,-0.14487808942795,-0.08139909803867,10.01957607269287,1.30067801475525,1.84784948825836,0.77299922704697
377,2045794504,-0.51095849275589,0.59151124954224,50.21359252929688,-0.13365975022316,-0.07208465039730,10.01232337951660,1.28743553161621,1.86987769603729,0.74897307157516
378,2045802837,-0.51159083843231,0.59121918678284,50.21368408203125,-0.14055912196636,-0.09339105337858,9.99988555908203,1.24343025684357,1.76811218261719,0.84643512964249
379,2045811170,-0.51162117719650,0.59076547622681,50.21344375610352,-0.11409418284893,-0.08318370580673,10.00318527221680,1.31430494785309,1.74762094020844,0.80996054410934
380,2045819503,-0.51156508922577,0.59070169925690,50.21352386474609,-0.13365933299065,-0.09623952209949,9.98552703857422,1.32516527175903,1.79441809654236,0.84676820039749
381,2045827836,-0.51176816225052,0.59091132879257,50.21264266967773,-0.12091659009457,-0.09288829565048,10.02094650268555,1.29499161243439,1.82802379131317,0.73142731189728
382,2045836169,-0.51122325658798,0.59035342931747,50.21262741088867,-0.10246594250202,-0.10859261453152,10.02261066436768,1.38423180580139,1.73635053634644,0.83211684226990
383,2045844502,-0.51003086566925,0.59073686599731,50.21262741088867,-0.10222535580397,-0.07822836190462,10.00959777832031,1.46071588993073,1.84838736057281,0.85073846578598
384,2045852835,-0.50999379158020,0.59009826183319,50.21265411376953,-0.08694484829903,-0.09232220053673,9.97345733642578,1.32367944717407,1.72602796554565,0.83898144960403
385,2045861168,-0.51054090261459,0.58942806720734,50.21261596679688,-0.09729116410017,-0.06242204830050,10.00530433654785,1.25254881381989,1.72318482398987,0.80975562334061
386,2045869501,-0.51051819324493,0.58992713689804,50.21286773681641,-0.10227806866169,-0.09337262809277,10.02257156372070,1.32114386558533,1.86129677295685,0.86895006895065
387,2045877834,-0.51070326566696,0.58952444791794,50.21389770507812,-0.09764631837606,-0.09833721816540,9.98220348358154,1.29504299163818,1.75417816638947,0.94786763191223
388,2045886167,-0.51009744405746,0.59015822410583,50.21353149414062,-0.09090812504292,-0.09369784593582,10.00585174560547,1.39255642890930,1.87894511222839,0.79210746288300
389,2045894500,-0.51037961244583,0.59022051095963,50.21340179443359,-0.11433648318052,-0.09504053741693,10.01265239715576,1.28420805931091,1.80924856662750,0.81208646297455
390,2045902833,-0.51043701171875,0.59039962291718,50.21403503417969,-0.11726912111044,-0.09453288465738,10.00499057769775,1.31033468246460,1.82374632358551,0.91275054216385
391,2045911166,-0.51080709695816,0.59034502506256,50.21503067016602,-0.14305990934372,-0.10060569643974,10.03153896331787,1.27219510078430,1.79485332965851,0.96994704008102
392,2045919499,-0.51103371381760,0.58984607458115,50.21494674682617,-0.13216716051102,-0.10072834044695,10.01242160797119,1.29153370857239,1.74267721176147,0.82448375225067
393,2045927832,-0.51122969388962,0.58988612890244,50.21452713012695,-0.12239741533995,-0.09230949729681,9.99973869323730,1.29640054702759,1.80686664581299,0.80737352371216
394,2045936165,-0.51081132888794,0.58962875604630,50.21408843994141,-0.12279270589352,-0.08707959949970,10.04380226135254,1.36822271347046,1.77231287956238,0.78342413902283
395,2045944498,-0.51169037818909,0.58910208940506,50.21485519409180,-0.12353957444429,-0.08648447692394,10.02507114410400,1.21264183521271,1.73863029479980,0.91144412755966
396,2045952831,-0.51245892047882,0.58792501688004,50.21555709838867,-0.12906268239021,-0.08359591662884,10.01051807403564,1.22437310218811,1.66073715686798,0.91974306106567
397,2045961164,-0.51185047626495,0.58933943510056,50.21490097045898,-0.10518321394920,-0.06556402146816,9.99154090881348,1.39345300197601,1.97174549102783,0.77274310588837
398,2045969497,-0.51217848062515,0.58926719427109,50.21481323242188,-0.11325524747372,-0.08804814517498,10.00533962249756,1.27898275852203,1.79390561580658,0.82435572147369
399,2045977830,-0.51188915967941,0.58904254436493,50.21456146240234,-0.10630729049444,-0.07421428710222,9.99270915985107,1.35300791263580,1.77571976184845,0.80278861522675
400,2045986163,-0.51201206445694,0.58939903974533,50.21481323242188,-0.08673372119665,-0.09209609776735,10.02688980102539,1.30359804630280,1.84513437747955,0.86830985546112
401,2045994496,-0.51216191053391,0.58986514806747,50.21529006958008,-0.08976238220930,-0.09156281501055,10.01924037933350,1.30083179473877,1.85842812061310,0.87553304433823
402,2046002829,-0.51170855760574,0.58994305133820,50.21603012084961,-0.10410071909428,-0.08113998174667,9.97563648223877,1.37219297885895,1.81111860275269,0.92409759759903
403,2046011162,-0.51237231492996,0.58963859081268,50.21608734130859,-0.10339149832726,-0.09230440855026,9.98573493957520,1.23848664760590,1.76524329185486,0.83631753921509
404,2046019495,-0.51234018802643,0.58978617191315,50.21559906005859,-0.10584989935160,-0.09104788303375,9.97968578338623,1.32306480407715,1.82195341587067,0.77817326784134
405,2046027828,-0.51329588890076,0.58868712186813,50.21493148803711,-0.11307405680418,-0.07901689410210,10.00088310241699,1.20313906669617,1.66990721225739,0.76365000009537
406,2046036161,-0.51285040378571,0.58909863233566,50.21490478515625,-0.13256481289864,-0.08878198266029,9.99616050720215,1.37321758270264,1.85228049755096,0.83385854959488
407,2046044494,-0.51281851530075,0.58855390548706,50.21538925170898,-0.13312157988548,-0.09805554896593,9.99722194671631,1.32116937637329,1.73701643943787,0.89074784517288
408,2046052827,-0.51270133256912,0.58874464035034,50.21512603759766,-0.14360348880291,-0.07293096184731,10.00826072692871,1.33274686336517,1.82530868053436,0.80511939525604
409,2046061160,-0.51249563694000,0.58804976940155,50.21461868286133,-0.13919737935066,-0.10530625283718,10.04312038421631,1.34414541721344,1.71880471706390,0.79226106405258
410,2046069493,-0.51276159286499,0.58803999423981,50.21470642089844,-0.11286581307650,-0.05648600310087,9.99310588836670,1.28594982624054,1.80258893966675,0.84640944004059
411,2046077826,-0.51280754804611,0.58814460039139,50.21525955200195,-0.10063638538122,-0.09550492465496,10.01262569427490,1.31176900863647,1.81385922431946,0.90401601791382
412,2046086159,-0.51222270727158,0.58823293447495,50.21493911743164,-0.08223159611225,-0.11182285845280,10.00850200653076,1.39037919044495,1.81424367427826,0.79830604791641
413,2046094492,-0.51250368356705,0.58778244256973,50.21454238891602,-0.08816607296467,-0.08093416690826,10.00077342987061,1.28359317779541,1.74744153022766,0.78493535518646
414,2046102825,-0.51243710517883,0.58889412879944,50.21527099609375,-0.09628758579493,-0.08530078083277,10.02842521667480,1.32700943946838,1.93509149551392,0.92681270837784
415,2046111158,-0.51306086778641,0.58899563550949,50.21527862548828,-0.09664385765791,-0.08681928366423,9.96224594116211,1.24266171455383,1.81414091587067,0.82901746034622
416,2046119491,-0.51274400949478,0.58922189474106,50.21458053588867,-0.08799091726542,-0.07419919967651,10.00241756439209,1.35838699340820,1.83166122436523,0.75383979082108
417,2046127824,-0.51292383670807,0.58870774507523,50.21403884887695,-0.10313545912504,-0.08546360582113,9.99959945678711,1.29529881477356,1.74039757251740,0.77148789167404
418,2046136157,-0.51344704627991,0.58734911680222,50.21285629272461,-0.10883571207523,-0.09691593050957,10.01356792449951,1.25890123844147,1.64132165908813,0.69221186637878
419,2046144490,-0.51286375522614,0.58706980943680,50.21353149414062,-0.12616100907326,-0.08125536143780,10.00367927551270,1.38694703578949,1.76859903335571,0.91467159986496
420,2046152823,-0.51294398307800,0.58720564842224,50.21391296386719,-0.13838727772236,-0.08423592150211,9.98956489562988,1.30925893783569,1.81795775890350,0.88301241397858
421,2046161156,-0.51337152719498,0.58680987358093,50.21297836303711,-0.13251858949661,-0.07590266317129,10.00739002227783,1.26781487464905,1.75548434257507,0.72407597303391
422,2046169489,-0.51335877180099,0.58764654397964,50.21254348754883,-0.12685334682465,-0.10472583770752,10.03592586517334,1.32050359249115,1.90315043926239,0.78611367940903
423,2046177822,-0.51320469379425,0.58797377347946,50.21304321289062,-0.11879863590002,-0.09531223773956,10.01264381408691,1.33500123023987,1.84111273288727,0.87699294090271
424,2046186155,-0.51332569122314,0.58754158020020,50.21343994140625,-0.14080683887005,-0.07785267382860,9.99029541015625,1.30408477783203,1.75077128410339,0.88329404592514
425,2046194488,-0.51334083080292,0.58849507570267,50.21347045898438,-0.12697970867157,-0.08177947252989,10.00830650329590,1.31732738018036,1.91667485237122,0.79953557252884
426,2046202821,-0.51299440860748,0.58836621046066,50.21371459960938,-0.10890708118677,-0.09509970247746,10.01122856140137,1.36061549186707,1.78683626651764,0.86608141660690
427,2046211154,-0.51375424861908,0.58785992860794,50.21434402465820,-0.10931158065796,-0.09004016965628,10.02593421936035,1.22519278526306,1.74032068252563,0.89733076095581
428,2046219487,-0.51394659280777,0.58834987878799,50.21377182006836,-0.08753751218319,-0.08635760843754,9.98123741149902,1.29752743244171,1.86355102062225,0.76772266626358
429,2046227820,-0.51394039392471,0.58855503797531,50.21333694458008,-0.10346578061581,-0.08677726984024,10.03612899780273,1.31865930557251,1.82600045204163,0.81026792526245
430,2046236153,-0.51332902908325,0.58881300687790,50.21363830566406,-0.08903986960649,-0.09041657298803,10.00757598876953,1.39176225662231,1.83394098281860,0.87343257665634
431,2046244486,-0.51375555992126,0.58882123231888,50.21313476562500,-0.07986840605736,-0.10386472940445,10.02538108825684,1.26720023155212,1.80345976352692,0.76833730936050
432,2046252819,-0.51369941234589,0.58915561437607,50.21281814575195,-0.12140682339668,-0.10360129922628,10.00593471527100,1.32506275177002,1.84354615211487,0.79984295368195
433,2046261152,-0.51357567310333,0.58838164806366,50.21234512329102,-0.10948197543621,-0.08778994530439,10.00374698638916,1.33420705795288,1.70950698852539,0.76413673162460
434,2046269485,-0.51394057273865,0.58789086341858,50.21271133422852,-0.11854737251997,-0.09244086593390,9.99814510345459,1.27575540542603,1.74403476715088,0.87922137975693
435,2046277818,-0.51385837793350,0.58747935295105,50.21208953857422,-0.11637967824936,-0.08551476150751,10.01548957824707,1.32798278331757,1.75276947021484,0.76162648200989
436,2046286151,-0.51418274641037,0.58759438991547,50.21230697631836,-0.12365408986807,-0.08790571242571,10.02302074432373,1.27908539772034,1.81654882431030,0.86303329467773
437,2046294484,-0.51447767019272,0.58824092149734,50.21284484863281,-0.14298535883427,-0.08114668726921,10.00331211090088,1.28351652622223,1.87907326221466,0.89200288057327
438,2046302817,-0.51393562555313,0.58804541826248,50.21216201782227,-0.12329456955194,-0.09176949411631,10.00664901733398,1.38469278812408,1.78130364418030,0.75471067428589
439,2046311150,-0.51464384794235,0.58816325664520,50.21200561523438,-0.11062533408403,-0.06827206909657,9.99816417694092,1.23300516605377,1.81488370895386,0.80483770370483
440,2046319483,-0.51437890529633,0.58838075399399,50.21051025390625,-0.12572169303894,-0.08336000144482,10.00567340850830,1.35249567031860,1.83176350593567,0.65814495086670
441,2046327816,-0.51446533203125,0.58872967958450,50.21115112304688,-0.13033108413219,-0.09478185325861,10.02357292175293,1.30713295936584,1.84298264980316,0.89843219518661
442,2046336149,-0.51411116123199,0.58767879009247,50.21047592163086,-0.11376237124205,-0.08468097448349,10.01486110687256,1.36215198040009,1.67715597152710,0.75345551967621
443,2046344482,-0.51405733823776,0.58751618862152,50.21097183227539,-0.09728135913610,-0.11653383076191,10.01526546478271,1.32319307327271,1.78266108036041,0.87983608245850
444,2046352815,-0.51375609636307,0.58841997385025,50.21068572998047,-0.08378315716982,-0.07904387265444,10.00985050201416,1.35551834106445,1.91188502311707,0.80260926485062
445,2046361148,-0.51344585418701,0.58808857202530,50.21038818359375,-0.10790706425905,-0.10539630800486,10.00221824645996,1.35538995265961,1.76232326030731,0.79746079444885
446,2046369481,-0.51313656568527,0.58907800912857,50.21110153198242,-0.10977993905544,-0.08356467634439,9.97692298889160,1.35559499263763,1.92159283161163,0.92448180913925
447,2046377814,-0.51333516836166,0.58893764019012,50.21128082275391,-0.09098101407290,-0.08053436875343,10.01559257507324,1.29422330856323,1.78353214263916,0.82471442222595
448,2046386147,-0.51324880123138,0.58952265977859,50.21212768554688,-0.12784467637539,-0.09152160584927,10.00498104095459,1.32885384559631,1.87354052066803,0.93795490264893
449,2046394480,-0.51281726360321,0.59004306793213,50.21126556396484,-0.12941497564316,-0.08945765346289,10.00888061523438,1.37121975421906,1.86408889293671,0.76149845123291
450,2046402813,-0.51335221529007,0.59009361267090,50.21145248413086,-0.11993660777807,-0.11107868701220,9.99931907653809,1.25403475761414,1.80955624580383,0.85814100503922
451,2046411146,-0.51293283700943,0.58989995718002,50.21160507202148,-0.13000459969044,-0.07847521454096,10.03987216949463,1.36893999576569,1.77812755107880,0.85119950771332
452,2046419479,-0.51238721609116,0.59027063846588,50.21166610717773,-0.12691961228848,-0.10953045636415,9.98615741729736,1.38330936431885,1.84677350521088,0.84372001886368
453,2046427812,-0.51207107305527,0.59039020538330,50.21171569824219,-0.13913106918335,-0.07869045436382,10.00075912475586,1.35649156570435,1.81639516353607,0.85099464654922
454,2046436145,-0.51266485452652,0.58989036083221,50.21154022216797,-0.11832422018051,-0.08662615716457,10.02785587310791,1.24722099304199,1.74416291713715,0.81418681144714
455,2046444478,-0.51298528909683,0.59050625562668,50.21186828613281,-0.12443156540394,-0.07709012180567,10.00142574310303,1.27905952930450,1.87492370605469,0.85919106006622
456,2046452811,-0.51329356431961,0.58893287181854,50.21166992187500,-0.10699237138033,-0.07844045758247,9.99003982543945,1.28261995315552,1.61419618129730,0.80988365411758
457,2046461144,-0.51373636722565,0.58905577659607,50.21166610717773,-0.10911834239960,-0.09985116124153,10.01682949066162,1.26481807231903,1.81718897819519,0.81436616182327
458,2046469477,-0.51347833871841,0.58938467502594,50.21134567260742,-0.10614613443613,-0.09613119810820,10.03564167022705,1.35036969184875,1.84298253059387,0.79743522405624
459,2046477810,-0.51234823465347,0.58983135223389,50.21110153198242,-0.09242329746485,-0.08880526572466,9.99108791351318,1.45420968532562,1.85471379756927,0.84185022115707
460,2046486143,-0.51261413097382,0.58986181020737,50.21149063110352,-0.09556214511395,-0.06903997063637,9.97982120513916,1.28536069393158,1.80604672431946,0.88296109437943
461,2046494476,-0.51217824220657,0.58938014507294,50.21134567260742,-0.07766578346491,-0.09607355296612,9.99442386627197,1.37091231346130,1.74467492103577,0.80673313140869
462,2046502809,-0.51212847232819,0.58936512470245,50.21079254150391,-0.10738227516413,-0.10205049812794,10.02174472808838,1.32657396793365,1.80146193504333,0.77112931013107
463,2046511142,-0.51218223571777,0.58873224258423,50.21102142333984,-0.10292813926935,-0.09332630038261,10.02289009094238,1.31025767326355,1.72566938400269,0.83191186189651
464,2046519475,-0.51237028837204,0.58843070268631,50.21039962768555,-0.10812192410231,-0.10538955032825,10.00759506225586,1.29775786399841,1.76701068878174,0.76137024164200
465,2046527808,-0.51303797960281,0.58825182914734,50.21009063720703,-0.11163862794638,-0.08790436387062,10.00594043731689,1.23784625530243,1.78132903575897,0.80378746986389
466,2046536141,-0.51306223869324,0.58777594566345,50.21002578735352,-0.13857050240040,-0.08930891007185,10.00061035156250,1.31640505790710,1.74569964408875,0.82778799533844
467,2046544474,-0.51316195726395,0.58719462156296,50.20934677124023,-0.14195975661278,-0.10115203261375,10.01644039154053,1.30695354938507,1.73299503326416,0.74643719196320
468,2046552807,-0.51375037431717,0.58659702539444,50.20989608764648,-0.11237520724535,-0.07694088667631,9.99943065643311,1.24798953533173,1.73125326633453,0.90104472637177
469,2046561140,-0.51376664638519,0.58674430847168,50.20983505249023,-0.14487987756729,-0.07969136536121,10.01294612884521,1.31684076786041,1.81941771507263,0.80791145563126
470,2046569473,-0.51328498125076,0.58651286363602,50.20984649658203,-0.13417388498783,-0.09254589676857,10.01762771606445,1.37624001502991,1.77451598644257,0.83675307035446
471,2046577806,-0.51390618085861,0.58606386184692,50.20965957641602,-0.12175626307726,-0.08660804480314,10.01206970214844,1.24399387836456,1.74956762790680,0.78078597784042
472,2046586139,-0.51360946893692,0.58604347705841,50.20934677124023,-0.10322042554617,-0.10117065161467,10.02215385437012,1.35518503189087,1.80087268352509,0.79904878139496
473,2046594472,-0.51315999031067,0.58745110034943,50.20878982543945,-0.08678276836872,-0.09009626507759,10.02562236785889,1.37150156497955,1.97133564949036,0.74728256464005
474,2046602805,-0.51281273365021,0.58756768703461,50.20897674560547,-0.10089007019997,-0.08877772837877,10.02647399902344,1.36076903343201,1.81675350666046,0.86039507389069
475,2046611138,-0.51244002580643,0.58820134401321,50.20925903320312,-0.08662412315607,-0.07023052871227,10.02022075653076,1.36325371265411,1.87681925296783,0.86344301700592
476,2046619471,-0.51138114929199,0.58811515569687,50.20962905883789,-0.07326451689005,-0.09262344986200,9.99772739410400,1.44480931758881,1.79282987117767,0.88091200590134
477,2046627804,-0.51088261604309,0.58829814195633,50.20988082885742,-0.08942735195160,-0.07084243744612,9.99466323852539,1.37890386581421,1.82336211204529,0.86523610353470
478,2046636137,-0.51078784465790,0.58799791336060,50.20960235595703,-0.10534659028053,-0.10248189419508,10.01117992401123,1.32992947101593,1.76836836338043,0.80278855562210
479,2046644470,-0.51069808006287,0.58846092224121,50.20961761474609,-0.13687525689602,-0.09834558516741,9.99338722229004,1.32831573486328,1.85637867450714,0.83419150114059
480,2046652803,-0.51060163974762,0.58860355615616,50.20916366577148,-0.12461622804403,-0.07516142725945,10.02101135253906,1.33246541023254,1.82069838047028,0.78278392553329
481,2046661136,-0.51053309440613,0.58750349283218,50.20912170410156,-0.12632794678211,-0.10999795794487,10.01273059844971,1.32549810409546,1.66998398303986,0.84387373924255
482,2046669469,-0.51081651449203,0.58771061897278,50.20906448364258,-0.15596525371075,-0.06807795166969,10.04423522949219,1.28431057929993,1.82807493209839,0.83188629150391
483,2046677802,-0.51064342260361,0.58870911598206,50.20924758911133,-0.14056481420994,-0.08900483697653,9.99722671508789,1.33884334564209,1.91997897624969,0.88037401437759
484,2046686135,-0.51103526353836,0.58840554952621,50.20901107788086,-0.12447734177113,-0.06688857823610,9.96121120452881,1.27311718463898,1.76795864105225,0.80719429254532
485,2046694468,-0.51191121339798,0.58854877948761,50.20857238769531,-0.13178747892380,-0.09713855385780,9.99393653869629,1.21256494522095,1.81839299201965,0.79195368289948
486,2046702801,-0.51202344894409,0.58909422159195,50.20783233642578,-0.11576553434134,-0.07002741098404,10.01011657714844,1.30667173862457,1.87000548839569,0.74904984235764
487,2046711134,-0.51178961992264,0.58925181627274,50.20780563354492,-0.10373937338591,-0.08354829996824,9.98113632202148,1.34575903415680,1.82059574127197,0.82023185491562
488,2046719467,-0.51234853267670,0.58955544233322,50.20752716064453,-0.11582853645086,-0.08694816380739,10.01139068603516,1.25162661075592,1.84029304981232,0.80161023139954
489,2046727800,-0.51178300380707,0.58976268768311,50.20789337158203,-0.07421570271254,-0.07133699208498,10.03635215759277,1.38581979274750,1.82579565048218,0.88124501705170
490,2046736133,-0.51221251487732,0.58984279632568,50.20785903930664,-0.09989254176617,-0.10284933447838,10.02755928039551,1.26714897155762,1.81360304355621,0.83101534843445
491,2046744466,-0.51190227270126,0.58960282802582,50.20759582519531,-0.08446556329727,-0.06679137796164,9.98221778869629,1.35674762725830,1.77331197261810,0.78352665901184
492,2046752799,-0.51163053512573,0.59044981002808,50.20711517333984,-0.10469661653042,-0.10032884031534,10.01547241210938,1.35113799571991,1.90560936927795,0.77988934516907
493,2046761132,-0.51182818412781,0.59071689844131,50.20708084106445,-0.11107042431831,-0.08604723960161,10.03513145446777,1.29535031318665,1.83373594284058,0.82212728261948
494,2046769465,-0.51179730892181,0.59077876806259,50.20675277709961,-0.13173438608646,-0.09261479973793,10.00985908508301,1.32283437252045,1.81017065048218,0.79787051677704
495,2046777798,-0.51147592067719,0.59141421318054,50.20683670043945,-0.11597201973200,-0.06444384902716,10.01926422119141,1.35718309879303,1.87838160991669,0.83109235763550
496,2046786131,-0.51136094331741,0.59126007556915,50.20638275146484,-0.13852567970753,-0.09229826182127,10.01628875732422,1.33210659027100,1.78473579883575,0.78329610824585
497,2046794464,-0.51080894470215,0.59149199724197,50.20650100708008,-0.13506452739239,-0.09461843967438,10.02139759063721,1.38423168659210,1.82943272590637,0.82189667224884
498,2046802797,-0.51077330112457,0.59044635295868,50.20726776123047,-0.12052728980780,-0.09157051146030,10.00854682922363,1.32250142097473,1.67659258842468,0.92827278375626
499,2046811130,-0.51001721620560,0.58961474895477,50.20733642578125,-0.11940975487232,-0.08091177046299,10.01157855987549,1.40856516361237,1.70294952392578,0.84881728887558
500,2046819463,-0.50999701023102,0.58978652954102,50.20750808715820,-0.11441831290722,-0.08227338641882,10.02221393585205,1.32081079483032,1.82218372821808,0.85552823543549
501,2046827796,-0.50949412584305,0.59029841423035,50.20790481567383,-0.11487896740437,-0.08117926120758,9.99680709838867,1.37759745121002,1.86380684375763,0.89543527364731
502,2046836129,-0.50974553823471,0.59123879671097,50.20745468139648,-0.09593244642019,-0.08842134475708,10.02639102935791,1.28879308700562,1.91611146926880,0.78270703554153
503,2046844462,-0.50943684577942,0.59027552604675,50.20760726928711,-0.09619566798210,-0.10520918667316,9.99355030059814,1.35549259185791,1.68619811534882,0.83275717496872
504,2046852795,-0.50953257083893,0.58992320299149,50.20819473266602,-0.08697178214788,-0.08958932757378,10.00690269470215,1.30767083168030,1.76027429103851,0.90652632713318
505,2046861128,-0.50901347398758,0.58913928270340,50.20849990844727,-0.08916492760181,-0.08703737705946,10.02129554748535,1.37887823581696,1.70812380313873,0.87017953395844
506,2046869461,-0.50911033153534,0.58922380208969,50.20891189575195,-0.09047434478998,-0.07656677812338,10.01649379730225,1.30710721015930,1.81286048889160,0.88506150245667
507,2046877794,-0.50883895158768,0.58857375383377,50.20913314819336,-0.10728712379932,-0.07982791960239,10.01821041107178,1.35108685493469,1.72259557247162,0.84607654809952
508,2046886127,-0.50853496789932,0.58796393871307,50.20951843261719,-0.11059423536062,-0.07685413956642,10.00303745269775,1.35413491725922,1.73012638092041,0.88252568244934
509,2046894460,-0.50878667831421,0.58763092756271,50.20954895019531,-0.11824726313353,-0.05500529333949,10.00837612152100,1.28812694549561,1.76211833953857,0.81692755222321
510,2046902793,-0.50848305225372,0.58676284551620,50.20984649658203,-0.12127400189638,-0.08964593708515,10.01524066925049,1.35510826110840,1.69731438159943,0.87148588895798
511,2046911126,-0.50844794511795,0.58796197175980,50.20980072021484,-0.13624492287636,-0.07128385454416,10.01344203948975,1.32091343402863,1.94661808013916,0.87952888011932
512,2046919459,-0.50848323106766,0.58791458606720,50.20915222167969,-0.14431124925613,-0.09498920291662,9.98387813568115,1.31607210636139,1.79703092575073,0.75929558277130
513,2046927792,-0.50831544399261,0.58663547039032,50.20833587646484,-0.13595964014530,-0.11066699773073,9.99295902252197,1.33909940719604,1.64910829067230,0.77210265398026
514,2046936125,-0.50825601816177,0.58743661642075,50.20747375488281,-0.12267745286226,-0.10607568919659,10.04719066619873,1.32652282714844,1.90040981769562,0.73339962959290
515,2046944458,-0.50715744495392,0.58824700117111,50.20722579956055,-0.11048930138350,-0.10092961043119,10.02738094329834,1.45054697990417,1.89861690998077,0.81480169296265
516,2046952791,-0.50736296176910,0.58775782585144,50.20679473876953,-0.10524557530880,-0.07568472623825,10.00059604644775,1.29609310626984,1.74536669254303,0.78496098518372
517,2046961124,-0.50718581676483,0.58762598037720,50.20686340332031,-0.07421193271875,-0.09947572648525,10.02377223968506,1.33894574642181,1.78565788269043,0.84015971422195
518,2046969457,-0.50806736946106,0.58719670772552,50.20616531372070,-0.08578609675169,-0.06783805042505,10.00777339935303,1.21307730674744,1.75194954872131,0.75225162506104
519,2046977790,-0.50784885883331,0.58688849210739,50.20626831054688,-0.10472051054239,-0.11896301805973,10.02483463287354,1.34527242183685,1.76516652107239,0.83301323652267
520,2046986123,-0.50819832086563,0.58718490600586,50.20563888549805,-0.09436774998903,-0.08346891403198,9.99982070922852,1.27783024311066,1.83791089057922,0.76131910085678
521,2046994456,-0.50923222303391,0.58772343397141,50.20523071289062,-0.10321668535471,-0.09403913468122,9.99931907653809,1.19417393207550,1.86631715297699,0.80591350793839
522,2047002789,-0.50830644369125,0.58775162696838,50.20561981201172,-0.11333739757538,-0.08932705223560,10.01423263549805,1.42931282520294,1.80709731578827,0.88229519128799
523,2047011122,-0.50827795267105,0.58753979206085,50.20618438720703,-0.10885056108236,-0.07344093173742,9.98622608184814,1.32122075557709,1.77523314952850,0.89653670787811
524,2047019455,-0.50829559564590,0.58736371994019,50.20701217651367,-0.15114113688469,-0.08019927144051,9.99112224578857,1.31596982479095,1.78125238418579,0.93457382917404
525,2047027788,-0.50819140672684,0.58694684505463,50.20722198486328,-0.13221205770969,-0.08738189190626,10.02087974548340,1.32946848869324,1.75212895870209,0.84679377079010
526,2047036121,-0.50845569372177,0.58626323938370,50.20756912231445,-0.14096030592918,-0.09915148466825,9.99994564056396,1.28728175163269,1.72029042243958,0.87829923629761
527,2047044454,-0.50859016180038,0.58716732263565,50.20727539062500,-0.13022187352180,-0.05673013255000,9.99854755401611,1.30290639400482,1.91114199161530,0.79174876213074
528,2047052787,-0.50870835781097,0.58661538362503,50.20752334594727,-0.11580765247345,-0.09335023909807,10.02600574493408,1.30372619628906,1.73553085327148,0.86510795354843
529,2047061120,-0.50882023572922,0.58595252037048,50.20776367187500,-0.10388076305389,-0.05187637358904,9.99529647827148,1.30503237247467,1.72228825092316,0.87468767166138
530,2047069453,-0.50919592380524,0.58599197864532,50.20727539062500,-0.12956713140011,-0.09190197288990,9.99528121948242,1.27360391616821,1.80837798118591,0.77899301052094
531,2047077786,-0.50865525007248,0.58637964725494,50.20727539062500,-0.10923588275909,-0.07296913862228,9.99593353271484,1.38284850120544,1.84872031211853,0.82617437839508
532,2047086119,-0.50797504186630,0.58712333440781,50.20663833618164,-0.11886858940125,-0.08657317608595,9.98464107513428,1.40172624588013,1.89295625686646,0.76129353046417
533,2047094452,-0.50784510374069,0.58719271421432,50.20680618286133,-0.09815754741430,-0.09148541837931,9.99593639373779,1.33400237560272,1.80873656272888,0.85616862773895
534,2047102785,-0.50759828090668,0.58669263124466,50.20722579956055,-0.09095554798841,-0.06131384521723,10.02309417724609,1.34829509258270,1.74347138404846,0.88593244552612
535,2047111118,-0.50725275278091,0.58646553754807,50.20756530761719,-0.08641504496336,-0.09040575474501,10.00646781921387,1.35869431495667,1.77418291568756,0.87847864627838
536,2047119451,-0.50722074508667,0.58583581447601,50.20741653442383,-0.10460636019707,-0.07018455117941,9.97469043731689,1.32280886173248,1.72787213325500,0.81582611799240
537,2047127784,-0.50685238838196,0.58609163761139,50.20733642578125,-0.13136538863182,-0.10858900099993,10.03121185302734,1.36133265495300,1.83217334747314,0.82812100648880
538,2047136117,-0.50690108537674,0.58620542287827,50.20748519897461,-0.11159851402044,-0.09197802841663,10.02269458770752,1.31440722942352,1.81583166122437,0.85488796234131
539,2047144450,-0.50684684514999,0.58571863174438,50.20755004882812,-0.13735949993134,-0.07952603697777,10.00090980529785,1.32367956638336,1.74431657791138,0.82038551568985
540,2047152783,-0.50616663694382,0.58559894561768,50.20700454711914,-0.12672704458237,-0.08685903251171,10.02207088470459,1.40203356742859,1.78873181343079,0.77112936973572
541,2047161116,-0.50593984127045,0.58526152372360,50.20586013793945,-0.15026982128620,-0.10230094939470,10.01483631134033,1.34534919261932,1.76222085952759,0.72953182458878
542,2047169449,-0.50655949115753,0.58477801084518,50.20547485351562,-0.13154064118862,-0.10842081159353,10.02511024475098,1.24522328376770,1.74375295639038,0.79018628597260
543,2047177782,-0.50632667541504,0.58429235219955,50.20605850219727,-0.12994527816772,-0.08760946989059,10.00130462646484,1.34555423259735,1.74464976787567,0.88836580514908
544,2047186115,-0.50630843639374,0.58357983827591,50.20664596557617,-0.12891700863838,-0.10458114743233,10.03823661804199,1.32027304172516,1.71611523628235,0.90539908409119
545,2047194448,-0.50658178329468,0.58253860473633,50.20751190185547,-0.12465450167656,-0.07019299268723,10.02352809906006,1.28482294082642,1.67564499378204,0.93331879377365
546,2047202781,-0.50657045841217,0.58259958028793,50.20759201049805,-0.09735704958439,-0.08012688159943,10.02131462097168,1.31955575942993,1.81119549274445,0.84556442499161
547,2047211114,-0.50641804933548,0.58063149452209,50.20782470703125,-0.08852199465036,-0.09297658503056,10.01418685913086,1.33507812023163,1.56358265876770,0.87243372201920
548,2047219447,-0.50610333681107,0.58032280206680,50.20733261108398,-0.10707170516253,-0.10245049744844,10.02590847015381,1.35772097110748,1.76596057415009,0.77702051401138
549,2047227780,-0.50655812025070,0.58005124330521,50.20770263671875,-0.11014565080404,-0.10349604487419,9.98948383331299,1.26397275924683,1.76975142955780,0.84730607271194
550,2047236113,-0.50581270456314,0.57926410436630,50.20820999145508,-0.09557418525219,-0.07977164536715,10.01216030120850,1.40728449821472,1.70730400085449,0.89461565017700
551,2047244446,-0.50576686859131,0.57819849252701,50.20901489257812,-0.12462124228477,-0.09171053022146,9.99363708496094,1.32221961021423,1.67380070686340,0.90078860521317
552,2047252779,-0.50535476207733,0.57876884937286,50.20851516723633,-0.11516033113003,-0.06453965604305,10.01340675354004,1.36945235729218,1.87307953834534,0.77743047475815
553,2047261112,-0.50504702329636,0.57877647876740,50.20831298828125,-0.11630455404520,-0.09865581244230,10.01562786102295,1.35541570186615,1.80128264427185,0.81080585718155
554,2047269445,-0.50479996204376,0.57906466722488,50.20791625976562,-0.12050832808018,-0.08306615799665,9.94928264617920,1.34911453723907,1.83885872364044,0.78936666250229
555,2047277778,-0.50521993637085,0.57962536811829,50.20766067504883,-0.13290129601955,-0.10666409134865,9.98420143127441,1.26784074306488,1.86877632141113,0.81692761182785
556,2047286111,-0.50515562295914,0.57989311218262,50.20831298828125,-0.10527177155018,-0.08383346349001,10.01932334899902,1.32531905174255,1.83404326438904,0.91436415910721
557,2047294444,-0.50532937049866,0.57951056957245,50.20830917358398,-0.11733055114746,-0.07545396685600,10.00303554534912,1.29732251167297,1.75604784488678,0.80809068679810
558,2047302777,-0.50520646572113,0.57947105169296,50.20899200439453,-0.12173390388489,-0.09128531068563,10.01511764526367,1.33466815948486,1.79718458652496,0.91861617565155
559,2047311110,-0.50499540567398,0.57905685901642,50.20865631103516,-0.10664431750774,-0.07540767639875,10.01651954650879,1.34291589260101,1.75320494174957,0.77317851781845
560,2047319443,-0.50550436973572,0.57719647884369,50.20893096923828,-0.11439573764801,-0.10553421825171,10.03078651428223,1.25810706615448,1.57948911190033,0.86759251356125
561,2047327776,-0.50568455457687,0.57717835903168,50.20905303955078,-0.10782717913389,-0.08338006585836,9.99026966094971,1.29616987705231,1.79879796504974,0.86111223697662
562,2047336109,-0.50545996427536,0.57880473136902,50.20857238769531,-0.10912089794874,-0.10147531330585,10.02619934082031,1.34675800800323,1.99887073040009,0.78076028823853
563,2047344442,-0.50543504953384,0.57857090234756,50.20923995971680,-0.11089823395014,-0.08098225295544,10.01171302795410,1.32014501094818,1.77249240875244,0.86759263277054
564,2047352775,-0.50583857297897,0.57767909765244,50.20938873291016,-0.10798650234938,-0.07907097041607,10.00420284271240,1.27063250541687,1.69649481773376,0.85329973697662
565,2047361108,-0.50631242990494,0.57732236385345,50.20930862426758,-0.09291378408670,-0.10138525813818,10.00085163116455,1.26112973690033,1.75802040100098,0.84251630306244
566,2047369441,-0.50617796182632,0.57716542482376,50.20917892456055,-0.09326861798763,-0.08699464797974,10.02112960815430,1.33541071414948,1.78401839733124,0.82030862569809
567,2047377774,-0.50626307725906,0.57639330625534,50.20957946777344,-0.09735219925642,-0.08921165764332,10.00039291381836,1.30718398094177,1.71058261394501,0.89279693365097
568,2047386107,-0.50658929347992,0.57502686977386,50.20935821533203,-0.09350551664829,-0.07819221168756,10.00684642791748,1.28051948547363,1.63817119598389,0.80809068679810
569,2047394440,-0.50633752346039,0.57446104288101,50.20964050292969,-0.11747135221958,-0.09653960168362,10.01600646972656,1.34734725952148,1.73319995403290,0.85547697544098
570,2047402773,-0.50692588090897,0.57450461387634,50.20928192138672,-0.12352235615253,-0.08162292838097,9.97574806213379,1.24939835071564,1.80871069431305,0.79326003789902
571,2047411106,-0.50683408975601,0.57468438148499,50.20828247070312,-0.11441045999527,-0.10895948857069,10.00396728515625,1.32951974868774,1.82395148277283,0.73980319499969
572,2047419439,-0.50678962469101,0.57365661859512,50.20818328857422,-0.13473436236382,-0.07302197813988,10.03163814544678,1.32460176944733,1.67940998077393,0.82228094339371
573,2047427772,-0.50676882266998,0.57292568683624,50.20842742919922,-0.12527361512184,-0.10164226591587,10.00544071197510,1.32022166252136,1.71470654010773,0.83104103803635
574,2047436105,-0.50673860311508,0.57333326339722,50.20795059204102,-0.12507978081703,-0.07378329336643,9.99282646179199,1.32344925403595,1.85325407981873,0.77927470207214
575,2047444438,-0.50629860162735,0.57410293817520,50.20740509033203,-0.13582451641560,-0.08373972773552,10.02005672454834,1.37073302268982,1.89382708072662,0.77351152896881
576,2047452771,-0.50604194402695,0.57316780090332,50.20755386352539,-0.11829859018326,-0.10285887867212,9.98703765869141,1.35060012340546,1.69073164463043,0.85419625043869
577,2047461104,-0.50620228052139,0.57325184345245,50.20802307128906,-0.10199606418610,-0.10029463469982,9.99967670440674,1.29793739318848,1.81186139583588,0.88237202167511
578,2047469437,-0.50651544332504,0.57234144210815,50.20786666870117,-0.10559199005365,-0.10172886401415,10.00173091888428,1.28246629238129,1.69311380386353,0.81749117374420
579,2047477770,-0.50623977184296,0.57199966907501,50.20809936523438,-0.08112005144358,-0.08246859908104,10.00990676879883,1.35013914108276,1.75973629951477,0.86141949892044
580,2047486103,-0.50599122047424,0.57134133577347,50.20815658569336,-0.09125214070082,-0.06659631431103,10.01664447784424,1.34898638725281,1.72354340553284,0.84233689308167
581,2047494436,-0.50637638568878,0.57106018066406,50.20778656005859,-0.08657240122557,-0.09336567670107,9.98835754394531,1.27106785774231,1.76918792724609,0.79277330636978
582,2047502769,-0.50571036338806,0.57185268402100,50.20732116699219,-0.09611067920923,-0.08008541166782,10.00266647338867,1.40100908279419,1.89818155765533,0.78140068054199
583,2047511102,-0.50564670562744,0.57224446535110,50.20865249633789,-0.11901533603668,-0.08977467566729,10.02810001373291,1.32426881790161,1.84823358058929,0.98311281204224
584,2047519435,-0.50559407472610,0.57303470373154,50.20848083496094,-0.11044054478407,-0.07641510665417,9.99826622009277,1.32465302944183,1.89815592765808,0.81649225950241
585,2047527768,-0.50605434179306,0.57212275266647,50.20871353149414,-0.13000066578388,-0.08803217858076,10.00073051452637,1.26228225231171,1.69175612926483,0.85542589426041
586,2047536101,-0.50667864084244,0.57231199741364,50.20776367187500,-0.12249038368464,-0.08412700146437,9.98261260986328,1.24576103687286,1.82656383514404,0.72266721725464
587,2047544434,-0.50716924667358,0.57240682840347,50.20704650878906,-0.13405488431454,-0.09336712956429,10.00748252868652,1.25959277153015,1.81370556354523,0.77804511785507
588,2047552767,-0.50719475746155,0.57234716415405,50.20722579956055,-0.13504892587662,-0.08964323252439,9.99337959289551,1.31576490402222,1.79610860347748,0.85765421390533
589,2047561100,-0.50715690851212,0.57255166769028,50.20643997192383,-0.12373375892639,-0.09418893605471,9.98551940917969,1.32429444789886,1.82635915279388,0.75112468004227
590,2047569433,-0.50614798069000,0.57403749227524,50.20666885375977,-0.12504725158215,-0.07324195653200,10.01935005187988,1.43917417526245,1.98083829879761,0.86497986316681
591,2047577766,-0.50646257400513,0.57529717683792,50.20618820190430,-0.09787709265947,-0.07145407050848,9.98990440368652,1.28028917312622,1.95361065864563,0.78555023670197
592,2047586099,-0.50623637437820,0.57462561130524,50.20544052124023,-0.10689916461706,-0.07846060395241,10.02583408355713,1.34785938262939,1.72308242321014,0.74438804388046
593,2047594432,-0.50596326589584,0.57394510507584,50.20486450195312,-0.11126883327961,-0.07261674106121,10.03469371795654,1.35047197341919,1.72044408321381,0.78250193595886
594,2047602765,-0.50557219982147,0.57492899894714,50.20436477661133,-0.09981959313154,-0.10778805613518,9.99904251098633,1.36753118038177,1.92131114006042,0.77881360054016
595,2047611098,-0.50565463304520,0.57486850023270,50.20483398437500,-0.08503627032042,-0.08291443437338,10.03167343139648,1.30751705169678,1.79413640499115,0.86359667778015
596,2047619431,-0.50560480356216,0.57501173019409,50.20442962646484,-0.09456989914179,-0.07689652591944,10.02236461639404,1.32585668563843,1.82144069671631,0.78585749864578
597,2047627764,-0.50615543127060,0.57648819684982,50.20439910888672,-0.10280856490135,-0.07908699661493,10.00023269653320,1.25124263763428,1.97745716571808,0.85619431734085
598,2047636097,-0.50694596767426,0.57607835531235,50.20335006713867,-0.09673668444157,-0.06441294401884,10.00412368774414,1.22567963600159,1.75599658489227,0.71065419912338
599,2047644430,-0.50701498985291,0.57626712322235,50.20283126831055,-0.12576059997082,-0.09647843986750,10.01753425598145,1.30974555015564,1.82487356662750,0.78216910362244
600,2047652763,-0.50626182556152,0.57759267091751,50.20246505737305,-0.12106192111969,-0.06568697839975,9.98739910125732,1.41061449050903,1.96142292022705,0.79400295019150
601,2047661096,-0.50614923238754,0.57663387060165,50.20242309570312,-0.15453904867172,-0.09281979501247,10.01613712310791,1.33190190792084,1.68750429153442,0.82876145839691
602,2047669429,-0.50590652227402,0.57594603300095,50.20199584960938,-0.14273782074451,-0.07757776230574,9.99738979339600,1.34783375263214,1.72146856784821,0.78460246324539
603,2047677762,-0.50591772794724,0.57543379068375,50.20194625854492,-0.14017075300217,-0.07656034827232,10.04355525970459,1.31632816791534,1.73978281021118,0.84689623117447
604,2047686095,-0.50683403015137,0.57461071014404,50.20165252685547,-0.13848802447319,-0.08731410652399,10.03263187408447,1.21046471595764,1.70428156852722,0.80153346061707
605,2047694428,-0.50658190250397,0.57466685771942,50.20159149169922,-0.12458509951830,-0.08768010139465,10.02832794189453,1.34686040878296,1.80901789665222,0.83257788419724
606,2047702761,-0.50618714094162,0.57453668117523,50.20061492919922,-0.09899521619081,-0.08622842282057,10.05468273162842,1.36822271347046,1.78701543807983,0.72048997879028
607,2047711094,-0.50562673807144,0.57405853271484,50.20053100585938,-0.11115891486406,-0.09288578480482,10.02956771850586,1.38561475276947,1.74475204944611,0.82205045223236
608,2047719427,-0.50590527057648,0.57249552011490,50.20077133178711,-0.08071001619101,-0.07939077913761,10.00164508819580,1.28446412086487,1.61563062667847,0.86485177278519
609,2047727760,-0.50597852468491,0.57270294427872,50.20045852661133,-0.07860030233860,-0.06472162902355,9.99573612213135,1.30948948860168,1.82705068588257,0.79305517673492
610,2047736093,-0.50602859258652,0.57389384508133,50.20033264160156,-0.06795324385166,-0.09832024574280,10.01467418670654,1.31407427787781,1.94551646709442,0.82184559106827
611,2047744426,-0.50561535358429,0.57471221685410,50.20021438598633,-0.10510897636414,-0.08321458846331,10.02079868316650,1.36812043190002,1.90133178234100,0.82340794801712
612,2047752759,-0.50987744331360,0.58362782001495,50.21056365966797,-0.11512810736895,-0.07555509358644,10.01064682006836,1.37401151657104,1.93019890785217,0.82558512687683
613,2047761092,-0.50981628894806,0.58356904983521,50.21051406860352,-0.10820666700602,-0.09048695862293,9.99677276611328,1.32455039024353,1.79472529888153,0.83864843845367
614,2047769425,-0.50964516401291,0.58391100168228,50.21075820922852,-0.12545855343342,-0.06385556608438,10.02432823181152,1.34025204181671,1.84152281284332,0.86587637662888
615,2047777758,-0.50908434391022,0.58471375703812,50.21012878417969,-0.13190424442291,-0.09461737424135,10.00278568267822,1.38676750659943,1.89853990077972,0.76195949316025
616,2047786091,-0.50802147388458,0.58489942550659,50.20997619628906,-0.13407538831234,-0.08833620697260,10.00669765472412,1.44749879837036,1.82492470741272,0.81810587644577
617,2047794424,-0.50818282365799,0.58568173646927,50.20997619628906,-0.13591684401035,-0.11175831407309,10.00569629669189,1.29801404476166,1.89503085613251,0.83460140228271
618,2047802757,-0.50902342796326,0.58515530824661,50.21056365966797,-0.13070571422577,-0.09726843237877,10.00563144683838,1.21709859371185,1.73814344406128,0.90409272909164
619,2047811090,-0.50968003273010,0.58407342433929,50.21069335937500,-0.11405064910650,-0.08983708918095,9.99438858032227,1.24053585529327,1.67162334918976,0.85593801736832
620,2047819423,-0.51007014513016,0.58377456665039,50.21051406860352,-0.10217040032148,-0.09299025684595,9.98146533966064,1.27158021926880,1.76665210723877,0.81393069028854
621,2047827756,-0.51005113124847,0.58324712514877,50.21032714843750,-0.10867148637772,-0.05934872478247,9.98806381225586,1.32183527946472,1.73839962482452,0.77471536397934
622,2047836089,-0.50923144817352,0.58472114801407,50.21031951904297,-0.07308024913073,-0.11723457276821,9.99641418457031,1.41770958900452,1.97948110103607,0.83536988496780
623,2047844422,-0.50855648517609,0.58543622493744,50.21062469482422,-0.08931719511747,-0.08852675557137,10.02263069152832,1.39903676509857,1.88586091995239,0.87896525859833
624,2047852755,-0.50814813375473,0.58565974235535,50.21022415161133,-0.08479289710522,-0.08393106609583,10.01552200317383,1.36819732189178,1.83020126819611,0.78749692440033
625,2047861088,-0.50793510675430,0.58565592765808,50.21044158935547,-0.07429596036673,-0.07383403182030,10.00411415100098,1.34419667720795,1.80141055583954,0.86003637313843
626,2047869421,-0.50796163082123,0.58579200506210,50.21039962768555,-0.10515978187323,-0.07352601736784,10.01920223236084,1.31643080711365,1.81911039352417,0.83017015457153
627,2047877754,-0.50782990455627,0.58633238077164,50.21142578125000,-0.11716375499964,-0.10346749424934,9.99833202362061,1.33249104022980,1.86421692371368,0.95836949348450
628,2047886087,-0.50716769695282,0.58563131093979,50.21194839477539,-0.11430812627077,-0.06777869164944,9.99129867553711,1.39855003356934,1.71760094165802,0.89684396982193
629,2047894420,-0.50659757852554,0.58676379919052,50.21207427978516,-0.13180641829967,-0.08165524154902,9.99244117736816,1.38656270503998,1.93673086166382,0.84666579961777
630,2047902753,-0.50608694553375,0.58800464868546,50.21220016479492,-0.14621344208717,-0.08258682489395,10.00488567352295,1.38097870349884,1.95189440250397,0.85168617963791
631,2047911086,-0.50602543354034,0.58756089210510,50.21198654174805,-0.12819178402424,-0.08608334511518,10.01654720306396,1.32439684867859,1.74659633636475,0.83762401342392
632,2047919419,-0.50614690780640,0.58667808771133,50.21217727661133,-0.12035705149174,-0.07639333605766,10.00166988372803,1.30598008632660,1.69572627544403,0.85793596506119
633,2047927752,-0.50680601596832,0.58671122789383,50.21098709106445,-0.13777108490467,-0.08375315368176,9.99909687042236,1.23994684219360,1.80581629276276,0.68450206518173
634,2047936085,-0.50678128004074,0.58662855625153,50.21114349365234,-0.12799224257469,-0.10660927742720,10.02735710144043,1.32237315177917,1.79354727268219,0.85324853658676
635,2047944418,-0.50642889738083,0.58724075555801,50.21098709106445,-0.11146545410156,-0.08749463409185,10.03522586822510,1.36023128032684,1.87402725219727,0.83785450458527
636,2047952751,-0.50615310668945,0.58797097206116,50.21142578125000,-0.09735158830881,-0.08321144431829,9.97740268707275,1.35200893878937,1.88962602615356,0.88964641094208
637,2047961084,-0.50667637586594,0.58808165788651,50.21188354492188,-0.09243629872799,-0.08739282935858,10.01120090484619,1.25577616691589,1.81357741355896,0.86582517623901
638,2047969417,-0.50679308176041,0.58891284465790,50.21092224121094,-0.09504000842571,-0.09505907446146,10.05050563812256,1.30708169937134,1.90368831157684,0.72018259763718
639,2047977750,-0.50675320625305,0.58990210294724,50.21074295043945,-0.09639002382755,-0.08510835468769,10.01594257354736,1.32270634174347,1.91985118389130,0.86684972047806
640,2047986083,-0.50702619552612,0.59068077802658,50.21060943603516,-0.08804646134377,-0.09847911447287,10.00098228454590,1.28671824932098,1.89620888233185,0.81874626874924
641,2047994416,-0.50648671388626,0.59090542793274,50.21129608154297,-0.11244247108698,-0.09118435531855,10.05121135711670,1.38184964656830,1.82707607746124,0.90921568870544
642,2048002749,-0.50663316249847,0.58989930152893,50.21137237548828,-0.10644174367189,-0.09763249754906,10.00104427337646,1.30170273780823,1.68145918846130,0.84307968616486
643,2048011082,-0.50638604164124,0.58976304531097,50.21066284179688,-0.12070182710886,-0.11201568692923,9.99968433380127,1.34906327724457,1.78686177730560,0.74633473157883
644,2048019415,-0.50602519512177,0.58980554342270,50.21058273315430,-0.14367976784706,-0.07866230607033,10.00107479095459,1.36230576038361,1.80686664581299,0.82619988918304
645,2048027748,-0.50596559047699,0.58998757600784,50.21024703979492,-0.12245171517134,-0.09690136462450,10.00337314605713,1.32657408714294,1.82379758358002,0.80045759677887
646,2048036081,-0.50632542371750,0.59001642465591,50.21060943603516,-0.12845784425735,-0.10431441664696,10.01560592651367,1.27496159076691,1.80530416965485,0.88060468435287
647,2048044414,-0.50625503063202,0.59079802036285,50.21081924438477,-0.12310749292374,-0.09503558278084,10.00561904907227,1.32764983177185,1.89433932304382,0.84141486883163
648,2048052747,-0.50506222248077,0.59098422527313,50.21182250976562,-0.11411552131176,-0.10566675662994,10.00822639465332,1.46102321147919,1.82410514354706,0.95793402194977
649,2048061080,-0.50475656986237,0.59252583980560,50.21214675903320,-0.09688828885555,-0.09281337261200,10.02380466461182,1.35521078109741,1.98624312877655,0.88618856668472
650,2048069413,-0.50465220212936,0.59220969676971,50.21160888671875,-0.11123894900084,-0.10022191703320,10.02710056304932,1.33249092102051,1.76460313796997,0.77033531665802
651,2048077746,-0.50436353683472,0.59132528305054,50.21172714233398,-0.09534597396851,-0.10262657701969,10.03017902374268,1.35236752033234,1.69541895389557,0.84446287155151
652,2048086079,-0.50380045175552,0.59137612581253,50.21172714233398,-0.07094579935074,-0.07227558642626,10.00687694549561,1.38712608814240,1.80760931968689,0.83634310960770
653,2048094412,-0.50314569473267,0.59230637550354,50.21172714233398,-0.11356224864721,-0.07826075702906,10.01064014434814,1.39624476432800,1.91324234008789,0.83634322881699
654,2048102745,-0.50276482105255,0.59319317340851,50.21170806884766,-0.08712591975927,-0.07965667545795,9.98979282379150,1.36640417575836,1.90904176235199,0.83511376380920
655,2048111078,-0.50281977653503,0.59335464239120,50.21131134033203,-0.09367164224386,-0.09132912755013,10.04291534423828,1.31158959865570,1.82082617282867,0.77225643396378
656,2048119411,-0.50294667482376,0.59243363142014,50.21158981323242,-0.09957461059093,-0.07892115414143,9.99084281921387,1.30454564094543,1.69175612926483,0.86597883701324
657,2048127744,-0.50305360555649,0.59209233522415,50.21207427978516,-0.10870008170605,-0.08619052916765,10.04197216033936,1.30526292324066,1.75973629951477,0.89164429903030
658,2048136077,-0.50252389907837,0.59239727258682,50.21205520629883,-0.11498283594847,-0.10318444669247,10.01921939849854,1.38261806964874,1.83985793590546,0.83373057842255
659,2048144410,-0.50181090831757,0.59210014343262,50.21227264404297,-0.12593333423138,-0.07279238849878,9.99215507507324,1.40385222434998,1.76416778564453,0.88006669282913
660,2048152743,-0.50239837169647,0.59056264162064,50.21245574951172,-0.12651883065701,-0.09830072522163,10.00296497344971,1.24870693683624,1.61755204200745,0.85511851310730
661,2048161076,-0.50239890813828,0.59101533889771,50.21198272705078,-0.12317132949829,-0.09758059680462,10.00241279602051,1.31847989559174,1.85648131370544,0.76895213127136
662,2048169409,-0.50217962265015,0.59210008382797,50.21207427978516,-0.12688820064068,-0.10577087849379,10.05298519134521,1.34593832492828,1.93273460865021,0.84661442041397
663,2048177742,-0.50224298238754,0.59266775846481,50.21235275268555,-0.11771755665541,-0.06979709863663,9.97403049468994,1.30977106094360,1.86752104759216,0.91198199987411
664,2048186075,-0.50175964832306,0.59296721220016,50.21176910400391,-0.12695579230785,-0.07075298577547,9.99183940887451,1.37777686119080,1.83896124362946,0.76554548740387
665,2048194408,-0.50142949819565,0.59371370077133,50.21223068237305,-0.11016796529293,-0.07303734868765,9.99896717071533,1.35743927955627,1.89157271385193,0.89090150594711
666,2048202741,-0.50097787380219,0.59425508975983,50.21232604980469,-0.09806860238314,-0.06823678314686,10.01367378234863,1.37308955192566,1.86636865139008,0.84804892539978
667,2048211074,-0.50083404779434,0.59405285120010,50.21208953857422,-0.11255477368832,-0.10005641728640,9.99026393890381,1.33605134487152,1.77689790725708,0.80678433179855
668,2048219407,-0.50044929981232,0.59379547834396,50.21170043945312,-0.10348661243916,-0.06610742956400,9.99770069122314,1.36619925498962,1.77215921878815,0.78808599710464
669,2048227740,-0.50035732984543,0.59380960464478,50.21158599853516,-0.09409037232399,-0.11025769263506,10.01706886291504,1.32954537868500,1.80346000194550,0.82922244071960
670,2048236073,-0.50035625696182,0.59378188848495,50.21210479736328,-0.10148794203997,-0.07157833129168,10.02924537658691,1.31835186481476,1.79813230037689,0.89794546365738
671,2048244406,-0.50074958801270,0.59256976842880,50.21221923828125,-0.11018106341362,-0.09612802416086,10.00914859771729,1.27275860309601,1.65679275989532,0.79892081022263
672,2048252739,-0.50104582309723,0.59136265516281,50.21225738525391,-0.09187311679125,-0.08465904742479,9.99760437011719,1.28269684314728,1.65633165836334,0.83608704805374
673,2048261072,-0.50112491846085,0.59061312675476,50.21125411987305,-0.11031477898359,-0.08403026312590,10.03121948242188,1.31097483634949,1.71278548240662,0.73040270805359
674,2048269405,-0.50142854452133,0.59054559469223,50.21202850341797,-0.11422957479954,-0.09427124261856,10.01270294189453,1.28062212467194,1.79393148422241,0.92860573530197
675,2048277738,-0.50150316953659,0.59013092517853,50.21324539184570,-0.12566268444061,-0.09014087170362,10.00887203216553,1.30925893783569,1.75069463253021,0.93836468458176
676,2048286071,-0.50187534093857,0.59005028009415,50.21326828002930,-0.12015967071056,-0.08336426317692,10.04293441772461,1.27432107925415,1.79357290267944,0.83877658843994
677,2048294404,-0.50156480073929,0.59035366773605,50.21209716796875,-0.11970105767250,-0.08337756246328,10.00928783416748,1.35636329650879,1.83857679367065,0.68847221136093
678,2048302737,-0.50146877765656,0.59115731716156,50.21211624145508,-0.13513857126236,-0.10672952234745,10.01533889770508,1.33177375793457,1.89859127998352,0.83867406845093
679,2048311070,-0.50142323970795,0.59147596359253,50.21217727661133,-0.11253996938467,-0.10274256020784,10.01145648956299,1.32362842559814,1.83842337131500,0.83752149343491
680,2048319403,-0.50137656927109,0.59107100963593,50.21191406250000,-0.12490252405405,-0.09163981676102,9.98469734191895,1.32493460178375,1.75497210025787,0.80358254909515
681,2048327736,-0.50122642517090,0.59151577949524,50.21294403076172,-0.11342303454876,-0.08451963216066,10.00461769104004,1.33446323871613,1.85368943214417,0.95626908540726
682,2048336069,-0.50090187788010,0.59192538261414,50.21403503417969,-0.07428012043238,-0.08538316935301,9.99609661102295,1.35754168033600,1.85079514980316,0.96582323312759
683,2048344402,-0.50104618072510,0.59142661094666,50.21495819091797,-0.11194619536400,-0.08559083193541,9.99974632263184,1.30049860477448,1.73988544940948,0.94248861074448
684,2048352735,-0.50152599811554,0.59074020385742,50.21435546875000,-0.10800677537918,-0.06601400673389,10.01836395263672,1.26228225231171,1.72105884552002,0.76324021816254
685,2048361068,-0.50040906667709,0.59135907888412,50.21368026733398,-0.10203263163567,-0.10507798939943,9.98872184753418,1.45274972915649,1.87571763992310,0.76185703277588
686,2048369401,-0.50017058849335,0.59151917695999,50.21377182006836,-0.12141931802034,-0.08238624036312,9.99940299987793,1.34888398647308,1.82080054283142,0.84687060117722
687,2048377734,-0.49984791874886,0.59189385175705,50.21365356445312,-0.10066296905279,-0.08884701877832,10.02104949951172,1.35792589187622,1.84687614440918,0.80844938755035
688,2048386067,-0.49984520673752,0.59231525659561,50.21379470825195,-0.10087975859642,-0.07707590609789,10.04275703430176,1.31878745555878,1.85415053367615,0.85058474540710
689,2048394400,-0.50013792514801,0.59151154756546,50.21354293823242,-0.13330143690109,-0.06618112325668,9.99639511108398,1.28436183929443,1.70369255542755,0.80652821063995
690,2048402733,-0.50096851587296,0.59114223718643,50.21334457397461,-0.14726842939854,-0.10544708371162,10.02397727966309,1.21912229061127,1.75840437412262,0.81134366989136
691,2048411066,-0.50103336572647,0.59072518348694,50.21271514892578,-0.13263165950775,-0.09000835567713,10.03006553649902,1.31148707866669,1.75202631950378,0.81270122528076
692,2048419399,-0.50090092420578,0.59083569049835,50.21219635009766,-0.14939343929291,-0.08548440784216,9.99710273742676,1.33546221256256,1.81611311435699,0.77200025320053
693,2048427732,-0.50024068355560,0.59083795547485,50.21202468872070,-0.12472690641880,-0.06271813064814,10.01640224456787,1.39767920970917,1.80118000507355,0.84456533193588
