sep=,
DeviceTag:,left leg
FirmwareVersion:,2.2.1
AppVersion:,2023.6.0
StartTime: ,2025-03-06_12:39:29_000 PST
© Movella Technologies B. V. 2005-2025

PacketCounter,SampleTimeFine,Euler_X,Euler_Y,Euler_Z,Acc_X,Acc_Y,Acc_Z,Gyr_X,Gyr_Y,Gyr_Z
0,1793171276,-0.59820407629013,0.58155685663223,50.44124984741211,0.00000000000000,0.00000000000000,0.00000000000000,0.00000000000000,0.00000000000000,0.00000000000000
1,1793179609,-0.59809643030167,0.58149409294128,50.44082260131836,-0.10923177003860,-0.08152120560408,10.02387428283691,1.33947074413300,1.79235601425171,0.77752006053925
2,1793187942,-0.59857738018036,0.58211624622345,50.44073486328125,-0.10204157233238,-0.10396423935890,10.02724456787109,1.26790463924408,1.87455224990845,0.79755049943924
3,1793196275,-0.59949505329132,0.58135426044464,50.44112777709961,-0.11081136763096,-0.07894998788834,10.03246402740479,1.21511352062225,1.70718872547150,0.87713372707367
4,1793204608,-0.59929519891739,0.58198046684265,50.44131469726562,-0.10759147256613,-0.10274824500084,10.00292491912842,1.34979343414307,1.87388610839844,0.85797446966171
5,1793212941,-0.60012978315353,0.58265811204910,50.44108581542969,-0.09117775410414,-0.10252847522497,9.98127460479736,1.22576928138733,1.88103246688843,0.80239152908325
6,1793221274,-0.60051405429840,0.58259111642838,50.44188690185547,-0.09973714500666,-0.10593956708908,9.99830627441406,1.27789437770844,1.79007661342621,0.93253749608994
7,1793229607,-0.60053431987762,0.58321815729141,50.44189453125000,-0.10621212422848,-0.10205562412739,9.99717426300049,1.32433283329010,1.87370705604553,0.83300054073334
8,1793237940,-0.60100173950195,0.58244705200195,50.44183731079102,-0.09463171660900,-0.10111538320780,9.97858428955078,1.26874983310699,1.70767533779144,0.81589013338089
9,1793246273,-0.60143685340881,0.58139604330063,50.44207000732422,-0.08892813324928,-0.10841451585293,9.98491001129150,1.27451312541962,1.67330110073090,0.85764139890671
10,1793254606,-0.60199552774429,0.58102017641068,50.44165420532227,-0.10744284838438,-0.09898137301207,9.99387550354004,1.25819671154022,1.75501048564911,0.77050167322159
11,1793262939,-0.60119962692261,0.58186459541321,50.44191741943359,-0.09464254230261,-0.11495042592287,9.99354362487793,1.42223036289215,1.90003824234009,0.86343020200729
12,1793271272,-0.60093194246292,0.58136159181595,50.44145965576172,-0.08692720532417,-0.08925133198500,9.99651908874512,1.35761845111847,1.73893761634827,0.81554442644119
13,1793279605,-0.60147768259048,0.58019030094147,50.44181823730469,-0.08379505574703,-0.10039871186018,10.03406333923340,1.25955426692963,1.65911066532135,0.87311238050461
14,1793287938,-0.60168457031250,0.58032530546188,50.44321823120117,-0.10789792984724,-0.09184713661671,9.99529933929443,1.29994809627533,1.81448698043823,0.92879784107208
15,1793296271,-0.60257923603058,0.57961064577103,50.44284439086914,-0.10685768723488,-0.11411184817553,10.01344776153564,1.21872544288635,1.71505224704742,0.78410297632217
16,1793304604,-0.60204529762268,0.57962131500244,50.44340133666992,-0.08588323742151,-0.11097429692745,10.00761985778809,1.38926494121552,1.79957938194275,0.89324527978897
17,1793312937,-0.60153532028198,0.58020967245102,50.44265747070312,-0.10484313964844,-0.11023207753897,10.01926994323730,1.38721597194672,1.87063324451447,0.74168580770493
18,1793321270,-0.60110145807266,0.58053916692734,50.44281768798828,-0.11547853052616,-0.12596619129181,9.98489379882812,1.37848126888275,1.83987045288086,0.84583324193954
19,1793329603,-0.60136717557907,0.58015328645706,50.44280624389648,-0.12147419899702,-0.09354111552238,9.99062061309814,1.29346764087677,1.75116837024689,0.82741659879684
20,1793337936,-0.60204327106476,0.58101725578308,50.44343185424805,-0.09719087183475,-0.09448402374983,10.00135040283203,1.24369907379150,1.90336823463440,0.90904921293259
21,1793346269,-0.60137367248535,0.58086973428726,50.44350814819336,-0.09438278526068,-0.08861999213696,10.00721740722656,1.40640091896057,1.78080415725708,0.83963465690613
22,1793354602,-0.60161966085434,0.58108019828796,50.44377517700195,-0.10206152498722,-0.10625614970922,10.01012802124023,1.29523503780365,1.82532179355621,0.86586368083954
23,1793362935,-0.60099685192108,0.58042657375336,50.44337844848633,-0.08518123626709,-0.07787587493658,9.99365711212158,1.40066313743591,1.72076427936554,0.78131097555161
24,1793371268,-0.60123950242996,0.58083564043045,50.44231414794922,-0.08442325145006,-0.11239902675152,9.98277187347412,1.29807817935944,1.84968078136444,0.76486670970917
25,1793379601,-0.60159498453140,0.58074229955673,50.44301223754883,-0.07883334159851,-0.09407357126474,9.98692035675049,1.28145444393158,1.78700280189514,0.91263526678085
26,1793387934,-0.60247302055359,0.58067536354065,50.44240570068359,-0.08891474455595,-0.13738986849785,9.99074172973633,1.22126126289368,1.79268908500671,0.75444167852402
27,1793396267,-0.60235327482224,0.58082294464111,50.44351196289062,-0.10418101400137,-0.09946294128895,10.00957012176514,1.33898425102234,1.81505048274994,0.96301847696304
28,1793404600,-0.60171341896057,0.58129483461380,50.44363403320312,-0.10649956017733,-0.09464064240456,10.00167465209961,1.40266120433807,1.85603332519531,0.85064882040024
29,1793412933,-0.60243898630142,0.58089494705200,50.44380950927734,-0.10047525912523,-0.09982156008482,10.02662944793701,1.23819220066071,1.75185990333557,0.85041815042496
30,1793421266,-0.60246199369431,0.58094936609268,50.44316482543945,-0.11391332000494,-0.08735787123442,10.03209114074707,1.32328259944916,1.80785274505615,0.75474905967712
31,1793429599,-0.60231781005859,0.58030587434769,50.44272613525391,-0.11453606188297,-0.12043746560812,9.99877071380615,1.34351778030396,1.72140455245972,0.77531725168228
32,1793437932,-0.60144656896591,0.58123242855072,50.44276046752930,-0.11760735511780,-0.09254304319620,10.01741600036621,1.43047809600830,1.91133415699005,0.83901983499527
33,1793446265,-0.60109752416611,0.58063364028931,50.44319152832031,-0.10637365281582,-0.11924766749144,10.03359794616699,1.36698055267334,1.72760319709778,0.87995135784149
34,1793454598,-0.60131680965424,0.58096450567245,50.44328308105469,-0.11403927206993,-0.08827906847000,9.99065685272217,1.29948699474335,1.83825659751892,0.85546416044235
35,1793462931,-0.60177695751190,0.58134448528290,50.44298171997070,-0.09947354346514,-0.10336881875992,9.99935626983643,1.27083730697632,1.84574890136719,0.79528349637985
36,1793471264,-0.60156172513962,0.58097010850906,50.44346618652344,-0.11827379465103,-0.08764637261629,10.01333236694336,1.35074126720428,1.75390923023224,0.87826097011566
37,1793479597,-0.60129737854004,0.58244198560715,50.44297027587891,-0.10158542543650,-0.11329199373722,9.99416351318359,1.35834860801697,1.97634327411652,0.77175688743591
38,1793487930,-0.60189104080200,0.58174741268158,50.44290542602539,-0.09747195988894,-0.10319215059280,10.00499439239502,1.25353503227234,1.71553897857666,0.84583324193954
39,1793496263,-0.60197311639786,0.58109039068222,50.44291305541992,-0.10462377220392,-0.07241418212652,10.01295852661133,1.31669974327087,1.72038006782532,0.83243697881699
40,1793504596,-0.60193651914597,0.58015811443329,50.44302368164062,-0.08448332548141,-0.10732518136501,10.01274967193604,1.32927644252777,1.68790137767792,0.85372251272202
41,1793512929,-0.60246628522873,0.58027845621109,50.44307708740234,-0.09836027026176,-0.10288269072771,10.01143836975098,1.26257681846619,1.81402564048767,0.83643281459808
42,1793521262,-0.60287916660309,0.58087229728699,50.44244384765625,-0.09512436389923,-0.13212868571281,10.00149154663086,1.27633154392242,1.87152969837189,0.76074272394180
43,1793529595,-0.60313755273819,0.58058649301529,50.44254302978516,-0.10058798640966,-0.10574205964804,9.98671054840088,1.29482507705688,1.76356565952301,0.83996754884720
44,1793537928,-0.60225784778595,0.58032596111298,50.44219207763672,-0.11980574578047,-0.10433717072010,10.03793144226074,1.43188691139221,1.76968765258789,0.80528593063354
45,1793546261,-0.60205453634262,0.57966303825378,50.44237518310547,-0.10952758789062,-0.08485336601734,10.03708744049072,1.35015177726746,1.71830523014069,0.85108417272568
46,1793554594,-0.60195058584213,0.57940530776978,50.44293594360352,-0.11199625581503,-0.10570833086967,9.99757575988770,1.33696067333221,1.76832997798920,0.90628296136856
47,1793562927,-0.60183250904083,0.57993972301483,50.44255828857422,-0.09673840552568,-0.10295507311821,10.01781272888184,1.34113585948944,1.86387109756470,0.78525567054749
48,1793571260,-0.60170680284500,0.57913315296173,50.44221878051758,-0.10164099186659,-0.09821762889624,10.02375411987305,1.34039306640625,1.70347476005554,0.78522998094559
49,1793579593,-0.60099732875824,0.57870233058929,50.44196701049805,-0.10212827473879,-0.10603230446577,10.00339889526367,1.41190803050995,1.74673712253571,0.79944592714310
50,1793587926,-0.60083371400833,0.57954514026642,50.44092178344727,-0.10061419755220,-0.10245025902987,10.00416278839111,1.34648907184601,1.90185678005219,0.73484683036804
51,1793596259,-0.60121464729309,0.57959669828415,50.44100952148438,-0.11334618926048,-0.10698730498552,9.98819637298584,1.27940535545349,1.80483007431030,0.84094089269638
52,1793604592,-0.60196578502655,0.57871693372726,50.44091033935547,-0.09874877333641,-0.08951344341040,10.02426147460938,1.23514401912689,1.69491946697235,0.82457345724106
53,1793612925,-0.60178089141846,0.57840776443481,50.44062423706055,-0.10039538145065,-0.09267192333937,10.01319789886475,1.34856379032135,1.76197755336761,0.79547560214996
54,1793621258,-0.60123056173325,0.57840991020203,50.44066238403320,-0.09534280002117,-0.10534562170506,10.00332069396973,1.39190316200256,1.80073201656342,0.81670993566513
55,1793629591,-0.60241061449051,0.57856422662735,50.44020843505859,-0.08810944855213,-0.10032861679792,10.00446414947510,1.18478643894196,1.81853377819061,0.77493309974670
56,1793637924,-0.60228633880615,0.57943111658096,50.44109725952148,-0.10786576569080,-0.10275027900934,10.00509166717529,1.34052097797394,1.90272784233093,0.93663567304611
57,1793646257,-0.60208100080490,0.57932460308075,50.44079589843750,-0.09052889049053,-0.09013241529465,10.01451396942139,1.34981894493103,1.78495335578918,0.79434853792191
58,1793654590,-0.60219746828079,0.57827132940292,50.44123458862305,-0.10756278783083,-0.09380855411291,9.98629379272461,1.31165361404419,1.67268633842468,0.89549928903580
59,1793662923,-0.60173505544662,0.57863569259644,50.44158172607422,-0.12202998250723,-0.10630008578300,10.01496219635010,1.38076090812683,1.84232938289642,0.87093520164490
60,1793671256,-0.60061252117157,0.57895582914352,50.44164657592773,-0.12916155159473,-0.12270183116198,10.01205062866211,1.46037006378174,1.83730912208557,0.84355366230011
61,1793679589,-0.59980738162994,0.58001548051834,50.44147491455078,-0.11505606770515,-0.09209783375263,9.99792385101318,1.42251205444336,1.92718958854675,0.80935859680176
62,1793687922,-0.59913980960846,0.57977229356766,50.44202423095703,-0.08940950036049,-0.09550330042839,10.01825046539307,1.40517127513885,1.77099394798279,0.89411616325378
63,1793696255,-0.59893542528152,0.57965379953384,50.44221496582031,-0.09667725861073,-0.08654534816742,9.99413585662842,1.34981918334961,1.78421080112457,0.85408109426498
64,1793704588,-0.59916198253632,0.57954663038254,50.44181060791016,-0.11482340842485,-0.11607113480568,9.99877548217773,1.29884660243988,1.78823208808899,0.77191054821014
65,1793712921,-0.59842449426651,0.57967239618301,50.44185256958008,-0.08712107688189,-0.11723931878805,10.02603340148926,1.41421329975128,1.81305265426636,0.83607429265976
66,1793721254,-0.59852939844131,0.57929438352585,50.44189071655273,-0.09021355956793,-0.10749607533216,9.99520301818848,1.31280636787415,1.75639367103577,0.80474793910980
67,1793729587,-0.59844040870667,0.57886743545532,50.44264984130859,-0.09170702099800,-0.09549329429865,10.00344944000244,1.33647406101227,1.74727523326874,0.91944861412048
68,1793737920,-0.59853464365005,0.57837182283401,50.44231033325195,-0.08152281492949,-0.09985764324665,10.02186203002930,1.31357479095459,1.73964178562164,0.77869832515717
69,1793746253,-0.59894543886185,0.57832759618759,50.44247055053711,-0.08717665821314,-0.11947244405746,10.00949382781982,1.27669024467468,1.79420018196106,0.85011082887650
70,1793754586,-0.59877067804337,0.59870618581772,50.42355346679688,-0.08362470567226,-0.06870669871569,10.00534152984619,1.33611547946930,1.91248691082001,0.77073240280151
71,1793762919,-0.59919059276581,0.59895175695419,50.42364501953125,-0.11019575595856,-0.12596744298935,10.02017116546631,1.27505123615265,1.82317030429840,0.84532105922699
72,1793771252,-0.60001647472382,0.59863972663879,50.42346954345703,-0.11359449476004,-0.10600101202726,9.99973392486572,1.22635829448700,1.76359128952026,0.80359536409378
73,1793779585,-0.60022783279419,0.59803509712219,50.42312622070312,-0.11746787279844,-0.12582771480083,9.98699760437012,1.30171549320221,1.72440171241760,0.79019922018051
74,1793787918,-0.60034137964249,0.59845167398453,50.42263793945312,-0.12444320321083,-0.08194640278816,9.96326541900635,1.31206369400024,1.85003960132599,0.76975905895233
75,1793796251,-0.60046148300171,0.59969621896744,50.42234420776367,-0.13216209411621,-0.11712120473385,9.97547721862793,1.31203782558441,1.94739902019501,0.79742234945297
76,1793804584,-0.60050189495087,0.59942883253098,50.42253112792969,-0.10303138196468,-0.11039229482412,10.00732517242432,1.32079792022705,1.76715135574341,0.86781024932861
77,1793812917,-0.60072946548462,0.59950417280197,50.42201614379883,-0.10189821571112,-0.11576065421104,10.01092433929443,1.29879522323608,1.80728924274445,0.77001512050629
78,1793821250,-0.60068422555923,0.59951972961426,50.42221832275391,-0.10229288786650,-0.11657039821148,10.00502204895020,1.33114624023438,1.80173087120056,0.84739577770233
79,1793829583,-0.60037618875504,0.59981244802475,50.42208862304688,-0.08980069309473,-0.10258889198303,10.00796222686768,1.36239564418793,1.83231437206268,0.81550610065460
80,1793837916,-0.60078263282776,0.60026341676712,50.42211151123047,-0.08464416861534,-0.10632933676243,10.01237583160400,1.27651095390320,1.85365104675293,0.81097239255905
81,1793846249,-0.60081446170807,0.60076421499252,50.42194366455078,-0.08278214931488,-0.08342374861240,10.00554561614990,1.32294976711273,1.85751879215240,0.81381547451019
82,1793854582,-0.60090941190720,0.60096067190170,50.42123413085938,-0.08013257384300,-0.11473845690489,9.97735118865967,1.31500923633575,1.82347738742828,0.76158809661865
83,1793862915,-0.60085344314575,0.60107702016830,50.42136001586914,-0.08479143679142,-0.08366201817989,9.98820590972900,1.33178663253784,1.81187415122986,0.84811294078827
84,1793871248,-0.60124874114990,0.60198277235031,50.42207336425781,-0.10249089449644,-0.13321840763092,9.99656867980957,1.27738201618195,1.90731287002563,0.92142093181610
85,1793879581,-0.60180181264877,0.60139787197113,50.42190933227539,-0.09848800301552,-0.08903219550848,9.99847030639648,1.25965678691864,1.72686040401459,0.81143331527710
86,1793887914,-0.60160571336746,0.59995353221893,50.42130661010742,-0.12261711061001,-0.13239875435829,9.99077415466309,1.34910178184509,1.62745165824890,0.78361636400223
87,1793896247,-0.60101932287216,0.60017532110214,50.42088317871094,-0.12391792237759,-0.11516255140305,9.99658775329590,1.39700031280518,1.82496297359467,0.78074747323990
88,1793904580,-0.60057616233826,0.59965544939041,50.42013931274414,-0.12023530900478,-0.10157705098391,10.02041339874268,1.38004374504089,1.73679900169373,0.73348933458328
89,1793912913,-0.60054367780685,0.60104292631149,50.42078018188477,-0.12588073313236,-0.11585997790098,10.02268695831299,1.32922518253326,1.96481680870056,0.91043239831924
90,1793921246,-0.60075849294662,0.60142552852631,50.42069244384766,-0.12114385515451,-0.09727404266596,9.97974014282227,1.29930770397186,1.84478867053986,0.82662266492844
91,1793929579,-0.60019636154175,0.60202640295029,50.42081069946289,-0.09210926294327,-0.10640750825405,10.01894474029541,1.39384996891022,1.86935257911682,0.84544909000397
92,1793937912,-0.59969532489777,0.60228937864304,50.42024993896484,-0.09432769566774,-0.08430544286966,9.98481464385986,1.38611435890198,1.83241677284241,0.74194192886353
93,1793946245,-0.59954923391342,0.60195875167847,50.42012786865234,-0.08833444863558,-0.12502932548523,10.02097797393799,1.34359455108643,1.75895500183105,0.81594145298004
94,1793954578,-0.59930747747421,0.60164028406143,50.41975402832031,-0.08767264336348,-0.07898642867804,10.00462055206299,1.35471129417419,1.76064562797546,0.79245316982269
95,1793962911,-0.59936743974686,0.60228198766708,50.41930389404297,-0.07245074212551,-0.09571638703346,10.00058460235596,1.32010638713837,1.87614011764526,0.77826285362244
96,1793971244,-0.59939044713974,0.60286563634872,50.41950225830078,-0.09503500163555,-0.09797621518373,9.99789047241211,1.32159209251404,1.86819994449615,0.83120757341385
97,1793979577,-0.59954535961151,0.60245823860168,50.41942596435547,-0.08600560575724,-0.10984438657761,9.99851417541504,1.30740177631378,1.75034868717194,0.82157659530640
98,1793987910,-0.59935837984085,0.60300767421722,50.41972732543945,-0.09603025019169,-0.08874276280403,10.01522827148438,1.34879434108734,1.86453688144684,0.85067433118820
99,1793996243,-0.59918308258057,0.60255563259125,50.41957473754883,-0.10416018217802,-0.08535596728325,10.00686645507812,1.34682202339172,1.74427819252014,0.81189435720444
100,1794004576,-0.59891331195831,0.60274833440781,50.41948699951172,-0.10357847064734,-0.10666879266500,10.01600837707520,1.35829734802246,1.82163298130035,0.82511132955551
101,1794012909,-0.59871459007263,0.60229313373566,50.41955184936523,-0.12327144294977,-0.10231836885214,10.02331638336182,1.34940922260284,1.74312567710876,0.83743184804916
102,1794021242,-0.59840410947800,0.60199105739594,50.41867446899414,-0.10752921551466,-0.10557897388935,10.02354907989502,1.36262619495392,1.76287424564362,0.84783124923706
103,1794029575,-0.59804892539978,0.60277527570724,50.41915893554688,-0.11490113288164,-0.10037097334862,10.01674365997314,1.36762082576752,1.89120149612427,0.89173400402069
104,1794037908,-0.59817987680435,0.60273998975754,50.41909027099609,-0.11305228620768,-0.11410816013813,10.01161575317383,1.31078290939331,1.79589092731476,0.78489708900452
105,1794046241,-0.59871459007263,0.60213565826416,50.41914749145508,-0.11164049059153,-0.09915724396706,10.01507091522217,1.26116812229156,1.72506737709045,0.83738058805466
106,1794054574,-0.59874254465103,0.60233497619629,50.41881179809570,-0.09868751466274,-0.09782632440329,10.05314540863037,1.32325708866119,1.82360565662384,0.79145425558090
107,1794062907,-0.59885454177856,0.60213112831116,50.41933822631836,-0.09104550629854,-0.09782350063324,10.01337051391602,1.31185865402222,1.77232587337494,0.89252799749374
108,1794071240,-0.59915369749069,0.60238623619080,50.41946029663086,-0.10008726269007,-0.08321176469326,9.97582912445068,1.28893399238586,1.83123862743378,0.84037750959396
109,1794079573,-0.59886491298676,0.60254859924316,50.41878509521484,-0.08927653729916,-0.10076630115509,10.02380657196045,1.36126840114594,1.81689441204071,0.75052267313004
110,1794087906,-0.59876245260239,0.60339790582657,50.41921234130859,-0.08956919610500,-0.08765156567097,10.01085853576660,1.33788275718689,1.90119111537933,0.88041257858276
111,1794096239,-0.59791302680969,0.60313630104065,50.41927719116211,-0.10159342736006,-0.12298670411110,10.03173923492432,1.42719972133636,1.76574313640594,0.83873814344406
112,1794104572,-0.59816867113113,0.60281795263290,50.41980361938477,-0.09350465238094,-0.09734877198935,9.98932170867920,1.29561936855316,1.76241314411163,0.80725830793381
113,1794112905,-0.59815615415573,0.60191953182220,50.41987228393555,-0.10159442573786,-0.09599524736404,10.02637195587158,1.32750892639160,1.68879795074463,0.83720129728317
114,1794121238,-0.59867733716965,0.60200524330139,50.42054748535156,-0.10398142784834,-0.08890915662050,10.02391815185547,1.26229500770569,1.80954313278198,0.91340357065201
115,1794129571,-0.59886032342911,0.60282832384109,50.42021942138672,-0.11193987727165,-0.09859178960323,10.03189086914062,1.30430269241333,1.89652931690216,0.79194098711014
116,1794137904,-0.59875619411469,0.60182255506516,50.41989517211914,-0.11162447929382,-0.09956984221935,9.99384021759033,1.33765208721161,1.67827022075653,0.80761677026749
117,1794146237,-0.59845179319382,0.60256826877594,50.41951370239258,-0.10073161870241,-0.10222142189741,9.99704647064209,1.36359941959381,1.88851189613342,0.78615200519562
118,1794154570,-0.59925866127014,0.60353142023087,50.41957092285156,-0.10049591213465,-0.08810984343290,10.02338027954102,1.22835624217987,1.91451060771942,0.83868694305420
119,1794162903,-0.59950077533722,0.60368543863297,50.41910171508789,-0.09948845952749,-0.09345394372940,9.98185253143311,1.29654133319855,1.81617724895477,0.77398526668549
120,1794171236,-0.59907937049866,0.60432839393616,50.41827011108398,-0.10237705707550,-0.10800769925117,9.99865722656250,1.37745690345764,1.87721621990204,0.76673656702042
121,1794179569,-0.59824854135513,0.60507619380951,50.41836547851562,-0.12063702195883,-0.09214464575052,10.02508258819580,1.42543220520020,1.88723146915436,0.84421968460083
122,1794187902,-0.59804815053940,0.60544598102570,50.41873931884766,-0.10315234959126,-0.09717959910631,10.02705192565918,1.34894812107086,1.84435296058655,0.88732826709747
123,1794196235,-0.59785634279251,0.60463750362396,50.41947174072266,-0.09986139088869,-0.09029042720795,9.98007392883301,1.34866642951965,1.69883859157562,0.91652858257294
124,1794204568,-0.59692186117172,0.60510981082916,50.41913986206055,-0.09392593801022,-0.09618785232306,9.99789142608643,1.43695855140686,1.85636627674103,0.82964515686035
125,1794212901,-0.59682923555374,0.60537552833557,50.41883468627930,-0.09369869530201,-0.08918394893408,10.00989055633545,1.33788251876831,1.83036756515503,0.79578292369843
126,1794221234,-0.59670817852020,0.60619324445724,50.41888427734375,-0.09418654441833,-0.12271925061941,9.99426460266113,1.34034144878387,1.89845025539398,0.84547466039658
127,1794229567,-0.59706175327301,0.60643815994263,50.41881561279297,-0.10017879307270,-0.12905070185661,10.02970123291016,1.28288900852203,1.82527029514313,0.82521378993988
128,1794237900,-0.59682643413544,0.60641485452652,50.41891860961914,-0.11074308305979,-0.09833432734013,10.00205039978027,1.35355865955353,1.79794001579285,0.83932733535767
129,1794246233,-0.59637969732285,0.60682535171509,50.41898345947266,-0.10607567429543,-0.10818474739790,10.01678085327148,1.37930095195770,1.84699141979218,0.84211927652359
130,1794254566,-0.59597837924957,0.60782307386398,50.41836547851562,-0.12056630104780,-0.10827991366386,10.00632095336914,1.37438309192657,1.91963338851929,0.75905227661133
131,1794262899,-0.59555792808533,0.60856574773788,50.41824340820312,-0.11212986707687,-0.10938379168510,9.98917770385742,1.37630414962769,1.88538682460785,0.81691473722458
132,1794271232,-0.59679704904556,0.60913878679276,50.41806030273438,-0.10670602321625,-0.10788493603468,10.02132034301758,1.17738401889801,1.86919891834259,0.80556774139404
133,1794279565,-0.59608328342438,0.61091887950897,50.41810607910156,-0.09927385300398,-0.11122785508633,10.01783370971680,1.41162621974945,2.01105070114136,0.84124839305878
134,1794287898,-0.59622848033905,0.61092025041580,50.41799163818359,-0.09483264386654,-0.09416805952787,10.00902080535889,1.30758118629456,1.80045032501221,0.82659697532654
135,1794296231,-0.59717601537704,0.61070674657822,50.41763687133789,-0.11595235019922,-0.10409824550152,9.98971176147461,1.21314144134521,1.77286374568939,0.78873908519745
136,1794304564,-0.59750056266785,0.61042785644531,50.41819000244141,-0.12245435267687,-0.09900937229395,10.04289245605469,1.28573215007782,1.76425719261169,0.87070471048355
137,1794312897,-0.59709632396698,0.61122173070908,50.41816711425781,-0.09387364983559,-0.11158678680658,10.00955867767334,1.37522816658020,1.89299440383911,0.83077210187912
138,1794321230,-0.59672254323959,0.61148178577423,50.41816711425781,-0.11615649610758,-0.09808433055878,10.02754592895508,1.37033581733704,1.83149456977844,0.81617200374603
139,1794329563,-0.59698015451431,0.61245089769363,50.41920471191406,-0.13367849588394,-0.11285453289747,9.97222232818604,1.29328846931458,1.91256356239319,0.95843350887299
140,1794337896,-0.59708005189896,0.61191314458847,50.41964721679688,-0.10357619822025,-0.09768885374069,9.99771881103516,1.31362593173981,1.73398125171661,0.87779980897903
141,1794346229,-0.59751230478287,0.61291903257370,50.41975021362305,-0.10324440896511,-0.09568067640066,10.03095054626465,1.27338612079620,1.91865992546082,0.84562844038010
142,1794354562,-0.59794163703918,0.61349153518677,50.42032241821289,-0.10062843561172,-0.10979535430670,10.01080131530762,1.27266895771027,1.86750841140747,0.93046271800995
143,1794362895,-0.59840077161789,0.61371397972107,50.42066574096680,-0.10792461037636,-0.10623534023762,10.00592231750488,1.27033805847168,1.82222235202789,0.87252336740494
144,1794371228,-0.59827148914337,0.61367124319077,50.42065811157227,-0.11428307741880,-0.11270952224731,10.03956890106201,1.34136629104614,1.79545545578003,0.83886623382568
145,1794379561,-0.59830111265182,0.61426007747650,50.42041778564453,-0.11902782320976,-0.10311729460955,9.99591350555420,1.32246303558350,1.86686813831329,0.80395406484604
146,1794387894,-0.59866976737976,0.61443346738815,50.41993713378906,-0.08146955817938,-0.09784902632236,10.00777721405029,1.28242778778076,1.82250392436981,0.78838050365448
147,1794396227,-0.59852546453476,0.61424082517624,50.42060852050781,-0.09747881442308,-0.09668438881636,10.00690269470215,1.34157121181488,1.77370893955231,0.91038107872009
148,1794404560,-0.59884065389633,0.61465978622437,50.42109680175781,-0.09832488745451,-0.10299252718687,10.00176048278809,1.28803765773773,1.84929656982422,0.87388092279434
149,1794412893,-0.59837532043457,0.61570084095001,50.42120742797852,-0.09988134354353,-0.11710845679045,9.97879314422607,1.38117074966431,1.92316782474518,0.84511601924896
150,1794421226,-0.59874564409256,0.61585646867752,50.42105484008789,-0.12506029009819,-0.10957294702530,10.00542640686035,1.28119850158691,1.81766295433044,0.80876952409744
151,1794429559,-0.59859710931778,0.61599302291870,50.42108917236328,-0.09948379546404,-0.10324560105801,10.00281715393066,1.34336423873901,1.81351363658905,0.83551079034805
152,1794437892,-0.59824234247208,0.61534345149994,50.42133712768555,-0.10009729862213,-0.10647957026958,10.00670528411865,1.36874783039093,1.72122526168823,0.85823053121567
153,1794446225,-0.59731483459473,0.61479693651199,50.42193984985352,-0.11021101474762,-0.10904996842146,10.00879096984863,1.43616461753845,1.73057460784912,0.90123695135117
154,1794454558,-0.59678816795349,0.61442005634308,50.42174911499023,-0.12256072461605,-0.09598622471094,10.00022697448730,1.38931620121002,1.75542056560516,0.80395406484604
155,1794462891,-0.59644198417664,0.61478316783905,50.42204666137695,-0.10074616968632,-0.11396297812462,10.02176094055176,1.36680126190186,1.83981943130493,0.86903983354568
156,1794471224,-0.59703922271729,0.61487615108490,50.42237472534180,-0.09780511260033,-0.08379415422678,9.98554325103760,1.25386810302734,1.81061887741089,0.88550972938538
157,1794479557,-0.59623152017593,0.61494994163513,50.42212295532227,-0.09689337015152,-0.09439483284950,9.99180316925049,1.42293477058411,1.80584204196930,0.80125170946121
158,1794487890,-0.59616810083389,0.61405038833618,50.42228317260742,-0.08608245849609,-0.09668716043234,10.02523040771484,1.33235013484955,1.69100058078766,0.89304023981094
159,1794496223,-0.59643751382828,0.61365836858749,50.42218399047852,-0.10877171903849,-0.11389325559139,10.02019309997559,1.29339075088501,1.75068163871765,0.81978350877762
160,1794504556,-0.59612190723419,0.61321920156479,50.42214584350586,-0.09321770817041,-0.08535520732403,10.00978469848633,1.36408615112305,1.74794113636017,0.81640255451202
161,1794512889,-0.59608161449432,0.61368399858475,50.42256164550781,-0.10500030964613,-0.10889909416437,10.00695323944092,1.32963502407074,1.85178101062775,0.88387036323547
162,1794521222,-0.59616488218307,0.61382251977921,50.42276000976562,-0.10244634747505,-0.10698970407248,10.02467060089111,1.31544470787048,1.81640791893005,0.84644794464111
163,1794529555,-0.59725111722946,0.61371248960495,50.42244338989258,-0.12503620982170,-0.10747450590134,9.99139022827148,1.19641518592834,1.78579878807068,0.79340100288391
164,1794537888,-0.59784477949142,0.61396104097366,50.42230987548828,-0.10893045365810,-0.10808502882719,9.97276115417480,1.25409853458405,1.82842099666595,0.81796497106552
165,1794546221,-0.59786367416382,0.61472159624100,50.42191696166992,-0.09974868595600,-0.11201673001051,10.00856399536133,1.32371795177460,1.88925468921661,0.78528118133545
166,1794554554,-0.59819406270981,0.61438804864883,50.42231369018555,-0.11480648815632,-0.11817383766174,10.00821018218994,1.28570652008057,1.75816106796265,0.90197962522507
167,1794562887,-0.59827196598053,0.61425024271011,50.42210388183594,-0.10356911271811,-0.10110185295343,9.99242401123047,1.31608510017395,1.78205907344818,0.80536276102066
168,1794571220,-0.59854185581207,0.61302834749222,50.42161941528320,-0.09413194656372,-0.11046414077282,10.01375770568848,1.29408228397369,1.65347564220428,0.76261264085770
169,1794579553,-0.59930014610291,0.61225253343582,50.42155075073242,-0.10872606188059,-0.11153703182936,10.01092338562012,1.23516964912415,1.70462727546692,0.82375371456146
170,1794587886,-0.59999150037766,0.61198920011520,50.42163848876953,-0.09950887411833,-0.10647077113390,10.03072166442871,1.24193179607391,1.76720285415649,0.86145794391632
171,1794596219,-0.59964609146118,0.61196619272232,50.42189025878906,-0.11845111101866,-0.11513122171164,9.98071575164795,1.36715972423553,1.79425144195557,0.86043334007263
172,1794604552,-0.59975147247314,0.61170601844788,50.42208480834961,-0.09413423389196,-0.09508556127548,9.98261165618896,1.31275510787964,1.76838111877441,0.84865081310272
173,1794612885,-0.60046702623367,0.61105704307556,50.42239761352539,-0.09358236193657,-0.12052054703236,10.01695346832275,1.24016439914703,1.71856141090393,0.86688816547394
174,1794621218,-0.60026699304581,0.61151850223541,50.42207717895508,-0.11346228420734,-0.09987836331129,9.99208068847656,1.34974229335785,1.85690414905548,0.80236589908600
175,1794629551,-0.60112524032593,0.61128145456314,50.42222595214844,-0.09906449168921,-0.11757111549377,9.99640369415283,1.22228550910950,1.76738214492798,0.84941923618317
176,1794637884,-0.60147315263748,0.61132144927979,50.42220687866211,-0.08793788403273,-0.09235417097807,10.04364871978760,1.28358066082001,1.80526578426361,0.83653533458710
177,1794646217,-0.60119724273682,0.61132973432541,50.42163085937500,-0.09996433556080,-0.10024577379227,9.99025821685791,1.36050021648407,1.79891347885132,0.76163929700851
178,1794654550,-0.60105246305466,0.61078029870987,50.42217254638672,-0.11523755639791,-0.08706519752741,9.99531841278076,1.34208357334137,1.73323833942413,0.87854272127151
179,1794662883,-0.60130268335342,0.61133903264999,50.42289352416992,-0.11579660326242,-0.09384723007679,10.00151538848877,1.29531192779541,1.86346113681793,0.92067813873291
180,1794671216,-0.60171258449554,0.61152946949005,50.42284774780273,-0.10873122513294,-0.09080044925213,10.00315952301025,1.27597296237946,1.82252943515778,0.82810813188553
181,1794679549,-0.60175842046738,0.61156165599823,50.42271041870117,-0.10081749409437,-0.09300133585930,10.02215194702148,1.32020902633667,1.80062961578369,0.81586468219757
182,1794687882,-0.60196310281754,0.61317312717438,50.42250061035156,-0.09898430109024,-0.10673071444035,10.00608825683594,1.30122876167297,1.99422168731689,0.81171500682831
183,1794696215,-0.60205441713333,0.61304503679276,50.42316818237305,-0.11867199093103,-0.07216782122850,10.01516723632812,1.31449687480927,1.78118836879730,0.91340368986130
184,1794704548,-0.60138350725174,0.61353999376297,50.42315292358398,-0.10713712126017,-0.09550610929728,10.01705837249756,1.40558135509491,1.85938858985901,0.82518821954727
185,1794712881,-0.60178244113922,0.61311912536621,50.42331695556641,-0.09295677393675,-0.07738439738750,9.99679470062256,1.27753543853760,1.74537956714630,0.85029011964798
186,1794721214,-0.60138511657715,0.61336588859558,50.42387390136719,-0.08864242583513,-0.09927939623594,10.01878452301025,1.37351226806641,1.82844674587250,0.90026354789734
187,1794729547,-0.60180884599686,0.61388164758682,50.42420578002930,-0.11119698733091,-0.09014216810465,9.98810958862305,1.27466690540314,1.86018264293671,0.87275391817093
188,1794737880,-0.60236799716949,0.61369287967682,50.42448806762695,-0.08212906867266,-0.08996233344078,9.99886417388916,1.25706982612610,1.77568113803864,0.87154990434647
189,1794746213,-0.60285383462906,0.61452698707581,50.42416763305664,-0.09277985244989,-0.09973097592592,10.00365734100342,1.26828885078430,1.89773309230804,0.79396450519562
190,1794754546,-0.60322684049606,0.61327379941940,50.42351531982422,-0.10876945406199,-0.09220526367426,9.97934246063232,1.28183865547180,1.64960789680481,0.78110605478287
191,1794762879,-0.60416787862778,0.61315900087357,50.42361450195312,-0.12158551812172,-0.11061555892229,9.98746585845947,1.21280837059021,1.78351902961731,0.84485989809036
192,1794771212,-0.60383230447769,0.61311393976212,50.42417907714844,-0.13020309805870,-0.09086444973946,10.03357124328613,1.36426532268524,1.79230487346649,0.91762995719910
193,1794779545,-0.60367363691330,0.61343181133270,50.42422103881836,-0.12528632581234,-0.08647656440735,10.00172519683838,1.34490108489990,1.83515763282776,0.83735501766205
194,1794787878,-0.60369974374771,0.61352753639221,50.42369842529297,-0.08905977755785,-0.09643524140120,9.99725532531738,1.32325708866119,1.81243765354156,0.75441604852676
195,1794796211,-0.60370063781738,0.61264669895172,50.42375183105469,-0.12202674895525,-0.10119289904833,9.97959804534912,1.32581841945648,1.69110298156738,0.83412748575211
196,1794804544,-0.60391986370087,0.61321347951889,50.42411041259766,-0.09598470479250,-0.09331288933754,10.01834106445312,1.29823184013367,1.86709845066071,0.89831686019897
197,1794812877,-0.60390168428421,0.61257058382034,50.42389297485352,-0.09266926348209,-0.10086479783058,10.00696086883545,1.32835435867310,1.72045707702637,0.80295515060425
198,1794821210,-0.60342347621918,0.61312675476074,50.42407226562500,-0.08585932105780,-0.08595498651266,10.02805519104004,1.38252842426300,1.86689364910126,0.86002355813980
199,1794829543,-0.60370337963104,0.61372590065002,50.42386627197266,-0.08113747090101,-0.11476357281208,9.95688056945801,1.29205894470215,1.86750841140747,0.80656677484512
200,1794837876,-0.60348689556122,0.61398464441299,50.42428970336914,-0.08560892194510,-0.10328625142574,10.01247024536133,1.35161185264587,1.83108472824097,0.87572503089905
201,1794846209,-0.60279279947281,0.61488252878189,50.42403793334961,-0.08744783699512,-0.08511065691710,10.03672313690186,1.40980768203735,1.90493083000183,0.80257087945938
202,1794854542,-0.60250777006149,0.61640298366547,50.42407226562500,-0.10831315070391,-0.09878433495760,10.03079795837402,1.35911691188812,1.98213207721710,0.83525460958481
203,1794862875,-0.60262477397919,0.61517637968063,50.42410659790039,-0.09494017064571,-0.09470144659281,10.01610851287842,1.31175625324249,1.65068376064301,0.83479356765747
204,1794871208,-0.60292673110962,0.61465221643448,50.42379379272461,-0.11226194351912,-0.09175295382738,10.02639198303223,1.28975343704224,1.73692679405212,0.79288852214813
205,1794879541,-0.60322761535645,0.61478692293167,50.42379760742188,-0.12767735123634,-0.07459600269794,10.00646114349365,1.29016327857971,1.81292438507080,0.83131009340286
206,1794887874,-0.60421639680862,0.61577218770981,50.42322158813477,-0.10779155045748,-0.09816142916679,10.01439094543457,1.20745503902435,1.91896724700928,0.77155202627182
207,1794896207,-0.60413551330566,0.61626952886581,50.42298126220703,-0.10881829261780,-0.09060242027044,10.03027725219727,1.33570551872253,1.85749328136444,0.80331373214722
208,1794904540,-0.60408747196198,0.61666446924210,50.42296981811523,-0.11245045810938,-0.08841215074062,10.00412654876709,1.33168411254883,1.84747803211212,0.80782181024551
209,1794912873,-0.60423821210861,0.61697840690613,50.42332458496094,-0.09074926376343,-0.11676209419966,10.00480175018311,1.30681252479553,1.83431220054626,0.87408572435379
210,1794921206,-0.60419750213623,0.61680042743683,50.42356491088867,-0.10042077302933,-0.09593435376883,10.01519775390625,1.33094120025635,1.77883172035217,0.84847152233124
211,1794929539,-0.60396593809128,0.61538404226303,50.42346954345703,-0.08413061499596,-0.11264272779226,9.98746776580811,1.35366106033325,1.62827122211456,0.81863087415695
212,1794937872,-0.60446101427078,0.61453562974930,50.42385482788086,-0.07632894068956,-0.08894681930542,10.01859283447266,1.26480531692505,1.69694304466248,0.88207739591599
213,1794946205,-0.60405308008194,0.61412233114243,50.42385864257812,-0.09080866724253,-0.12354873120785,9.98766708374023,1.37566363811493,1.74817144870758,0.83118188381195
214,1794954538,-0.60355365276337,0.61378163099289,50.42440414428711,-0.08990066498518,-0.10328311473131,10.01488780975342,1.38355290889740,1.75639379024506,0.89785569906235
215,1794962871,-0.60320228338242,0.61446970701218,50.42406082153320,-0.09111737459898,-0.11663620918989,10.01267051696777,1.36872231960297,1.88133978843689,0.79071146249771
216,1794971204,-0.60305285453796,0.61571466922760,50.42390060424805,-0.08326908200979,-0.10298050940037,10.01111698150635,1.34415829181671,1.94921779632568,0.80730950832367
217,1794979537,-0.60284197330475,0.61515057086945,50.42288589477539,-0.12395317107439,-0.11738156527281,10.01095104217529,1.35240602493286,1.73090755939484,0.70959115028381
218,1794987870,-0.60377812385559,0.61486387252808,50.42306518554688,-0.09582881629467,-0.11183279007673,9.98021697998047,1.21221923828125,1.76402664184570,0.88153952360153
219,1794996203,-0.60455113649368,0.61477297544479,50.42361068725586,-0.11606545746326,-0.08539585769176,10.01070404052734,1.23312044143677,1.78618299961090,0.89803498983383
220,1795004536,-0.60483074188232,0.61620658636093,50.42369461059570,-0.09744380414486,-0.10749876499176,9.98882102966309,1.29170024394989,1.97180926799774,0.85981845855713
221,1795012869,-0.60468304157257,0.61691999435425,50.42362594604492,-0.10793488472700,-0.10693221539259,9.99981498718262,1.34303128719330,1.88349175453186,0.82467603683472
222,1795021202,-0.60538393259048,0.61778575181961,50.42385482788086,-0.11036713421345,-0.10849010944366,10.01516437530518,1.24195742607117,1.90239465236664,0.86176532506943
223,1795029535,-0.60587590932846,0.61758053302765,50.42374038696289,-0.11158552765846,-0.12377813458443,10.02628707885742,1.26654708385468,1.77401626110077,0.81655615568161
224,1795037868,-0.60666227340698,0.61692339181900,50.42417144775391,-0.10274386405945,-0.10504635423422,9.98267555236816,1.22994434833527,1.71989333629608,0.90395194292068
225,1795046201,-0.60737019777298,0.61654043197632,50.42446136474609,-0.09868796169758,-0.09341970086098,9.99150085449219,1.24052298069000,1.75185990333557,0.86588919162750
226,1795054534,-0.60743707418442,0.61651587486267,50.42475509643555,-0.10433377325535,-0.11475172638893,10.02301216125488,1.31708395481110,1.79560911655426,0.87131941318512
227,1795062867,-0.60743856430054,0.61734145879745,50.42430877685547,-0.10870937258005,-0.08597408235073,10.01448249816895,1.32681739330292,1.89658045768738,0.77979975938797
228,1795071200,-0.60704314708710,0.61745661497116,50.42438888549805,-0.10836926847696,-0.10265298932791,10.00299644470215,1.37310230731964,1.81369268894196,0.84183740615845
229,1795079533,-0.60704052448273,0.61753565073013,50.42445373535156,-0.09022422134876,-0.09607301652431,10.01163196563721,1.32603621482849,1.80686664581299,0.83949369192123
230,1795087866,-0.60736578702927,0.61598581075668,50.42378997802734,-0.10899174958467,-0.10025592893362,10.02104377746582,1.28717923164368,1.61452925205231,0.75737452507019
231,1795096199,-0.60724455118179,0.61543047428131,50.42399978637695,-0.10231155157089,-0.09595505148172,10.00591468811035,1.33975255489349,1.73095870018005,0.85379928350449
232,1795104532,-0.60757470130920,0.61572986841202,50.42460250854492,-0.08826322853565,-0.10517533868551,10.04540061950684,1.28496360778809,1.83479881286621,0.89168268442154
233,1795112865,-0.60738980770111,0.61571735143661,50.42464065551758,-0.08111403882504,-0.10266977548599,10.00408744812012,1.34789788722992,1.79478955268860,0.83727812767029
234,1795121198,-0.60724329948425,0.61549305915833,50.42416763305664,-0.11037629842758,-0.08385130017996,10.01078987121582,1.34387660026550,1.77322232723236,0.78999429941177
235,1795129531,-0.60720217227936,0.61514294147491,50.42449188232422,-0.10200528055429,-0.09352808445692,10.02889728546143,1.33019840717316,1.75457501411438,0.86837375164032
236,1795137864,-0.60744416713715,0.61570274829865,50.42491912841797,-0.09204897284508,-0.09747890383005,9.99724102020264,1.29600358009338,1.86812317371368,0.84186315536499
237,1795146197,-0.60828632116318,0.61579340696335,50.42446899414062,-0.09824670851231,-0.08518016338348,10.00222206115723,1.22630715370178,1.80862104892731,0.77831417322159
238,1795154530,-0.60923969745636,0.61517357826233,50.42404556274414,-0.07621428370476,-0.09076910465956,10.02102375030518,1.21091282367706,1.72632229328156,0.75948762893677
239,1795162863,-0.60837036371231,0.61539345979691,50.42402267456055,-0.09175112843513,-0.10373761504889,9.99900150299072,1.43050396442413,1.82301640510559,0.82941460609436
240,1795171196,-0.60778337717056,0.61509317159653,50.42446136474609,-0.09047414362431,-0.09013071656227,9.99123382568359,1.39495122432709,1.76318144798279,0.86578673124313
241,1795179529,-0.60739654302597,0.61533451080322,50.42448806762695,-0.09719318151474,-0.10192066431046,10.02182483673096,1.37256431579590,1.82565450668335,0.83558750152588
242,1795187862,-0.60701692104340,0.61522555351257,50.42398071289062,-0.09643468260765,-0.10663826763630,10.00324916839600,1.37072014808655,1.78626000881195,0.82324153184891
243,1795196195,-0.60681807994843,0.61551910638809,50.42367935180664,-0.09242783486843,-0.10812910646200,10.02307796478271,1.35002398490906,1.83246803283691,0.79632103443146
244,1795204528,-0.60612201690674,0.61556190252304,50.42370986938477,-0.09024245291948,-0.10810389369726,9.98676872253418,1.41014063358307,1.80544507503510,0.77759701013565
245,1795212861,-0.60511833429337,0.61655509471893,50.42445373535156,-0.11186057329178,-0.07851513475180,9.99627685546875,1.44561636447906,1.91558635234833,0.92144650220871
246,1795221194,-0.60461670160294,0.61779832839966,50.42430877685547,-0.10752443969250,-0.09431324154139,10.01965427398682,1.38523042201996,1.94866681098938,0.87315082550049
247,1795229527,-0.60461467504501,0.61893939971924,50.42393875122070,-0.11393466591835,-0.09602829813957,9.99074172973633,1.32604885101318,1.93479692935944,0.78822690248489
248,1795237860,-0.60441488027573,0.61866790056229,50.42317581176758,-0.10042387247086,-0.09976805746555,10.01467800140381,1.35094606876373,1.76948249340057,0.73041546344757
249,1795246193,-0.60457581281662,0.61886125802994,50.42303848266602,-0.10761213302612,-0.12599201500416,10.00963020324707,1.30647981166840,1.81868767738342,0.81637698411942
250,1795254526,-0.60495179891586,0.61794710159302,50.42290115356445,-0.08714451640844,-0.10908742994070,10.00165557861328,1.27996897697449,1.68982219696045,0.85766702890396
251,1795262859,-0.60546004772186,0.61792558431625,50.42313385009766,-0.08844632655382,-0.11317040771246,10.01341247558594,1.26477956771851,1.79596757888794,0.85892212390900
252,1795271192,-0.60556823015213,0.61773669719696,50.42247009277344,-0.08862386643887,-0.08896298706532,9.97643280029297,1.31280648708344,1.77688503265381,0.77544534206390
253,1795279525,-0.60632896423340,0.61888086795807,50.42207336425781,-0.10849845409393,-0.10640988498926,10.02324390411377,1.23504149913788,1.93418192863464,0.78571665287018
254,1795287858,-0.60648697614670,0.61818087100983,50.42147064208984,-0.10485950857401,-0.07608865201473,10.00539779663086,1.30732488632202,1.71646130084991,0.77539408206940
255,1795296191,-0.60621780157089,0.61840009689331,50.42197036743164,-0.10910250991583,-0.10173953324556,9.99412727355957,1.35796439647675,1.82381033897400,0.88996654748917
256,1795304524,-0.60615682601929,0.61910849809647,50.42235565185547,-0.10157251358032,-0.09221205860376,10.01570034027100,1.33231163024902,1.88388872146606,0.87530249357224
257,1795312857,-0.60602784156799,0.61942905187607,50.42260742187500,-0.12562596797943,-0.08552485704422,10.01898097991943,1.34041869640350,1.83566975593567,0.86161172389984
258,1795321190,-0.60679316520691,0.61998492479324,50.42253875732422,-0.12207005918026,-0.10620999336243,9.99626922607422,1.23429870605469,1.86761069297791,0.82178145647049
259,1795329523,-0.60727542638779,0.61887091398239,50.42192459106445,-0.11449890583754,-0.10117804259062,9.99961948394775,1.26849365234375,1.66356766223907,0.75672131776810
260,1795337856,-0.60705924034119,0.61928147077560,50.42249298095703,-0.11238510906696,-0.10897428542376,9.98874855041504,1.35081791877747,1.84786200523376,0.89613962173462
261,1795346189,-0.60656315088272,0.61962968111038,50.42282104492188,-0.11592879146338,-0.12050800025463,9.97185420989990,1.38427031040192,1.83940970897675,0.87288194894791
262,1795354522,-0.60689854621887,0.62047368288040,50.42309188842773,-0.12687142193317,-0.09904960542917,9.99711322784424,1.28565537929535,1.90049946308136,0.83855879306793
263,1795362855,-0.60706537961960,0.62067615985870,50.42285156250000,-0.10230838507414,-0.09575501084328,10.01449871063232,1.30601859092712,1.82194042205811,0.80251967906952
264,1795371188,-0.60653501749039,0.62141400575638,50.42261886596680,-0.08430404216051,-0.09606773406267,10.02792072296143,1.38906002044678,1.88858890533447,0.81079304218292
265,1795379521,-0.60675299167633,0.62235963344574,50.42201614379883,-0.08713743090630,-0.09405384212732,10.02792549133301,1.30035793781281,1.91151356697083,0.75841188430786
266,1795387854,-0.60632073879242,0.62166994810104,50.42201614379883,-0.09163750708103,-0.12251939624548,9.99646377563477,1.37773835659027,1.71712696552277,0.85615581274033
267,1795396187,-0.60652375221252,0.62030827999115,50.42215728759766,-0.08765131980181,-0.10544463992119,9.98964595794678,1.30058825016022,1.63365018367767,0.84865081310272
268,1795404520,-0.60591298341751,0.61954426765442,50.42182922363281,-0.10305656492710,-0.10386974364519,9.99014472961426,1.39910066127777,1.70864868164062,0.78730475902557
269,1795412853,-0.60573858022690,0.62086308002472,50.42175292968750,-0.11048273742199,-0.10260039567947,9.99485588073730,1.34776985645294,1.95505774021149,0.82380497455597
270,1795421186,-0.60504698753357,0.62105685472488,50.42136383056641,-0.10383267700672,-0.09336454421282,10.01285362243652,1.40798902511597,1.82235038280487,0.78587043285370
271,1795429519,-0.60496717691422,0.62066930532455,50.42121505737305,-0.11669361591339,-0.10846363008022,9.96434974670410,1.33565437793732,1.75165522098541,0.81314957141876
272,1795437852,-0.60520213842392,0.62040507793427,50.42116928100586,-0.11842594295740,-0.08977118134499,9.99016857147217,1.29782199859619,1.76835548877716,0.81747823953629
273,1795446185,-0.60623157024384,0.62120449542999,50.42139816284180,-0.12188789993525,-0.09888265281916,10.02919387817383,1.20120525360107,1.89278972148895,0.86040776968002
274,1795454518,-0.60675483942032,0.62123918533325,50.42156982421875,-0.10940795391798,-0.10438837856054,9.97867584228516,1.26319169998169,1.80449736118317,0.83666348457336
275,1795462851,-0.60618031024933,0.62143003940582,50.42210388183594,-0.10482405871153,-0.11678040027618,9.98860836029053,1.39418280124664,1.81902074813843,0.89721548557281
276,1795471184,-0.60575205087662,0.62224954366684,50.42197036743164,-0.10080448538065,-0.09987431764603,10.00612258911133,1.37645769119263,1.89993584156036,0.80208408832550
277,1795479517,-0.60549432039261,0.62217801809311,50.42204666137695,-0.08858275413513,-0.11239939928055,10.00721359252930,1.35696530342102,1.78838598728180,0.84288769960403
278,1795487850,-0.60497188568115,0.62259858846664,50.42191314697266,-0.09207285195589,-0.09323478490114,10.02202415466309,1.38808667659760,1.85042381286621,0.83955776691437
279,1795496183,-0.60465079545975,0.62321138381958,50.42227172851562,-0.07894524186850,-0.09688289463520,10.00870800018311,1.36403477191925,1.87068450450897,0.87526410818100
280,1795504516,-0.60514086484909,0.62305247783661,50.42278671264648,-0.09849389642477,-0.10296902060509,10.01643753051758,1.26567637920380,1.77926743030548,0.86765664815903
281,1795512849,-0.60533350706100,0.62303918600082,50.42212295532227,-0.09876804798841,-0.11063481122255,10.00413608551025,1.30422568321228,1.79704368114471,0.75334030389786
282,1795521182,-0.60603117942810,0.62324351072311,50.42249679565430,-0.07580316066742,-0.10383728891611,10.01960945129395,1.24125301837921,1.82361853122711,0.87824815511703
283,1795529515,-0.60666292905807,0.62429958581924,50.42250061035156,-0.10296110808849,-0.10764560848475,9.97590160369873,1.24907827377319,1.92393648624420,0.83451181650162
284,1795537848,-0.60584205389023,0.62342607975006,50.42289733886719,-0.12144989520311,-0.07539501041174,9.99160766601562,1.42299890518188,1.69253754615784,0.88994103670120
285,1795546181,-0.60606199502945,0.62297338247299,50.42334747314453,-0.10814284533262,-0.09385996311903,9.99147224426270,1.29987132549286,1.74335622787476,0.88602209091187
286,1795554514,-0.60670191049576,0.62185901403427,50.42334365844727,-0.10883311182261,-0.10185705125332,9.98867702484131,1.24805355072021,1.66597533226013,0.83732932806015
287,1795562847,-0.60691732168198,0.62200522422791,50.42353057861328,-0.11664263159037,-0.10281064361334,10.01619148254395,1.30010175704956,1.81458938121796,0.85423481464386
288,1795571180,-0.60665225982666,0.62106877565384,50.42331695556641,-0.09844155609608,-0.09432390332222,9.97611141204834,1.35696518421173,1.68823421001434,0.80477356910706
289,1795579513,-0.60597872734070,0.62157779932022,50.42282104492188,-0.11336888372898,-0.11367587745190,10.01102352142334,1.40786075592041,1.85926055908203,0.77339625358582
290,1795587846,-0.60654038190842,0.62156987190247,50.42319869995117,-0.09003050625324,-0.10293626040220,10.01472949981689,1.25681352615356,1.79671049118042,0.87900370359421
291,1795596179,-0.60653138160706,0.62149983644485,50.42366409301758,-0.09939054399729,-0.11442346125841,9.99514484405518,1.32717585563660,1.78935909271240,0.88655984401703
292,1795604512,-0.60716873407364,0.62100946903229,50.42388534545898,-0.09576398879290,-0.11252015084028,9.99967956542969,1.24805355072021,1.73984682559967,0.86038213968277
293,1795612845,-0.60674458742142,0.62173163890839,50.42380905151367,-0.09654136747122,-0.09634556621313,9.99749851226807,1.37730312347412,1.88446497917175,0.82449662685394
294,1795621178,-0.60668522119522,0.62132406234741,50.42382431030273,-0.08294519782066,-0.10292129218578,10.01453781127930,1.33168411254883,1.74958026409149,0.87628859281540
295,1795629511,-0.60651475191116,0.62171506881714,50.42433166503906,-0.09822196513414,-0.09614662081003,10.01234626770020,1.34549033641815,1.84448134899139,0.89306598901749
296,1795637844,-0.60707718133926,0.62199699878693,50.42406463623047,-0.11269133538008,-0.09829297661781,10.01301765441895,1.25778687000275,1.83259594440460,0.82744222879410
297,1795646177,-0.60694909095764,0.62186974287033,50.42465209960938,-0.09818799793720,-0.09141089022160,10.04687976837158,1.34064912796021,1.78111159801483,0.90146750211716
298,1795654510,-0.60712414979935,0.62131738662720,50.42442321777344,-0.11371640115976,-0.10581156611443,10.00252342224121,1.30491709709167,1.73474955558777,0.79199212789536
299,1795662843,-0.60713601112366,0.62151139974594,50.42501068115234,-0.10276985913515,-0.08546489477158,9.97528553009033,1.32366693019867,1.81960976123810,0.90249198675156
300,1795671176,-0.60781103372574,0.62184178829193,50.42480087280273,-0.10768603533506,-0.08522382378578,10.01147747039795,1.24503111839294,1.83971703052521,0.81860530376434
301,1795679509,-0.60749530792236,0.62329280376434,50.42502975463867,-0.10398913919926,-0.10965732485056,10.01573657989502,1.36356079578400,1.97069489955902,0.86293077468872
302,1795687842,-0.60770171880722,0.62385046482086,50.42497253417969,-0.10553966462612,-0.08528524637222,9.99190902709961,1.30015277862549,1.86758506298065,0.77032238245010
303,1795696175,-0.60790997743607,0.62490630149841,50.42538070678711,-0.09680636972189,-0.11220102757215,10.01999950408936,1.30048596858978,1.92452573776245,0.88069432973862
304,1795704508,-0.60775512456894,0.62591713666916,50.42546463012695,-0.10596749931574,-0.08743795007467,9.99368858337402,1.34364604949951,1.91935169696808,0.84729337692261
305,1795712841,-0.60779857635498,0.62607854604721,50.42621231079102,-0.10388693958521,-0.10286819189787,10.01764488220215,1.31972217559814,1.81635665893555,0.92195868492126
306,1795721174,-0.60801166296005,0.62623912096024,50.42540740966797,-0.08722662180662,-0.09576119482517,10.01741123199463,1.30145931243896,1.81886684894562,0.74329942464828
307,1795729507,-0.60787302255630,0.62527441978455,50.42537689208984,-0.09060241281986,-0.10253005474806,10.02056598663330,1.34175050258636,1.68185615539551,0.82713484764099
308,1795737840,-0.60758811235428,0.62348687648773,50.42533874511719,-0.10022689402103,-0.09625090658665,10.00623226165771,1.36075615882874,1.58467578887939,0.82311344146729
309,1795746173,-0.60709482431412,0.62392836809158,50.42525863647461,-0.08844938129187,-0.09347888082266,9.98686218261719,1.38465428352356,1.85162734985352,0.82326710224152
310,1795754506,-0.60205876827240,0.60401439666748,50.42444992065430,-0.09406564384699,-0.11814249306917,9.99280643463135,1.38560199737549,1.77724361419678,0.86117613315582
311,1795762839,-0.60248553752899,0.60477465391159,50.42411804199219,-0.10821862518787,-0.10542737692595,9.99329662322998,1.27400100231171,1.89304590225220,0.79516839981079
312,1795771172,-0.60237747430801,0.60570108890533,50.42364120483398,-0.11257389932871,-0.10981860756874,9.97566509246826,1.33863842487335,1.91168010234833,0.82146137952805
313,1795779505,-0.60183882713318,0.60644626617432,50.42444229125977,-0.10146891325712,-0.11024684458971,9.98302745819092,1.38902151584625,1.88575851917267,0.92922043800354
314,1795787838,-0.60175848007202,0.60652101039886,50.42437744140625,-0.11815325915813,-0.10385936498642,10.02409744262695,1.33452725410461,1.81028592586517,0.83853322267532
315,1795796171,-0.60246616601944,0.60543751716614,50.42401504516602,-0.11104124039412,-0.10920548439026,9.98410511016846,1.24062550067902,1.66904926300049,0.78715109825134
316,1795804504,-0.60306292772293,0.60456007719040,50.42410278320312,-0.11020462214947,-0.11309926956892,9.98618030548096,1.25363755226135,1.69453525543213,0.84386092424393
317,1795812837,-0.60318553447723,0.60457634925842,50.42469024658203,-0.10696998983622,-0.10026697069407,10.01369762420654,1.30998897552490,1.80006611347198,0.90197974443436
318,1795821170,-0.60354185104370,0.60494637489319,50.42482757568359,-0.09623562544584,-0.10606814175844,10.01062965393066,1.28222298622131,1.84496772289276,0.85187816619873
319,1795829503,-0.60361808538437,0.60598278045654,50.42479324340820,-0.10463837534189,-0.11028855293989,10.00303936004639,1.31718647480011,1.92286074161530,0.82944017648697
320,1795837836,-0.60372376441956,0.60646504163742,50.42440414428711,-0.08638931065798,-0.09377021342516,10.00504302978516,1.31178188323975,1.85805666446686,0.78681814670563
321,1795846169,-0.60371261835098,0.60673904418945,50.42415618896484,-0.07472844421864,-0.11988981813192,10.01584148406982,1.32781636714935,1.83136665821075,0.80262207984924
322,1795854502,-0.60322374105453,0.60675990581512,50.42441940307617,-0.08949557691813,-0.09661143273115,9.97561740875244,1.38319432735443,1.80321669578552,0.86939841508865
323,1795862835,-0.60318821668625,0.60707932710648,50.42494583129883,-0.10293664783239,-0.11733491718769,10.00108909606934,1.32917392253876,1.83574652671814,0.89806073904037
324,1795871168,-0.60355228185654,0.60640954971313,50.42543029785156,-0.10148462653160,-0.09410102665424,10.00874042510986,1.28025078773499,1.72017514705658,0.88812237977982
325,1795879501,-0.60357946157455,0.60649502277374,50.42547607421875,-0.12010322511196,-0.11289753019810,9.99548435211182,1.32284724712372,1.80944073200226,0.83625358343124
326,1795887834,-0.60327374935150,0.60720497369766,50.42589187622070,-0.08907892554998,-0.09656066447496,10.00669670104980,1.36085879802704,1.88290238380432,0.90162116289139
327,1795896167,-0.60325229167938,0.60676342248917,50.42568206787109,-0.09861657768488,-0.07503845542669,10.01823806762695,1.32840549945831,1.74719834327698,0.80661791563034
328,1795904500,-0.60335850715637,0.60610771179199,50.42564773559570,-0.12381605803967,-0.09373404830694,10.01166152954102,1.31190991401672,1.72127652168274,0.82149970531464
329,1795912833,-0.60303443670273,0.60778564214706,50.42591476440430,-0.09423126280308,-0.09864574670792,9.99420642852783,1.36382985115051,1.99919104576111,0.86727237701416
330,1795921166,-0.60363680124283,0.60685032606125,50.42684173583984,-0.10677761584520,-0.10022648423910,10.02248096466064,1.25210058689117,1.68713271617889,0.93840312957764
331,1795929499,-0.60362380743027,0.60601401329041,50.42682266235352,-0.10136046260595,-0.08093582093716,10.02067756652832,1.32679176330566,1.69848001003265,0.82795459032059
332,1795937832,-0.60362976789474,0.60573905706406,50.42676162719727,-0.10426265001297,-0.09100122749805,10.00365352630615,1.32471704483032,1.76628100872040,0.87331736087799
333,1795946165,-0.60416543483734,0.60650551319122,50.42667007446289,-0.10770093649626,-0.09143144637346,10.00033378601074,1.26155245304108,1.89176499843597,0.82339525222778
334,1795954498,-0.60436558723450,0.60669195652008,50.42711257934570,-0.08316055685282,-0.11585365235806,10.00888729095459,1.30051159858704,1.82114660739899,0.86891174316406
335,1795962831,-0.60460066795349,0.60653316974640,50.42802810668945,-0.11145994067192,-0.09788340330124,9.99585723876953,1.29564476013184,1.77903664112091,0.94373089075089
336,1795971164,-0.60363852977753,0.60555607080460,50.42855072021484,-0.09673687815666,-0.08066176623106,10.02276706695557,1.44080066680908,1.68239426612854,0.88955676555634
337,1795979497,-0.60359972715378,0.60605627298355,50.42886352539062,-0.09438014775515,-0.10473887622356,9.99188327789307,1.32960939407349,1.85897874832153,0.87098652124405
338,1795987830,-0.60384070873260,0.60618090629578,50.42799758911133,-0.08399902284145,-0.11228167265654,9.98920249938965,1.29759168624878,1.81441009044647,0.72834080457687
339,1795996163,-0.60366243124008,0.60731464624405,50.42810821533203,-0.10390126705170,-0.10690696537495,10.02145957946777,1.34661722183228,1.93551421165466,0.84777998924255
340,1796004496,-0.60272073745728,0.60739445686340,50.42801284790039,-0.09928759932518,-0.09745454043150,10.02671623229980,1.43826472759247,1.80880033969879,0.81404590606689
341,1796012829,-0.60222250223160,0.60743063688278,50.42821121215820,-0.11826459318399,-0.09676037728786,10.00519752502441,1.38507711887360,1.80374181270599,0.85583567619324
342,1796021162,-0.60156315565109,0.60683208703995,50.42829132080078,-0.10845014452934,-0.10806192457676,10.00130939483643,1.40301990509033,1.72709119319916,0.87895256280899
343,1796029495,-0.60228776931763,0.60660845041275,50.42829132080078,-0.12306188046932,-0.09684492647648,10.02626800537109,1.23862755298615,1.77319669723511,0.83054155111313
344,1796037828,-0.60220372676849,0.60676854848862,50.42836761474609,-0.11855312436819,-0.11448997259140,10.00351047515869,1.33501410484314,1.81720197200775,0.85049510002136
345,1796046161,-0.60216414928436,0.60633701086044,50.42835235595703,-0.10606976598501,-0.08994801342487,9.98107910156250,1.33040332794189,1.74817144870758,0.83028531074524
346,1796054494,-0.60268175601959,0.60649180412292,50.42790603637695,-0.11897440254688,-0.09062556177378,10.00365924835205,1.26375508308411,1.81909728050232,0.81127959489822
347,1796062827,-0.60264378786087,0.60698336362839,50.42790603637695,-0.09836301952600,-0.10399854183197,9.98522853851318,1.32935333251953,1.85703217983246,0.83287250995636
348,1796071160,-0.60276579856873,0.60640186071396,50.42822265625000,-0.10577302426100,-0.10377649217844,9.99369907379150,1.31070590019226,1.72972917556763,0.86240565776825
349,1796079493,-0.60283029079437,0.60668277740479,50.42851257324219,-0.08390389382839,-0.10367876291275,10.03687572479248,1.31741702556610,1.83349263668060,0.86706757545471
350,1796087826,-0.60297393798828,0.60676932334900,50.42931747436523,-0.11284618824720,-0.09901724755764,10.03315925598145,1.30635154247284,1.80892860889435,0.91998660564423
351,1796096159,-0.60340887308121,0.60627609491348,50.42924880981445,-0.09042412787676,-0.08379784971476,9.98425579071045,1.27356541156769,1.73956537246704,0.82129490375519
352,1796104492,-0.60329109430313,0.60628837347031,50.42946243286133,-0.07493977993727,-0.09389450401068,10.00554656982422,1.33931696414948,1.80070602893829,0.87147307395935
353,1796112825,-0.60325735807419,0.60611796379089,50.42945480346680,-0.09751577675343,-0.11382849514484,9.99306392669678,1.32932734489441,1.77839624881744,0.83072078227997
354,1796121158,-0.60321003198624,0.60556459426880,50.42872238159180,-0.08761495351791,-0.09064789861441,10.00681781768799,1.33183777332306,1.73367381095886,0.76612174510956
355,1796129491,-0.60351181030273,0.60636222362518,50.42873001098633,-0.08374296873808,-0.11631227284670,10.01530361175537,1.28947186470032,1.89478754997253,0.83540832996368
356,1796137824,-0.60321593284607,0.60554409027100,50.42902374267578,-0.10686504095793,-0.09157991409302,9.97786140441895,1.36032080650330,1.70237326622009,0.85884529352188
357,1796146157,-0.60312724113464,0.60582041740417,50.42898559570312,-0.10050951689482,-0.11587760597467,10.03071498870850,1.33567988872528,1.83018851280212,0.82764714956284
358,1796154490,-0.60340291261673,0.60631388425827,50.42896652221680,-0.10371699184179,-0.11344549804926,9.99889087677002,1.29234063625336,1.86092543601990,0.80859011411667
359,1796162823,-0.60344320535660,0.60682481527328,50.42851257324219,-0.10032930225134,-0.11644711345434,10.00799846649170,1.32102859020233,1.86005461215973,0.77741765975952
360,1796171156,-0.60371178388596,0.60735464096069,50.42856979370117,-0.11791993677616,-0.09827385097742,10.00424671173096,1.29354453086853,1.86387109756470,0.83284693956375
361,1796179489,-0.60403192043304,0.60684537887573,50.42863464355469,-0.11924265325069,-0.09915342926979,9.97635746002197,1.28647506237030,1.73723423480988,0.83725243806839
362,1796187822,-0.60377538204193,0.60679519176483,50.42860794067383,-0.10519874840975,-0.09046405553818,10.00834560394287,1.35553085803986,1.79458439350128,0.84078723192215
363,1796196155,-0.60448640584946,0.60756611824036,50.42852020263672,-0.09995632618666,-0.11142180860043,10.02347755432129,1.24072790145874,1.89130377769470,0.82411235570908
364,1796204488,-0.60430771112442,0.60707712173462,50.42792892456055,-0.08775514364243,-0.09091176092625,9.98854255676270,1.34677088260651,1.74125552177429,0.77777630090714
365,1796212821,-0.60424381494522,0.60729175806046,50.42741012573242,-0.09000362455845,-0.08206712454557,9.99686717987061,1.33347702026367,1.82463002204895,0.77124452590942
366,1796221154,-0.60471951961517,0.60806965827942,50.42737579345703,-0.10258060693741,-0.10494541376829,10.02065086364746,1.26800715923309,1.89501810073853,0.83832830190659
367,1796229487,-0.60453009605408,0.60939240455627,50.42708969116211,-0.10088937729597,-0.10566030442715,10.04277420043945,1.34943473339081,1.95654332637787,0.79972761869431
368,1796237820,-0.60476279258728,0.60938841104507,50.42657089233398,-0.10487718135118,-0.09947440028191,10.04421710968018,1.29748904705048,1.80039882659912,0.77460008859634
369,1796246153,-0.60490483045578,0.60884165763855,50.42659378051758,-0.09197536855936,-0.10800483077765,10.00402832031250,1.30770909786224,1.73293101787567,0.83397388458252
370,1796254486,-0.60504561662674,0.60827785730362,50.42678451538086,-0.08568857610226,-0.10132448375225,9.99450778961182,1.30837500095367,1.73185515403748,0.88069421052933
371,1796262819,-0.60521578788757,0.60800868272781,50.42710113525391,-0.10983502864838,-0.11078308522701,9.99945640563965,1.30394387245178,1.76512801647186,0.87039726972580
372,1796271152,-0.60560357570648,0.60857009887695,50.42731475830078,-0.09720250964165,-0.10518501698971,10.01153850555420,1.27889311313629,1.86927556991577,0.86409628391266
373,1796279485,-0.60639417171478,0.60751855373383,50.42763519287109,-0.10408218950033,-0.12477324903011,9.99095439910889,1.23030292987823,1.67099583148956,0.87001305818558
374,1796287818,-0.60597568750381,0.60768347978592,50.42734146118164,-0.12038503587246,-0.09564171731472,10.00970458984375,1.37543332576752,1.82112097740173,0.79921543598175
375,1796296151,-0.60636854171753,0.60715734958649,50.42735671997070,-0.11477693915367,-0.10187549889088,10.01149368286133,1.27861130237579,1.73590219020844,0.83243697881699
376,1796304484,-0.60630202293396,0.60640400648117,50.42765045166016,-0.10450846701860,-0.09858389943838,10.00745391845703,1.33176088333130,1.70946848392487,0.90328592061996
377,1796312817,-0.60532653331757,0.60666143894196,50.42752075195312,-0.11293718218803,-0.09911778569221,10.02180862426758,1.44341349601746,1.82921516895294,0.81486576795578
378,1796321150,-0.60497593879700,0.60690653324127,50.42755126953125,-0.09785969555378,-0.09362337738276,10.01113033294678,1.36690366268158,1.83095669746399,0.81437891721725
379,1796329483,-0.60527569055557,0.60718995332718,50.42752456665039,-0.08207835257053,-0.08718317002058,10.01889133453369,1.28995859622955,1.83182775974274,0.83013176918030
380,1796337816,-0.60597932338715,0.60626053810120,50.42652130126953,-0.09502749145031,-0.11132194101810,9.99991607666016,1.24126589298248,1.69061625003815,0.71371507644653
381,1796346149,-0.60629642009735,0.60531967878342,50.42687225341797,-0.09185180813074,-0.12381119281054,10.03109645843506,1.28729462623596,1.68457126617432,0.87331730127335
382,1796354482,-0.60644406080246,0.60545164346695,50.42684936523438,-0.09009483456612,-0.10740714520216,10.03207015991211,1.30788850784302,1.81676650047302,0.81962990760803
383,1796362815,-0.60711109638214,0.60529035329819,50.42649459838867,-0.08311541378498,-0.08898452669382,10.01509284973145,1.24577379226685,1.77911353111267,0.78953313827515
384,1796371148,-0.60649412870407,0.60536044836044,50.42554473876953,-0.12323864549398,-0.12976570427418,9.97647380828857,1.39928019046783,1.80900549888611,0.77431833744049
385,1796379481,-0.60709297657013,0.60496038198471,50.42571258544922,-0.08670079708099,-0.09693575650454,10.01283264160156,1.25348377227783,1.75065600872040,0.85198062658310
386,1796387814,-0.60757428407669,0.60416984558105,50.42493820190430,-0.11392582207918,-0.08850682526827,9.98749351501465,1.26787900924683,1.70621550083160,0.75987190008163
387,1796396147,-0.60710054636002,0.60355418920517,50.42499923706055,-0.12266604602337,-0.09146665036678,9.98727321624756,1.38316857814789,1.72524666786194,0.83919912576675
388,1796404480,-0.60730522871017,0.60477828979492,50.42478561401367,-0.11032789200544,-0.09646516293287,9.98042774200439,1.29941034317017,1.94678449630737,0.84885579347610
389,1796412813,-0.60765624046326,0.60514891147614,50.42501449584961,-0.10575112700462,-0.10935159027576,9.99833202362061,1.28370845317841,1.84248304367065,0.85915261507034
390,1796421146,-0.60798496007919,0.60422700643539,50.42420578002930,-0.13293588161469,-0.09138695895672,10.00709056854248,1.28591144084930,1.68964290618896,0.74606573581696
391,1796429479,-0.60769283771515,0.60293501615524,50.42401504516602,-0.10541890561581,-0.10567012429237,10.01249599456787,1.36083316802979,1.64471566677094,0.80753999948502
392,1796437812,-0.60812038183212,0.60325324535370,50.42393112182617,-0.10228119790554,-0.08791217952967,10.02242279052734,1.27364230155945,1.83825683593750,0.82754468917847
393,1796446145,-0.60786241292953,0.60405009984970,50.42466735839844,-0.10043963789940,-0.10597859323025,10.00786304473877,1.35627377033234,1.89358377456665,0.92270165681839
394,1796454478,-0.60867995023727,0.60446107387543,50.42392730712891,-0.10076291859150,-0.08121661841869,10.00034809112549,1.22733163833618,1.84914267063141,0.76102441549301
395,1796462811,-0.60864043235779,0.60452955961227,50.42422103881836,-0.11709999293089,-0.11685738712549,10.01165866851807,1.32966053485870,1.80693066120148,0.86837375164032
396,1796471144,-0.60937082767487,0.60435330867767,50.42433547973633,-0.09081304073334,-0.07977642118931,10.02087783813477,1.23762869834900,1.77849888801575,0.85231363773346
397,1796479477,-0.60935026407242,0.60321712493896,50.42413711547852,-0.08889530599117,-0.10600019246340,10.00194358825684,1.32809829711914,1.66313242912292,0.80628496408463
398,1796487810,-0.60933470726013,0.60405224561691,50.42456817626953,-0.08236616849899,-0.11440724134445,10.02646923065186,1.32653570175171,1.90098619461060,0.88812243938446
399,1796496143,-0.60955494642258,0.60375082492828,50.42445373535156,-0.09586998075247,-0.09975790977478,10.01492023468018,1.29861605167389,1.76179826259613,0.81694036722183
400,1796504476,-0.60953491926193,0.60400420427322,50.42489624023438,-0.09744815528393,-0.11967991292477,10.01990318298340,1.32653570175171,1.83121299743652,0.87856829166412
401,1796512809,-0.61026412248611,0.60314208269119,50.42507934570312,-0.10692875832319,-0.08620376139879,10.00121402740479,1.23773121833801,1.69417691230774,0.85208320617676
402,1796521142,-0.61022716760635,0.60304212570190,50.42485046386719,-0.12234473973513,-0.11734616756439,10.02859592437744,1.33073627948761,1.78823208808899,0.79629534482956
403,1796529475,-0.61034476757050,0.60266923904419,50.42471313476562,-0.12071144580841,-0.11489195376635,10.00170803070068,1.31083405017853,1.75375533103943,0.81688916683197
404,1796537808,-0.60986959934235,0.60302221775055,50.42507934570312,-0.12810523808002,-0.13535773754120,10.02073669433594,1.38201606273651,1.84086966514587,0.88930064439774
405,1796546141,-0.61001634597778,0.60399192571640,50.42570114135742,-0.13111847639084,-0.10019008070230,10.00641155242920,1.30640280246735,1.91433107852936,0.90848559141159
406,1796554474,-0.61028641462326,0.60440784692764,50.42577743530273,-0.11520173400640,-0.13219709694386,10.02002048492432,1.29239189624786,1.84950149059296,0.88768690824509
407,1796562807,-0.61061507463455,0.60395395755768,50.42646026611328,-0.11656562983990,-0.09780105203390,10.03551006317139,1.28529667854309,1.74325370788574,0.91181564331055
408,1796571140,-0.61042732000351,0.60429877042770,50.42612075805664,-0.08807649463415,-0.10235022008419,10.02263355255127,1.34851253032684,1.84199655056000,0.80162316560745
409,1796579473,-0.61031383275986,0.60430794954300,50.42607498168945,-0.08464275300503,-0.09952300786972,10.01039409637451,1.33939397335052,1.79901587963104,0.82552123069763
410,1796587806,-0.60973703861237,0.60509645938873,50.42584991455078,-0.09193617850542,-0.09422679245472,9.98249721527100,1.39420831203461,1.89588892459869,0.80262202024460
411,1796596139,-0.60940402746201,0.60485196113586,50.42621994018555,-0.09472078084946,-0.12125517427921,10.02056789398193,1.36531567573547,1.76832985877991,0.87541776895523
412,1796604472,-0.60978323221207,0.60441231727600,50.42648315429688,-0.08432327210903,-0.07510164380074,9.99329757690430,1.27848339080811,1.74512338638306,0.91576009988785
413,1796612805,-0.60975372791290,0.60469794273376,50.42681503295898,-0.08720519393682,-0.09134618937969,10.02975654602051,1.32886672019958,1.83380019664764,0.87267708778381
414,1796621138,-0.61047524213791,0.60409188270569,50.42701339721680,-0.10873644798994,-0.08429656177759,10.02231502532959,1.23878121376038,1.72752630710602,0.82047522068024
415,1796629471,-0.61002141237259,0.60405373573303,50.42615509033203,-0.08281004428864,-0.11245899647474,10.03403854370117,1.38024866580963,1.79612147808075,0.72877621650696
416,1796637804,-0.60912209749222,0.60527682304382,50.42642593383789,-0.13035960495472,-0.09048119187355,10.00558948516846,1.43360316753387,1.94640028476715,0.84404033422470
417,1796646137,-0.60973817110062,0.60465490818024,50.42645263671875,-0.12585176527500,-0.09741274267435,10.00216579437256,1.25197267532349,1.72296726703644,0.83407646417618
418,1796654470,-0.60977536439896,0.60422056913376,50.42567825317383,-0.11243361979723,-0.09922763705254,10.01539993286133,1.32105410099030,1.74927306175232,0.79019916057587
419,1796662803,-0.60952520370483,0.60393619537354,50.42528915405273,-0.13007248938084,-0.10037003457546,10.01801490783691,1.35596632957458,1.76492309570312,0.78433340787888
420,1796671136,-0.60982191562653,0.60399270057678,50.42436599731445,-0.12854027748108,-0.10822771489620,10.01890182495117,1.28970229625702,1.80675113201141,0.79345208406448
421,1796679469,-0.61034399271011,0.60326790809631,50.42436599731445,-0.08788894116879,-0.10006294399500,10.01368522644043,1.26232063770294,1.71128690242767,0.83102828264236
422,1796687802,-0.61064946651459,0.60369241237640,50.42455673217773,-0.09410096704960,-0.11604069173336,10.00571060180664,1.28872919082642,1.85098731517792,0.84836918115616
423,1796696135,-0.61048436164856,0.60433846712112,50.42464828491211,-0.07944699376822,-0.09580213576555,10.01729106903076,1.34513163566589,1.87665271759033,0.84275960922241
424,1796704468,-0.61032164096832,0.60502755641937,50.42521667480469,-0.08812689781189,-0.13139113783836,10.00143527984619,1.34369719028473,1.88318431377411,0.89380878210068
425,1796712801,-0.61054694652557,0.60490411520004,50.42553710937500,-0.09620089828968,-0.09204941987991,9.98522186279297,1.29797565937042,1.78182864189148,0.86988502740860
426,1796721134,-0.61044114828110,0.60450321435928,50.42569732666016,-0.09508337825537,-0.11327036470175,9.98451805114746,1.33847188949585,1.75296139717102,0.83922475576401
427,1796729467,-0.61012315750122,0.60468280315399,50.42549896240234,-0.09004393965006,-0.08935556560755,9.98755455017090,1.36393249034882,1.82076239585876,0.80648982524872
428,1796737800,-0.61033189296722,0.60575187206268,50.42560195922852,-0.09687896072865,-0.09658692777157,10.02881717681885,1.29884672164917,1.92726635932922,0.87918305397034
429,1796746133,-0.60981249809265,0.60697942972183,50.42581176757812,-0.10471396893263,-0.09193535894156,9.99728107452393,1.38844525814056,1.94698917865753,0.85776948928833
430,1796754466,-0.61030852794647,0.60672545433044,50.42581558227539,-0.10601542890072,-0.08192721009254,10.03323745727539,1.26465165615082,1.76804828643799,0.83008056879044
431,1796762799,-0.61054706573486,0.60704195499420,50.42584991455078,-0.13024903833866,-0.11079280823469,10.03348636627197,1.29677188396454,1.83628463745117,0.83645850419998
432,1796771132,-0.61040455102921,0.60827612876892,50.42609024047852,-0.14857248961926,-0.07638012617826,10.01379013061523,1.34226274490356,1.94908964633942,0.85715478658676
433,1796779465,-0.61044949293137,0.60883754491806,50.42686080932617,-0.13492183387280,-0.12566068768501,10.03437423706055,1.31905627250671,1.86512613296509,0.92395675182343
434,1796787798,-0.61031508445740,0.60904383659363,50.42689132690430,-0.11874399334192,-0.10357931256294,10.02489089965820,1.34192991256714,1.82486069202423,0.81010150909424
435,1796796131,-0.60990858078003,0.60955452919006,50.42721939086914,-0.12745936214924,-0.09104839712381,10.00537586212158,1.37351226806641,1.85905563831329,0.87201106548309
436,1796804464,-0.61023432016373,0.60914915800095,50.42734527587891,-0.11598145216703,-0.09509874880314,10.02491664886475,1.28529667854309,1.75155246257782,0.84900939464569
437,1796812797,-0.61064416170120,0.60982811450958,50.42727661132812,-0.09716644883156,-0.10229287296534,10.01214599609375,1.27722835540771,1.88110923767090,0.82477837800980
438,1796821130,-0.61139422655106,0.60875970125198,50.42703247070312,-0.08315705507994,-0.08952354639769,9.98011112213135,1.23468291759491,1.67163610458374,0.79806268215179
439,1796829463,-0.61131650209427,0.60916262865067,50.42720031738281,-0.05615426972508,-0.09991248697042,10.00976943969727,1.33542358875275,1.84640204906464,0.85443961620331
440,1796837796,-0.61085420846939,0.60910040140152,50.42808914184570,-0.07119487226009,-0.08733634650707,10.01729202270508,1.37937760353088,1.79253530502319,0.88087350130081
441,1796846129,-0.61031198501587,0.60869926214218,50.42803955078125,-0.08999166637659,-0.10400354862213,9.98314285278320,1.39049446582794,1.75078415870667,0.82400995492935
442,1796854462,-0.61020195484161,0.60750591754913,50.42757415771484,-0.07184703648090,-0.10248003154993,9.98601436614990,1.33962428569794,1.65793240070343,0.77047616243362
443,1796862795,-0.61014378070831,0.60649859905243,50.42797470092773,-0.09047161787748,-0.10698325932026,10.00045299530029,1.33091557025909,1.67681002616882,0.87949031591415
444,1796871128,-0.60933291912079,0.60718703269958,50.42856979370117,-0.10341073572636,-0.09182897210121,10.00352764129639,1.42182052135468,1.88157045841217,0.89434659481049
445,1796879461,-0.60929644107819,0.60664886236191,50.42823410034180,-0.10512932389975,-0.09755191206932,9.99153041839600,1.33060824871063,1.73495471477509,0.79053211212158
446,1796887794,-0.60943746566772,0.60613346099854,50.42869567871094,-0.14333859086037,-0.11661931872368,10.00337314605713,1.30776047706604,1.73685002326965,0.89111930131912
447,1796896127,-0.60930538177490,0.60622316598892,50.42876815795898,-0.12403560429811,-0.10032366216183,10.02807426452637,1.34098196029663,1.80956876277924,0.84106898307800
448,1796904460,-0.60918956995010,0.60651636123657,50.42867279052734,-0.12802593410015,-0.10234150290489,10.00455284118652,1.33842062950134,1.83467078208923,0.83220654726028
449,1796912793,-0.60959398746490,0.60699117183685,50.42834091186523,-0.10968572646379,-0.08985724300146,10.02810096740723,1.27812480926514,1.85595643520355,0.79309356212616
450,1796921126,-0.60971659421921,0.60760504007339,50.42840194702148,-0.10717940330505,-0.11174316704273,10.02552127838135,1.30942523479462,1.87447547912598,0.86345595121384
451,1796929459,-0.60948753356934,0.60681575536728,50.42852783203125,-0.09726589173079,-0.09295677393675,10.01369953155518,1.35350728034973,1.70490908622742,0.84560275077820
452,1796937792,-0.60955655574799,0.60659736394882,50.42804336547852,-0.07684239000082,-0.10066831111908,9.99906539916992,1.31757056713104,1.77450287342072,0.77892887592316
453,1796946125,-0.60948604345322,0.60706382989883,50.42838668823242,-0.10401686280966,-0.09757201373577,10.02832508087158,1.33260619640350,1.85367667675018,0.87439322471619
454,1796954458,-0.60960692167282,0.60756063461304,50.42868041992188,-0.09145539999008,-0.10618880391121,10.01300430297852,1.31039869785309,1.86015701293945,0.84708845615387
455,1796962791,-0.60939991474152,0.60752367973328,50.42879486083984,-0.08604206889868,-0.08803755789995,9.99440097808838,1.35030555725098,1.79402089118958,0.84790807962418
456,1796971124,-0.60944581031799,0.60758870840073,50.43009567260742,-0.07808645069599,-0.10134780406952,10.01223468780518,1.32000410556793,1.80731499195099,0.86727243661880
457,1796979457,-0.60998451709747,0.60724014043808,50.43028259277344,-0.09035015851259,-0.08341841399670,10.02030563354492,1.26027143001556,1.75698268413544,0.85410660505295
458,1796987790,-0.61052465438843,0.60739475488663,50.43003463745117,-0.12242693454027,-0.08710484951735,9.99702739715576,1.25958001613617,1.81809866428375,0.80234032869339
459,1796996123,-0.61032217741013,0.60714697837830,50.43082427978516,-0.11379076540470,-0.10221216827631,10.00572872161865,1.34963989257812,1.76799702644348,0.92736339569092
460,1797004456,-0.60965967178345,0.60703879594803,50.43032836914062,-0.12748382985592,-0.10319485515356,10.01139259338379,1.40491533279419,1.78764319419861,0.76829904317856
461,1797012789,-0.61060899496078,0.60752582550049,50.43048477172852,-0.11736889183521,-0.10303571820259,10.01184749603271,1.21073377132416,1.85754442214966,0.85223692655563
462,1797021122,-0.61075037717819,0.60723406076431,50.43052291870117,-0.12888664007187,-0.10010287165642,9.97916030883789,1.30852878093719,1.76420581340790,0.84606367349625
463,1797029455,-0.61091935634613,0.60712414979935,50.43127059936523,-0.11817305535078,-0.08025182038546,10.00632572174072,1.30412340164185,1.78487694263458,0.92183071374893
464,1797037788,-0.61105877161026,0.60812211036682,50.43056869506836,-0.09963909536600,-0.08930049091578,9.99407577514648,1.30929732322693,1.92076039314270,0.74993366003036
465,1797046121,-0.61146306991577,0.60800397396088,50.43012237548828,-0.10672514885664,-0.10906740278006,10.00558567047119,1.27681839466095,1.78526115417480,0.77744328975677
466,1797054454,-0.61204242706299,0.60847431421280,50.42984390258789,-0.09330493211746,-0.09669639915228,10.03544902801514,1.25660884380341,1.85731399059296,0.79465609788895
467,1797062787,-0.61213397979736,0.60884428024292,50.42997741699219,-0.06525830924511,-0.09054485708475,10.00084018707275,1.31418931484222,1.84222686290741,0.84993141889572
468,1797071120,-0.61181372404099,0.60927462577820,50.43025207519531,-0.10160294175148,-0.10497934371233,10.00784683227539,1.36252355575562,1.85126900672913,0.89086306095123
469,1797079453,-0.61160403490067,0.60970252752304,50.43014144897461,-0.07281795889139,-0.09445524215698,10.02857208251953,1.35120224952698,1.84968078136444,0.82027035951614
470,1797087786,-0.61245769262314,0.60951614379883,50.43069076538086,-0.11259974539280,-0.09479153901339,10.01689910888672,1.22172224521637,1.77721822261810,0.89480769634247
471,1797096119,-0.61256951093674,0.60909360647202,50.43059158325195,-0.11653251945972,-0.10297226905823,10.00184440612793,1.31219148635864,1.74847877025604,0.81842595338821
472,1797104452,-0.61126637458801,0.60970252752304,50.43040466308594,-0.10654268413782,-0.10048746317625,9.99452877044678,1.48073327541351,1.87237489223480,0.86368632316589
473,1797112785,-0.61162215471268,0.60940444469452,50.43103790283203,-0.12104803323746,-0.09506180137396,10.00296497344971,1.28253030776978,1.76302778720856,0.90769171714783
474,1797121118,-0.61158770322800,0.60910296440125,50.43094635009766,-0.10726559907198,-0.10833297669888,10.00519466400146,1.32912266254425,1.76274597644806,0.83732932806015
475,1797129451,-0.61190897226334,0.60995763540268,50.43053817749023,-0.11739853024483,-0.11116911470890,9.99382495880127,1.28719222545624,1.90265107154846,0.78228443861008
476,1797137784,-0.61183738708496,0.61037278175354,50.43044281005859,-0.12748843431473,-0.10422898828983,10.00516128540039,1.33409190177917,1.84947586059570,0.81801629066467
477,1797146117,-0.61157894134521,0.61149501800537,50.43077087402344,-0.12310022115707,-0.10949052870274,10.01288700103760,1.35578703880310,1.93400287628174,0.87044847011566
478,1797154450,-0.61084347963333,0.61215913295746,50.43148040771484,-0.11209049075842,-0.10511913150549,10.01634407043457,1.41180551052094,1.87842011451721,0.92815750837326
479,1797162783,-0.61069691181183,0.61134725809097,50.43096160888672,-0.13326314091682,-0.09717550128698,9.99154281616211,1.34461927413940,1.70183539390564,0.76932352781296
480,1797171116,-0.61055177450180,0.61198091506958,50.43018341064453,-0.09891733527184,-0.11027669906616,10.01173973083496,1.34254455566406,1.87706255912781,0.74061000347137
481,1797179449,-0.61069518327713,0.61288130283356,50.42904281616211,-0.08275922387838,-0.11847878247499,10.01287174224854,1.31009125709534,1.90872156620026,0.69757813215256
482,1797187782,-0.61104154586792,0.61392909288406,50.42932128906250,-0.09031304717064,-0.10202430188656,9.99613189697266,1.28319644927979,1.92531979084015,0.85313338041306
483,1797196115,-0.61125427484512,0.61395472288132,50.42966842651367,-0.09928167611361,-0.10303267836571,9.99551582336426,1.29928207397461,1.80068051815033,0.87352222204208
484,1797204448,-0.61057186126709,0.61285561323166,50.42938995361328,-0.08862017840147,-0.11467621475458,9.98300170898438,1.40763020515442,1.66781961917877,0.80057287216187
485,1797212781,-0.60997450351715,0.61320638656616,50.42924499511719,-0.10797189176083,-0.10590936243534,10.02700996398926,1.39641141891479,1.84171485900879,0.81560850143433
486,1797221114,-0.60965353250504,0.61350613832474,50.42926788330078,-0.11072435230017,-0.09822562336922,10.01672935485840,1.36388123035431,1.83623337745667,0.87037163972855
487,1797229447,-0.61001324653625,0.61383056640625,50.42906188964844,-0.10155115276575,-0.11170474439859,9.99346256256104,1.28247916698456,1.83835911750793,0.80818033218384
488,1797237780,-0.60988241434097,0.61416292190552,50.42849731445312,-0.12570773065090,-0.10052496194839,10.00582504272461,1.34100759029388,1.84061324596405,0.76622426509857
489,1797246113,-0.60997313261032,0.61431270837784,50.42885971069336,-0.14369212090969,-0.10596644878387,10.01454353332520,1.31475305557251,1.81704807281494,0.87487989664078
490,1797254446,-0.60985195636749,0.61376035213470,50.42969131469727,-0.11495722830296,-0.09665941447020,9.99820327758789,1.33889436721802,1.73258519172668,0.90780687332153
491,1797262779,-0.60978561639786,0.61392456293106,50.42942428588867,-0.12879544496536,-0.08813820034266,10.02468013763428,1.33361804485321,1.81821370124817,0.79902333021164
492,1797271112,-0.60912555456161,0.61348843574524,50.42892074584961,-0.11977973580360,-0.09061390161514,9.97908973693848,1.40442860126495,1.74819731712341,0.74404233694077
493,1797279445,-0.60918068885803,0.61369371414185,50.42887878417969,-0.10106082260609,-0.09436414390802,10.01665878295898,1.31869769096375,1.82317006587982,0.82869732379913
494,1797287778,-0.60944819450378,0.61361026763916,50.42887878417969,-0.10966411232948,-0.08794166892767,10.00542068481445,1.29344201087952,1.79071664810181,0.82234495878220
495,1797296111,-0.60884726047516,0.61397993564606,50.42916107177734,-0.11668632924557,-0.08959957212210,10.02336597442627,1.39723086357117,1.84230399131775,0.86606860160828
496,1797304444,-0.60896217823029,0.61315542459488,50.42889785766602,-0.11147770285606,-0.08333390206099,10.02169227600098,1.31149983406067,1.70237326622009,0.79176157712936
497,1797312777,-0.60893434286118,0.61281371116638,50.42869949340820,-0.09271878749132,-0.07710735499859,10.00153064727783,1.32873845100403,1.75734126567841,0.80830842256546
498,1797321110,-0.60928755998611,0.61213749647141,50.42832946777344,-0.09538796544075,-0.09917380660772,10.02422714233398,1.28345239162445,1.71904802322388,0.80935859680176
499,1797329443,-0.60828399658203,0.61201560497284,50.42808532714844,-0.08915713429451,-0.10063532739878,10.00314998626709,1.44553959369659,1.78372418880463,0.80328810214996
500,1797337776,-0.60792100429535,0.61165094375610,50.42838668823242,-0.10296399146318,-0.10706643760204,10.01902103424072,1.36838948726654,1.75757205486298,0.86115062236786
501,1797346109,-0.60821396112442,0.61232441663742,50.42857360839844,-0.09414547681808,-0.07379399240017,9.98433303833008,1.28985607624054,1.87911140918732,0.85592532157898
502,1797354442,-0.60812348127365,0.61235451698303,50.42816162109375,-0.09709656238556,-0.11279236525297,9.99681282043457,1.33634591102600,1.80267858505249,0.78653633594513
503,1797362775,-0.60893005132675,0.61182844638824,50.42805862426758,-0.11019173264503,-0.09444937855005,9.99532604217529,1.22920167446136,1.73677337169647,0.81676113605499
504,1797371108,-0.60989636182785,0.61171466112137,50.42781829833984,-0.10202519595623,-0.10723623633385,10.01701641082764,1.20896625518799,1.78718197345734,0.80059850215912
505,1797379441,-0.61020284891129,0.61168718338013,50.42869949340820,-0.10942654311657,-0.10106198489666,9.99629306793213,1.28796064853668,1.79420042037964,0.93953019380569
506,1797387774,-0.61022859811783,0.61303806304932,50.42873001098633,-0.10966359823942,-0.10991755872965,10.00153064727783,1.32105410099030,1.96246027946472,0.83668899536133
507,1797396107,-0.61082869768143,0.61357051134109,50.42896652221680,-0.12662228941917,-0.08262687921524,10.00455760955811,1.25371444225311,1.86248779296875,0.86058706045151
508,1797404440,-0.61072617769241,0.61440652608871,50.42957305908203,-0.11551480740309,-0.11779241263866,9.97919178009033,1.33596169948578,1.89827120304108,0.93156415224075
509,1797412773,-0.60982221364975,0.61378365755081,50.42959594726562,-0.10193198919296,-0.08592253923416,10.02083587646484,1.43424344062805,1.72401726245880,0.83533143997192
510,1797421106,-0.60929757356644,0.61424720287323,50.42954254150391,-0.11476504057646,-0.10380692034960,10.00671672821045,1.38726687431335,1.85554635524750,0.82634085416794
511,1797429439,-0.60908114910126,0.61453878879547,50.42993545532227,-0.10965639352798,-0.10226844251156,9.97032165527344,1.35092031955719,1.83298027515411,0.88164192438126
512,1797437772,-0.60862171649933,0.61554563045502,50.42974472045898,-0.10621991753578,-0.12252601981163,9.99765682220459,1.37994122505188,1.92009425163269,0.80938422679901
513,1797446105,-0.60822945833206,0.61532360315323,50.42937850952148,-0.08210586011410,-0.10121238231659,10.01177024841309,1.37381958961487,1.77368342876434,0.78753530979156
514,1797454438,-0.60825860500336,0.61548346281052,50.42896270751953,-0.09307351708412,-0.10660486668348,10.01587390899658,1.32102847099304,1.81830334663391,0.82152533531189
515,1797462771,-0.60811090469360,0.61475265026093,50.42849731445312,-0.10474088788033,-0.09313268959522,10.03929901123047,1.34382522106171,1.71195316314697,0.77595764398575
516,1797471104,-0.60738748311996,0.61391365528107,50.42884445190430,-0.09446578472853,-0.10428856313229,10.04001522064209,1.41211271286011,1.69881284236908,0.82270359992981
517,1797479437,-0.60703814029694,0.61326241493225,50.42828750610352,-0.10365959256887,-0.11303932964802,10.00710582733154,1.36849176883698,1.72163534164429,0.76332986354828
518,1797487770,-0.60722285509109,0.61370736360550,50.42905044555664,-0.09030181914568,-0.08936958760023,9.99591636657715,1.30176663398743,1.85285675525665,0.91655421257019
519,1797496103,-0.60645538568497,0.61329030990601,50.42948150634766,-0.12069925665855,-0.10049038380384,10.00327491760254,1.41685140132904,1.74819707870483,0.88371664285660
520,1797504436,-0.60595649480820,0.61301678419113,50.42902374267578,-0.12223105877638,-0.10352491587400,10.04702186584473,1.38544833660126,1.76792025566101,0.78768897056580
521,1797512769,-0.60572642087936,0.61236739158630,50.42861175537109,-0.12159989774227,-0.10864212363958,9.99174594879150,1.35337924957275,1.72089231014252,0.78190016746521
522,1797521102,-0.60704153776169,0.61180847883224,50.42831039428711,-0.11273121088743,-0.10459619760513,10.01247215270996,1.16772735118866,1.73382759094238,0.77032250165939
523,1797529435,-0.60696852207184,0.61187642812729,50.42866134643555,-0.10314783453941,-0.10440436005592,10.02442073822021,1.33409190177917,1.80670011043549,0.87464922666550
524,1797537768,-0.60649055242538,0.61137998104095,50.42847061157227,-0.12934871017933,-0.08880827575922,10.02669715881348,1.38339924812317,1.74035930633545,0.80561894178391
525,1797546101,-0.60650336742401,0.61215573549271,50.42846298217773,-0.11927568167448,-0.10153368115425,10.02960300445557,1.32325696945190,1.89261043071747,0.83256506919861
526,1797554434,-0.60654455423355,0.61270284652710,50.42887115478516,-0.10761643946171,-0.08405840396881,10.01403999328613,1.31987595558167,1.86440885066986,0.87964403629303
527,1797562767,-0.60645270347595,0.61254799365997,50.42896652221680,-0.10594309121370,-0.12905725836754,10.00849437713623,1.33619225025177,1.77906227111816,0.84327191114426
528,1797571100,-0.60611808300018,0.61296153068542,50.42861938476562,-0.08269149810076,-0.09702355414629,10.00967884063721,1.36485445499420,1.85019302368164,0.80280137062073
529,1797579433,-0.60592341423035,0.61270642280579,50.42901229858398,-0.06770204752684,-0.11544947326183,9.99620056152344,1.34894800186157,1.76843261718750,0.87984901666641
530,1797587766,-0.60531389713287,0.61247617006302,50.42943191528320,-0.07348057627678,-0.09978149831295,9.99608325958252,1.39697492122650,1.77245390415192,0.87841463088989
531,1797596099,-0.60416644811630,0.61184853315353,50.42921829223633,-0.09056553989649,-0.10482174903154,10.01581859588623,1.46382784843445,1.72419655323029,0.80574691295624
532,1797604432,-0.60388875007629,0.61288088560104,50.42913055419922,-0.09283988177776,-0.10168096423149,9.97257709503174,1.35850214958191,1.92255330085754,0.82237070798874
533,1797612765,-0.60247641801834,0.61187177896500,50.42926788330078,-0.08615387976170,-0.09574515372515,10.01011085510254,1.49502599239349,1.67837274074554,0.84588456153870
534,1797621098,-0.60187155008316,0.61160612106323,50.42950820922852,-0.12174548208714,-0.11101060360670,10.02996921539307,1.39766645431519,1.76712596416473,0.85905021429062
535,1797629431,-0.60096400976181,0.61150974035263,50.42967605590820,-0.09960617125034,-0.08909863233566,10.01623725891113,1.43410265445709,1.78668236732483,0.85086643695831
536,1797637764,-0.60035872459412,0.61169010400772,50.42967224121094,-0.10091199725866,-0.10185578465462,10.01864719390869,1.39669287204742,1.82237577438354,0.83671456575394
537,1797646097,-0.60047537088394,0.61159032583237,50.42924118041992,-0.10668791830540,-0.09560358524323,10.01826000213623,1.31190991401672,1.78695142269135,0.78087550401688
538,1797654430,-0.60022777318954,0.61168932914734,50.42869567871094,-0.11955232918262,-0.09231668710709,10.02664852142334,1.35622262954712,1.81330871582031,0.72488290071487
539,1797662763,-0.60058325529099,0.61228483915329,50.42884445190430,-0.11011469364166,-0.11339989304543,9.99561500549316,1.28247916698456,1.86940383911133,0.85090500116348
540,1797671096,-0.59995728731155,0.61260575056076,50.42920684814453,-0.09967508912086,-0.09865386039019,10.01434803009033,1.39971554279327,1.83871793746948,0.86558192968369
541,1797679429,-0.59984368085861,0.61317873001099,50.42955398559570,-0.08320906758308,-0.11346740275621,10.01137638092041,1.33959889411926,1.86694467067719,0.87639105319977
542,1797687762,-0.60023570060730,0.61276638507843,50.42964553833008,-0.10476620495319,-0.10284744948149,9.99140357971191,1.27743303775787,1.75129640102386,0.83394819498062
543,1797696095,-0.60040926933289,0.61331564188004,50.42960357666016,-0.08409302681684,-0.08623719960451,10.03858280181885,1.30440509319305,1.86425530910492,0.82823640108109
544,1797704428,-0.60052359104156,0.61184293031693,50.42913436889648,-0.08063865453005,-0.10516560822725,10.02285671234131,1.31178176403046,1.62427556514740,0.78079867362976
545,1797712761,-0.60063958168030,0.61141997575760,50.42887496948242,-0.10210435092449,-0.10112375766039,9.98906517028809,1.31178176403046,1.74865806102753,0.79870307445526
546,1797721094,-0.60075014829636,0.61141002178192,50.42857360839844,-0.10056711733341,-0.11021095514297,9.99427032470703,1.31196105480194,1.79819607734680,0.80351853370667
547,1797729427,-0.60056024789810,0.61019974946976,50.42841339111328,-0.09571772813797,-0.09210500121117,10.00557994842529,1.34869182109833,1.65309143066406,0.81038314104080
548,1797737760,-0.60054397583008,0.60922336578369,50.42866516113281,-0.11210401356220,-0.10259735584259,9.99807548522949,1.32697105407715,1.68405926227570,0.86125308275223
549,1797746093,-0.60024261474609,0.60972207784653,50.42769622802734,-0.10965963453054,-0.10320067405701,10.01853847503662,1.36272859573364,1.85943984985352,0.71494460105896
550,1797754426,-0.60169237852097,0.60360389947891,50.42282867431641,-0.11855776607990,-0.12430954724550,9.99148845672607,1.36623787879944,1.76733112335205,0.87403458356857
551,1797762759,-0.60127913951874,0.60329562425613,50.42290115356445,-0.11304412037134,-0.09802106767893,10.01623535156250,1.37547147274017,1.76347601413727,0.84128665924072
552,1797771092,-0.60154813528061,0.60436218976974,50.42319107055664,-0.10563045740128,-0.10450926423073,10.02034854888916,1.29235339164734,1.92635691165924,0.85834574699402
553,1797779425,-0.60104942321777,0.60550308227539,50.42344665527344,-0.12012208998203,-0.09707700461149,10.04870319366455,1.38480794429779,1.93656444549561,0.86371195316315
554,1797787758,-0.60160773992538,0.60547375679016,50.42284011840820,-0.11177905648947,-0.08293027430773,10.02286529541016,1.25837612152100,1.79722261428833,0.75843739509583
555,1797796091,-0.60212725400925,0.60541445016861,50.42277145385742,-0.09740096330643,-0.09569204598665,10.01051425933838,1.26319169998169,1.79243314266205,0.82534193992615
556,1797804424,-0.60230815410614,0.60496330261230,50.42219161987305,-0.08460979908705,-0.10831778496504,10.02636146545410,1.30417442321777,1.74781286716461,0.74688547849655
557,1797812757,-0.60219842195511,0.60654258728027,50.42214965820312,-0.06648075580597,-0.11458138376474,10.02180862426758,1.33913779258728,1.98756206035614,0.82961946725845
558,1797821090,-0.60111099481583,0.60738986730576,50.42182159423828,-0.10544594377279,-0.10964157432318,10.00649642944336,1.45604133605957,1.90231788158417,0.79939460754395
559,1797829423,-0.60131454467773,0.60802555084229,50.42272567749023,-0.09938742965460,-0.10020666569471,10.03227329254150,1.30017864704132,1.87368142604828,0.94134885072708
560,1797837756,-0.60166382789612,0.60758101940155,50.42266464233398,-0.08761855214834,-0.10043517500162,10.03296947479248,1.28255605697632,1.74763357639313,0.82764714956284
561,1797846089,-0.60177844762802,0.60709023475647,50.42286300659180,-0.12053327262402,-0.11045137792826,10.00466918945312,1.31157696247101,1.73943722248077,0.85395306348801
562,1797854422,-0.60137391090393,0.60778146982193,50.42355346679688,-0.08453282713890,-0.12389360368252,10.00702095031738,1.37330722808838,1.88400375843048,0.91844958066940
563,1797862755,-0.60151219367981,0.60708922147751,50.42325592041016,-0.09797977656126,-0.11952539533377,10.00962162017822,1.30888736248016,1.71546208858490,0.79560375213623
564,1797871088,-0.60145515203476,0.60637384653091,50.42355346679688,-0.10629339516163,-0.08864397555590,10.03686428070068,1.33158159255981,1.71425819396973,0.86601722240448
565,1797879421,-0.60161262750626,0.60540276765823,50.42336273193359,-0.10838043689728,-0.09078432619572,9.97768878936768,1.30686402320862,1.68172812461853,0.80820596218109
566,1797887754,-0.60123085975647,0.60549545288086,50.42326736450195,-0.12774863839149,-0.11379666626453,10.01011276245117,1.37159097194672,1.81200206279755,0.82244741916656
567,1797896087,-0.60158997774124,0.60433375835419,50.42331314086914,-0.12271875888109,-0.11671069264412,10.00082206726074,1.28242790699005,1.65946936607361,0.83599740266800
568,1797904420,-0.60242986679077,0.60453373193741,50.42331314086914,-0.10525069385767,-0.10979361832142,10.00525665283203,1.22346389293671,1.82473242282867,0.84908622503281
569,1797912753,-0.60260659456253,0.60493564605713,50.42329025268555,-0.09235669672489,-0.08993744850159,9.99477767944336,1.30440509319305,1.84786224365234,0.83277004957199
570,1797921086,-0.60305285453796,0.60525619983673,50.42362976074219,-0.10067124664783,-0.11335086077452,10.00551509857178,1.27187478542328,1.83802616596222,0.88535594940186
571,1797929419,-0.60341477394104,0.60495626926422,50.42361068725586,-0.08917511254549,-0.10239965468645,10.02483749389648,1.28145456314087,1.76297652721405,0.83015733957291
572,1797937752,-0.60433417558670,0.60523933172226,50.42372512817383,-0.08666216582060,-0.08721490949392,10.01067256927490,1.21467804908752,1.83287763595581,0.85338944196701
573,1797946085,-0.60386347770691,0.60557109117508,50.42371749877930,-0.08071851730347,-0.08652101457119,10.00249767303467,1.38152956962585,1.83882033824921,0.83277004957199
574,1797954418,-0.60415667295456,0.60405755043030,50.42332077026367,-0.09188245981932,-0.11096267402172,10.00441646575928,1.29059886932373,1.61948549747467,0.78003031015396
575,1797962751,-0.60412716865540,0.60438120365143,50.42337417602539,-0.08571046590805,-0.09888454526663,10.04468536376953,1.32884097099304,1.83802628517151,0.83866125345230
576,1797971084,-0.60401600599289,0.60353881120682,50.42335128784180,-0.10402058809996,-0.09605385363102,10.00688076019287,1.33854866027832,1.69965815544128,0.84419393539429
577,1797979417,-0.60408264398575,0.60325086116791,50.42345046997070,-0.10369263589382,-0.09866818785667,10.00552845001221,1.31810843944550,1.76453900337219,0.84368163347244
578,1797987750,-0.60422807931900,0.60330688953400,50.42257308959961,-0.09849955886602,-0.11013695597649,9.99216938018799,1.30827271938324,1.80859565734863,0.70682489871979
579,1797996083,-0.60427504777908,0.60350936651230,50.42292785644531,-0.11531145125628,-0.11519189178944,9.99301815032959,1.31938922405243,1.82224774360657,0.87459808588028
580,1798004416,-0.60432159900665,0.60392683744431,50.42308044433594,-0.11207602918148,-0.09033731371164,10.01817893981934,1.32005536556244,1.84980905056000,0.85671925544739
581,1798012749,-0.60504072904587,0.60435324907303,50.42318344116211,-0.10262042284012,-0.09862235188484,10.00566387176514,1.23944723606110,1.84980881214142,0.84506481885910
582,1798021082,-0.60507100820541,0.60558480024338,50.42378997802734,-0.09478263556957,-0.08859944343567,10.02740097045898,1.32041394710541,1.94727110862732,0.89916205406189
583,1798029415,-0.60522788763046,0.60522365570068,50.42356109619141,-0.09160782396793,-0.10801830142736,10.01010227203369,1.30645394325256,1.75688028335571,0.80318546295166
584,1798037748,-0.60556364059448,0.60543346405029,50.42334365844727,-0.08945664018393,-0.08037199079990,10.01053619384766,1.28555285930634,1.82463002204895,0.80692523717880
585,1798046081,-0.60576641559601,0.60571396350861,50.42282104492188,-0.11226794868708,-0.10104948282242,9.99424076080322,1.30233037471771,1.83369743824005,0.77034819126129
586,1798054414,-0.60553872585297,0.60574644804001,50.42386627197266,-0.10204883664846,-0.09854494035244,9.98907089233398,1.35068988800049,1.80362653732300,0.90579622983932
587,1798062747,-0.60546827316284,0.60555219650269,50.42358398437500,-0.08413126319647,-0.10096600651741,9.97471046447754,1.33514189720154,1.77726924419403,0.79772973060608
588,1798071080,-0.60524624586105,0.60553872585297,50.42282867431641,-0.10518537461758,-0.10518689453602,9.99453735351562,1.35340487957001,1.79863178730011,0.69440186023712
589,1798079413,-0.60539579391479,0.60501658916473,50.42211532592773,-0.09783140569925,-0.09446314722300,10.00874900817871,1.30788838863373,1.73833560943604,0.74545109272003
590,1798087746,-0.60454541444778,0.60581451654434,50.42187881469727,-0.09465986490250,-0.12976405024529,9.99815177917480,1.42750704288483,1.89586329460144,0.85052073001862
591,1798096079,-0.60501617193222,0.60656106472015,50.42260742187500,-0.12164494395256,-0.08720856904984,10.00061798095703,1.26795601844788,1.88705193996429,0.92014026641846
592,1798104412,-0.60451334714890,0.60743463039398,50.42255401611328,-0.12780654430389,-0.11722145974636,10.03672981262207,1.38503873348236,1.90498208999634,0.82242190837860
593,1798112745,-0.60431629419327,0.60691618919373,50.42240142822266,-0.10632941871881,-0.08475948870182,9.98195838928223,1.34951162338257,1.73754155635834,0.81289333105087
594,1798121078,-0.60378414392471,0.60651451349258,50.42263412475586,-0.12181171774864,-0.11406301707029,10.01330280303955,1.38888061046600,1.75244903564453,0.84614068269730
595,1798129411,-0.60423141717911,0.60774248838425,50.42338180541992,-0.10103853046894,-0.08611924201250,9.98372364044189,1.27095270156860,1.94565737247467,0.92387980222702
596,1798137744,-0.60434639453888,0.60800468921661,50.42292785644531,-0.10008504241705,-0.09767936170101,10.02325344085693,1.31139755249023,1.83108472824097,0.79048091173172
597,1798146077,-0.60448276996613,0.60682904720306,50.42306137084961,-0.09797345846891,-0.08810414373875,9.98957824707031,1.30865669250488,1.65757393836975,0.84583324193954
598,1798154410,-0.60395848751068,0.60615354776382,50.42329025268555,-0.07391861826181,-0.08710676431656,10.05448627471924,1.38752305507660,1.71840775012970,0.85664242506027
599,1798162743,-0.60436791181564,0.60653465986252,50.42352294921875,-0.10204711556435,-0.10707657039165,9.98058795928955,1.27648544311523,1.84547996520996,0.86071521043777
600,1798171076,-0.60401201248169,0.60608178377151,50.42306518554688,-0.09698482602835,-0.09193710237741,10.00545120239258,1.36859405040741,1.74627602100372,0.77644425630569
601,1798179409,-0.60400652885437,0.60537379980087,50.42339324951172,-0.10797575116158,-0.12856201827526,10.01342105865479,1.32517802715302,1.71351563930511,0.87155002355576
602,1798187742,-0.60397726297379,0.60580664873123,50.42366027832031,-0.11619140952826,-0.10446317493916,10.00611400604248,1.32891774177551,1.85185790061951,0.85344070196152
603,1798196075,-0.60310840606689,0.60473775863647,50.42342376708984,-0.12211670726538,-0.11454293876886,9.98997211456299,1.42988908290863,1.67073965072632,0.80249392986298
604,1798204408,-0.60321289300919,0.60542714595795,50.42412567138672,-0.08616583794355,-0.08795449882746,9.99474906921387,1.31211483478546,1.88310754299164,0.89557623863220
605,1798212741,-0.60247904062271,0.60415542125702,50.42341613769531,-0.11089376360178,-0.07409946620464,9.99655628204346,1.41534030437469,1.64796864986420,0.74678307771683
606,1798221074,-0.60260808467865,0.60369670391083,50.42321395874023,-0.09987442940474,-0.09835207462311,9.99077320098877,1.30893850326538,1.74484145641327,0.81791371107101
607,1798229407,-0.60226792097092,0.60386765003204,50.42267608642578,-0.11434439569712,-0.10118452459574,10.02272891998291,1.36715996265411,1.82025015354156,0.76732569932938
608,1798237740,-0.60171008110046,0.60443758964539,50.42338562011719,-0.10030950605869,-0.09281343221664,10.03114986419678,1.39169824123383,1.86714959144592,0.92446887493134
609,1798246073,-0.60120683908463,0.60313659906387,50.42266845703125,-0.08174055069685,-0.07080440223217,10.01604557037354,1.38683152198792,1.64430570602417,0.74506688117981
610,1798254406,-0.60097354650497,0.60334765911102,50.42328643798828,-0.11359868943691,-0.11242718994617,10.00079345703125,1.35281598567963,1.82514250278473,0.89035087823868
611,1798262739,-0.60076534748077,0.60284811258316,50.42407608032227,-0.08989020437002,-0.08823835849762,10.02967643737793,1.34920406341553,1.73877108097076,0.92587774991989
612,1798271072,-0.60066825151443,0.60254049301147,50.42434692382812,-0.09925382584333,-0.11093542724848,10.02370643615723,1.33652508258820,1.76264369487762,0.87016677856445
613,1798279405,-0.60049039125443,0.60263872146606,50.42481613159180,-0.09387986361980,-0.09914939105511,10.03232383728027,1.34607923030853,1.81031155586243,0.88868582248688
614,1798287738,-0.60121339559555,0.60223782062531,50.42469787597656,-0.10317173600197,-0.08755062520504,10.01803684234619,1.23842251300812,1.75162935256958,0.81194555759430
615,1798296071,-0.60127592086792,0.60264962911606,50.42509460449219,-0.11171530932188,-0.09858665615320,9.98733139038086,1.31718647480011,1.84829747676849,0.88038694858551
616,1798304404,-0.60109412670135,0.60186094045639,50.42415618896484,-0.10899947583675,-0.08767233788967,9.98887443542480,1.34841012954712,1.70690679550171,0.74189066886902
617,1798312737,-0.60058385133743,0.60215431451797,50.42417907714844,-0.11692593246698,-0.10626263916492,10.02317428588867,1.38734388351440,1.83423554897308,0.83571565151215
618,1798321070,-0.60072755813599,0.60307902097702,50.42436599731445,-0.11573547869921,-0.10942885279655,10.01066398620605,1.30706882476807,1.91120600700378,0.84432202577591
619,1798329403,-0.60045146942139,0.60245943069458,50.42486190795898,-0.11196815222502,-0.11807837337255,10.02889919281006,1.35870707035065,1.72499060630798,0.88965922594070
620,1798337736,-0.60040438175201,0.60295039415359,50.42616271972656,-0.11106919497252,-0.09608694911003,9.99109363555908,1.32896888256073,1.85687828063965,0.94357717037201
621,1798346069,-0.60039556026459,0.60194975137711,50.42620086669922,-0.11181496083736,-0.11212955415249,10.05233097076416,1.32674050331116,1.67921793460846,0.83579242229462
622,1798354402,-0.60056650638580,0.60182893276215,50.42620468139648,-0.09037233144045,-0.08670165389776,10.00261974334717,1.30514764785767,1.78582441806793,0.80513226985931
623,1798362735,-0.60092496871948,0.60154682397842,50.42592239379883,-0.09527093917131,-0.10592117905617,9.99933052062988,1.28222286701202,1.76717722415924,0.79744797945023
624,1798371068,-0.60225874185562,0.60089379549026,50.42583084106445,-0.09638432413340,-0.09521133452654,9.99751186370850,1.16544771194458,1.72055935859680,0.81094664335251
625,1798379401,-0.60217523574829,0.60168784856796,50.42493820190430,-0.08288170397282,-0.10955546051264,10.03462982177734,1.33665335178375,1.89576089382172,0.72670149803162
626,1798387734,-0.60157424211502,0.60140436887741,50.42589569091797,-0.09813193976879,-0.09207525104284,10.02535724639893,1.39605247974396,1.76553797721863,0.92103660106659
627,1798396067,-0.60129845142365,0.60115617513657,50.42589950561523,-0.10133746266365,-0.08669763058424,10.00418949127197,1.35939848423004,1.76853477954865,0.83420431613922
628,1798404400,-0.60174721479416,0.60030013322830,50.42642211914062,-0.10443706810474,-0.10618080943823,10.00082302093506,1.27005624771118,1.69812119007111,0.89373189210892
629,1798412733,-0.60099136829376,0.60091739892960,50.42625427246094,-0.11525019258261,-0.07242678850889,10.01046752929688,1.41664659976959,1.87350213527679,0.81261163949966
630,1798421066,-0.60050594806671,0.60048753023148,50.42589187622070,-0.12224096804857,-0.13449537754059,10.01746273040771,1.38416755199432,1.74960589408875,0.76048654317856
631,1798429399,-0.60055959224701,0.59958600997925,50.42651367187500,-0.10632020235062,-0.09502011537552,10.02173042297363,1.31856954097748,1.69036006927490,0.90682077407837
632,1798437732,-0.60138034820557,0.59960484504700,50.42622756958008,-0.10185877978802,-0.09785684943199,9.99578475952148,1.22617900371552,1.80267882347107,0.79854941368103
633,1798446065,-0.60195624828339,0.59998565912247,50.42612075805664,-0.11636192351580,-0.09559428691864,10.01547527313232,1.25676238536835,1.84432744979858,0.82139730453491
634,1798454398,-0.60191154479980,0.60027122497559,50.42579650878906,-0.08153100311756,-0.08948633074760,10.00379943847656,1.33063387870789,1.83497810363770,0.80687397718430
635,1798462731,-0.60239827632904,0.60021746158600,50.42559814453125,-0.09613136202097,-0.09331212192774,10.01158046722412,1.26711046695709,1.79299640655518,0.80984520912170
636,1798471064,-0.60296952724457,0.60040545463562,50.42475509643555,-0.09469738602638,-0.09089262038469,9.98114490509033,1.25763320922852,1.82286262512207,0.73579454421997
637,1798479397,-0.60324388742447,0.60102307796478,50.42474746704102,-0.09337656944990,-0.11514409631491,10.04193115234375,1.29218697547913,1.87370705604553,0.83266758918762
638,1798487730,-0.60211837291718,0.60092288255692,50.42520904541016,-0.08281011134386,-0.08616062253714,10.01872825622559,1.45924305915833,1.78864216804504,0.89485895633698
639,1798496063,-0.60214984416962,0.60039126873016,50.42539596557617,-0.09713688492775,-0.10199888050556,10.00448608398438,1.32215571403503,1.73385334014893,0.85354322195053
640,1798504396,-0.60184079408646,0.60112524032593,50.42649459838867,-0.10232887417078,-0.08359477669001,9.99966239929199,1.36032092571259,1.88746201992035,0.92849045991898
641,1798512729,-0.60226380825043,0.60218966007233,50.42613983154297,-0.10223679989576,-0.10842055827379,10.01016521453857,1.27535831928253,1.92823970317841,0.78925144672394
642,1798521062,-0.60304248332977,0.60211151838303,50.42592620849609,-0.12562039494514,-0.11094286292791,10.02592563629150,1.23189115524292,1.79056286811829,0.85945999622345
643,1798529395,-0.60296630859375,0.60208576917648,50.42543792724609,-0.13490501046181,-0.08086527884007,10.00982189178467,1.33552622795105,1.79594206809998,0.77342188358307
644,1798537728,-0.60254281759262,0.60241919755936,50.42536163330078,-0.13365551829338,-0.08233448863029,9.98766326904297,1.37533080577850,1.84127938747406,0.81919449567795
645,1798546061,-0.60264056921005,0.60162162780762,50.42504501342773,-0.13026204705238,-0.09783487021923,9.99051094055176,1.31482994556427,1.70378196239471,0.79273486137390
646,1798554394,-0.60267376899719,0.60233807563782,50.42463684082031,-0.11638285964727,-0.13084740936756,10.00143146514893,1.32123351097107,1.88669335842133,0.77910828590393
647,1798562727,-0.60293650627136,0.60296034812927,50.42518615722656,-0.10642185062170,-0.08400820940733,9.97289562225342,1.29426157474518,1.87324583530426,0.90064764022827
648,1798571060,-0.60225707292557,0.60308158397675,50.42523956298828,-0.10788026452065,-0.11243607103825,10.00113868713379,1.40619599819183,1.81423079967499,0.83502411842346
649,1798579393,-0.60232329368591,0.60238903760910,50.42525863647461,-0.10162724554539,-0.11417766660452,10.00858497619629,1.31815981864929,1.71579504013062,0.83489596843719
650,1798587726,-0.60211074352264,0.60252618789673,50.42520904541016,-0.07571588456631,-0.10682003945112,9.99571990966797,1.35017752647400,1.81656157970428,0.81922006607056
651,1798596059,-0.60295301675797,0.60276567935944,50.42597961425781,-0.09312927722931,-0.07825849950314,10.01050758361816,1.22325909137726,1.82714033126831,0.92544239759445
652,1798604392,-0.60343176126480,0.60204851627350,50.42566680908203,-0.08833435177803,-0.08997768163681,9.98817825317383,1.26780211925507,1.71528279781342,0.77249968051910
653,1798612725,-0.60306209325790,0.60117763280869,50.42564773559570,-0.07620336115360,-0.10321427136660,10.00110435485840,1.37028467655182,1.69491946697235,0.82726299762726
654,1798621058,-0.60301339626312,0.60106223821640,50.42593383789062,-0.10099817067385,-0.11163910478354,10.00502967834473,1.33060824871063,1.78490233421326,0.87108886241913
655,1798629391,-0.60218906402588,0.60048055648804,50.42615127563477,-0.09238741546869,-0.11730211228132,9.99621295928955,1.42443335056305,1.72908914089203,0.85607898235321
656,1798637724,-0.60204720497131,0.60050225257874,50.42573547363281,-0.10680576413870,-0.09840583056211,9.99391269683838,1.34208357334137,1.80321669578552,0.78471773862839
657,1798646057,-0.60175395011902,0.60081022977829,50.42616653442383,-0.10174494981766,-0.10950357466936,10.01078128814697,1.36055135726929,1.83595168590546,0.88264095783234
658,1798654390,-0.60176175832748,0.60087507963181,50.42634582519531,-0.12745343148708,-0.11320111900568,9.98200130462646,1.32338500022888,1.80844199657440,0.82009094953537
659,1798662723,-0.60134398937225,0.60005533695221,50.42584228515625,-0.11705486476421,-0.09632418304682,10.00045490264893,1.37643206119537,1.70155358314514,0.77168005704880
660,1798671056,-0.60136753320694,0.60015541315079,50.42525100708008,-0.10979312658310,-0.10387741029263,10.00897693634033,1.32341051101685,1.81284749507904,0.74698787927628
661,1798679389,-0.60148888826370,0.59930914640427,50.42528915405273,-0.12667605280876,-0.11147617548704,10.02328109741211,1.31096220016479,1.69786512851715,0.83750867843628
662,1798687722,-0.60144227743149,0.59977883100510,50.42567825317383,-0.10873102396727,-0.10391142964363,9.99610137939453,1.33068513870239,1.85567450523376,0.86542814970016
663,1798696055,-0.60036343336105,0.59886842966080,50.42535018920898,-0.11510290950537,-0.10536220669746,10.01206779479980,1.45583629608154,1.69143593311310,0.79140299558640
664,1798704388,-0.60133820772171,0.59857672452927,50.42501449584961,-0.07817590236664,-0.09822624176741,9.99842166900635,1.20850527286530,1.76510262489319,0.77198749780655
665,1798712721,-0.60112076997757,0.59745484590530,50.42452621459961,-0.09003645926714,-0.12670259177685,10.04448890686035,1.35186803340912,1.66623151302338,0.77170556783676
666,1798721054,-0.60153132677078,0.59675931930542,50.42450714111328,-0.09765700250864,-0.10859697312117,10.02673721313477,1.27566564083099,1.71574389934540,0.82057768106461
667,1798729387,-0.60166543722153,0.59573620557785,50.42499542236328,-0.08911581337452,-0.09469571709633,10.01223278045654,1.30904114246368,1.67634916305542,0.89027392864227
668,1798737720,-0.60102343559265,0.59612673521042,50.42591476440430,-0.10389769077301,-0.09959547221661,10.01456928253174,1.40181589126587,1.84729874134064,0.89457720518112
669,1798746053,-0.60063934326172,0.59571933746338,50.42552947998047,-0.09999947994947,-0.11185574531555,10.05994319915771,1.37161660194397,1.74986207485199,0.78382122516632
670,1798754386,-0.60103571414948,0.59528261423111,50.42578506469727,-0.09776418656111,-0.11308541893959,10.01335716247559,1.27717697620392,1.74824833869934,0.87708258628845
671,1798762719,-0.60171186923981,0.59603548049927,50.42587280273438,-0.10919085890055,-0.09478193521500,9.99393367767334,1.24421155452728,1.88958787918091,0.84391224384308
672,1798771052,-0.60188508033752,0.59596055746078,50.42560577392578,-0.12324402481318,-0.08829485625029,10.01453781127930,1.30437922477722,1.79135715961456,0.79701256752014
673,1798779385,-0.60218435525894,0.59601050615311,50.42553329467773,-0.11851178109646,-0.07686348259449,10.01204013824463,1.29024016857147,1.80483007431030,0.82413798570633
674,1798787718,-0.60199850797653,0.59626448154449,50.42555999755859,-0.13507381081581,-0.07783890515566,10.00434970855713,1.34787237644196,1.83159720897675,0.80682283639908
675,1798796051,-0.60188472270966,0.59594112634659,50.42596054077148,-0.12266308069229,-0.10085190087557,9.98936271667480,1.33847188949585,1.75900650024414,0.87900370359421
676,1798804384,-0.60250240564346,0.59587550163269,50.42570495605469,-0.10914700478315,-0.11934273689985,9.97901439666748,1.25133228302002,1.79238188266754,0.81619769334793
677,1798812717,-0.60287809371948,0.59625875949860,50.42584609985352,-0.10886918753386,-0.07304193824530,10.02047443389893,1.27953350543976,1.84466063976288,0.84995722770691
678,1798821050,-0.60197699069977,0.59654766321182,50.42669677734375,-0.08842074871063,-0.09077839553356,10.03753280639648,1.43245053291321,1.83518302440643,0.93169212341309
679,1798829383,-0.60235518217087,0.59611004590988,50.42742919921875,-0.09326959401369,-0.08913640677929,9.98909187316895,1.27940547466278,1.74530291557312,0.91983288526535
680,1798837716,-0.60331529378891,0.59620034694672,50.42693710327148,-0.11095813661814,-0.10531644523144,9.98075675964355,1.21024692058563,1.81105434894562,0.77818608283997
681,1798846049,-0.60387867689133,0.59524035453796,50.42721939086914,-0.10561817139387,-0.12210994958878,9.98946571350098,1.25776124000549,1.68405902385712,0.86245685815811
682,1798854382,-0.60421830415726,0.59506285190582,50.42782211303711,-0.08600295335054,-0.07551695406437,9.99563026428223,1.28365731239319,1.77739727497101,0.90597540140152
683,1798862715,-0.60449838638306,0.59554064273834,50.42846298217773,-0.10978849977255,-0.08002173900604,10.00977516174316,1.29108560085297,1.85664772987366,0.90940791368484
684,1798871048,-0.60442703962326,0.59461224079132,50.42869186401367,-0.11749893426895,-0.07864409685135,10.02901458740234,1.33350265026093,1.68861842155457,0.85167324542999
685,1798879381,-0.60446417331696,0.59558540582657,50.42869949340820,-0.11037600785494,-0.07833329588175,9.99484539031982,1.32056760787964,1.91535580158234,0.83589494228363
686,1798887714,-0.60433959960938,0.59581422805786,50.42856979370117,-0.13509067893028,-0.09397827833891,10.00007343292236,1.33998310565948,1.82824170589447,0.81499373912811
687,1798896047,-0.60515165328979,0.59522086381912,50.42943572998047,-0.12806573510170,-0.09595386683941,9.98136138916016,1.22699880599976,1.72706556320190,0.93409997224808
688,1798904380,-0.60551404953003,0.59480094909668,50.42978668212891,-0.10537800192833,-0.09297059476376,9.99977016448975,1.28163385391235,1.75057947635651,0.87149882316589
689,1798912713,-0.60533493757248,0.59425115585327,50.42957687377930,-0.11259786039591,-0.10722653567791,10.00900554656982,1.34684765338898,1.73287975788116,0.80605441331863
690,1798921046,-0.60464680194855,0.59505891799927,50.43004608154297,-0.09927245974541,-0.11131338030100,10.01271915435791,1.40675950050354,1.89506936073303,0.91166198253632
691,1798929379,-0.60481882095337,0.59376740455627,50.43000793457031,-0.10050283372402,-0.09583645313978,9.98743343353271,1.30471229553223,1.64420330524445,0.82700675725937
692,1798937712,-0.60499036312103,0.59422719478607,50.42948150634766,-0.11413619667292,-0.08625882118940,9.99607658386230,1.30514788627625,1.85754442214966,0.74995923042297
693,1798946045,-0.60598719120026,0.59377968311310,50.42924118041992,-0.09370865672827,-0.09705007076263,9.98376274108887,1.20676326751709,1.74578917026520,0.80172550678253
