sep=,
DeviceTag:,secondfloor
FirmwareVersion:,3.0.0
AppVersion:,2023.6.0
StartTime: ,2025-04-03_11:56:43_000 PDT
© Movella Technologies B. V. 2005-2025

PacketCounter,SampleTimeFine,Euler_X,Euler_Y,Euler_Z,Acc_X,Acc_Y,Acc_Z,Gyr_X,Gyr_Y,Gyr_Z
0,1499458488,-3.36028194427490,0.11655983328819,-85.31980133056641,0.00000000000000,0.00000000000000,0.00000000000000,0.00000000000000,0.00000000000000,0.00000000000000
1,1499466821,-3.40544247627258,0.11644094437361,-85.32251739501953,0.04917014762759,-0.57587826251984,9.75094795227051,-5.41958808898926,0.00654443679377,-0.32796466350555
2,1499475154,-3.44902229309082,0.11601585894823,-85.32639312744141,0.00160442607012,-0.58378189802170,9.77429962158203,-5.22776269912720,-0.02435913681984,-0.46738290786743
3,1499483487,-3.49779748916626,0.06979697197676,-85.31474304199219,0.02904841676354,-0.58373433351517,9.74092388153076,-5.23928976058960,0.10984665155411,-0.36546391248703
4,1499491820,-3.54301118850708,0.07165500521660,-85.31796264648438,0.01052136719227,-0.58556801080704,9.74599552154541,-5.42619705200195,0.24590949714184,-0.37168818712234
5,1499500153,-3.58431005477905,0.02950001507998,-85.31459045410156,-0.00249346741475,-0.56779700517654,9.76948356628418,-5.39338445663452,0.06246030703187,-0.42957630753517
6,1499508486,-3.62806129455566,0.02966010011733,-85.31794738769531,-0.02818331867456,-0.56276482343674,9.77094650268555,-5.25076436996460,0.04437666013837,-0.40175926685333
7,1499516819,-3.64889192581177,0.00556767126545,-85.32060241699219,-0.04841772839427,-0.59215337038040,9.76851844787598,-5.31638813018799,0.16384145617485,-0.35547441244125
8,1499525152,-3.69369840621948,0.00596275506541,-85.32288360595703,-0.05772059410810,-0.58147537708282,9.78103446960449,-5.37701797485352,0.06351049989462,-0.26894947886467
9,1499533485,-3.70665287971497,0.01599182002246,-85.33180236816406,-0.04313991963863,-0.59245365858078,9.74574661254883,-5.35570669174194,0.08069765567780,-0.45083618164062
10,1499541818,-3.75008773803711,0.01537112705410,-85.33506011962891,-0.05414447188377,-0.56741350889206,9.76574134826660,-5.21142053604126,-0.04902564361691,-0.39243566989899
11,1499550151,-3.76408791542053,0.03955470025539,-85.33524322509766,-0.05415565520525,-0.57822436094284,9.74695777893066,-5.30329942703247,0.11292035877705,-0.33421456813812
12,1499558484,-3.80908632278442,0.03979631885886,-85.33805084228516,-0.02860349230468,-0.59318608045578,9.76475238800049,-5.40001821517944,0.05060091987252,-0.33459874987602
13,1499566817,-3.82030701637268,0.06514764577150,-85.34029388427734,0.00982688367367,-0.54922991991043,9.73561954498291,-5.35081338882446,-0.02584476210177,-0.43011423945427
14,1499575150,-3.86385726928711,0.06440997868776,-85.34392547607422,0.00993342697620,-0.57372546195984,9.76242828369141,-5.22456121444702,-0.06016783788800,-0.44018065929413
15,1499583483,-3.87503790855408,0.07922808080912,-85.34106445312500,0.00448790565133,-0.59911775588989,9.74709892272949,-5.43610858917236,0.07032389193773,-0.35570487380028
16,1499591816,-3.91980004310608,0.08004984259605,-85.34346771240234,0.03732463717461,-0.58481496572495,9.74328231811523,-5.37225294113159,0.11899094283581,-0.28157728910446
17,1499600149,-3.93176507949829,0.08522201329470,-85.34401702880859,0.01526190899312,-0.57109910249710,9.77793693542480,-5.23611307144165,0.00498196855187,-0.37091976404190
18,1499608482,-3.97583389282227,0.08571527898312,-85.34635162353516,0.00972665380687,-0.58061742782593,9.79395771026611,-5.28864765167236,0.07795691490173,-0.27527618408203
19,1499616815,-3.98981451988220,0.08490760624409,-85.34738922119141,-0.00141056021675,-0.56811499595642,9.80482578277588,-5.42312288284302,0.14524552226067,-0.29443565011024
20,1499625148,-4.03540945053101,0.08554922789335,-85.34941101074219,-0.01805730536580,-0.55669063329697,9.75709342956543,-5.47063732147217,0.09391459822655,-0.23749519884586
21,1499633481,-4.04802799224854,0.08233945071697,-85.35017395019531,-0.03459415957332,-0.56719553470612,9.79870510101318,-5.28864812850952,0.01476660743356,-0.35624280571938
22,1499641814,-4.09171724319458,0.08256442099810,-85.35384368896484,-0.04193196073174,-0.57755893468857,9.75242805480957,-5.24279880523682,0.05818273872137,-0.43615922331810
23,1499650147,-4.10444450378418,0.08200584352016,-85.35452270507812,-0.05666042491794,-0.56975454092026,9.72665023803711,-5.39527940750122,0.09826901555061,-0.35544875264168
24,1499658480,-4.15015125274658,0.08139774948359,-85.35804748535156,-0.06220715865493,-0.56378632783890,9.77959537506104,-5.48536539077759,-0.04203296080232,-0.42739912867546
25,1499666813,-4.16231966018677,0.08214776962996,-85.35632324218750,-0.04743143171072,-0.56769514083862,9.76091480255127,-5.23455047607422,-0.08903508633375,-0.30819049477577
26,1499675146,-4.20625448226929,0.08156786113977,-85.35842895507812,-0.03083087503910,-0.56577366590500,9.75336360931396,-5.27230596542358,-0.05189444124699,-0.25860130786896
27,1499683479,-4.21946859359741,0.08541475981474,-85.35643768310547,-0.01435453630984,-0.56072318553925,9.76970577239990,-5.35273456573486,0.04911529645324,-0.35088938474655
28,1499691812,-4.26420307159424,0.08537270128727,-85.35828399658203,0.00761283654720,-0.57753866910934,9.77271080017090,-5.36915349960327,0.00984867382795,-0.22184488177299
29,1499700145,-4.27658653259277,0.08896688371897,-85.35960388183594,0.00941461883485,-0.58510637283325,9.76676559448242,-5.23967361450195,0.07275723665953,-0.26369854807854
30,1499708478,-4.32060050964355,0.08979505300522,-85.36280822753906,0.03126145526767,-0.58853554725647,9.75542926788330,-5.28237295150757,0.12828890979290,-0.37775874137878
31,1499716811,-4.33537769317627,0.09147293120623,-85.36284637451172,0.05312120541930,-0.58941471576691,9.78629875183105,-5.41021347045898,0.05119005218148,-0.25744870305061
32,1499725144,-4.38024806976318,0.09192562848330,-85.36550903320312,0.02733213081956,-0.54961550235748,9.78894519805908,-5.38570022583008,0.07821307331324,-0.31449154019356
33,1499733477,-4.39496850967407,0.09158819168806,-85.36626434326172,0.00161269458476,-0.56768339872360,9.76257514953613,-5.27427816390991,0.11041015386581,-0.26321187615395
34,1499741810,-4.43899250030518,0.09167441725731,-85.36808013916016,0.01069719437510,-0.58482575416565,9.78017902374268,-5.28406333923340,0.02780425548553,-0.21846380829811
35,1499750143,-4.45413064956665,0.09157175570726,-85.36856842041016,-0.02610857971013,-0.58164536952972,9.78918933868408,-5.35475873947144,0.23146302998066,-0.25160861015320
36,1499758476,-4.49793577194214,0.09174335747957,-85.37150573730469,-0.05923042818904,-0.58640491962433,9.75032901763916,-5.25785970687866,0.04778335615993,-0.35104310512543
37,1499766809,-4.51279163360596,0.09051092714071,-85.37124633789062,-0.05386715009809,-0.56314718723297,9.76364803314209,-5.24651193618774,0.08456538617611,-0.28982502222061
38,1499775142,-4.55656051635742,0.09171048551798,-85.37379455566406,-0.05953446030617,-0.56177484989166,9.71585369110107,-5.25475978851318,0.16827270388603,-0.29507598280907
39,1499783475,-4.57239913940430,0.09164091199636,-85.37324523925781,-0.03405975550413,-0.56250858306885,9.79443836212158,-5.32519960403442,0.04850055277348,-0.19208115339279
40,1499791808,-4.61765670776367,0.09146140515804,-85.37609863281250,-0.02674124576151,-0.57847434282303,9.77356529235840,-5.43339443206787,0.00500758318231,-0.34530553221703
41,1499800141,-4.63365936279297,0.09246799349785,-85.37553405761719,-0.02127263508737,-0.58662682771683,9.78408622741699,-5.34827804565430,0.08500084280968,-0.22261333465576
42,1499808474,-4.67801237106323,0.09264878183603,-85.37805175781250,-0.00856716092676,-0.57157361507416,9.76426410675049,-5.32530260086060,0.04537562280893,-0.30196624994278
43,1499816807,-4.69450092315674,0.09428077936172,-85.37895202636719,0.01145033072680,-0.57358372211456,9.76402091979980,-5.35498905181885,0.15134172141552,-0.26733580231667
44,1499825140,-4.73846530914307,0.09470339864492,-85.38181304931641,0.03507811576128,-0.57072782516479,9.77861785888672,-5.27783823013306,0.07895587384701,-0.34077176451683
45,1499833473,-4.75504446029663,0.09432005137205,-85.38102722167969,0.03694034367800,-0.59180665016174,9.79967021942139,-5.34494829177856,-0.03626975789666,-0.31833371520042
46,1499841806,-4.80023813247681,0.09514287114143,-85.38403320312500,0.03134951367974,-0.56736081838608,9.77658748626709,-5.42555570602417,0.12828889489174,-0.35621711611748
47,1499850139,-4.81642246246338,0.09453883767128,-85.38576507568359,0.02388243563473,-0.56662654876709,9.79111480712891,-5.26316213607788,0.04893599823117,-0.31182771921158
48,1499858472,-4.86115741729736,0.09536314010620,-85.38867187500000,-0.01278477255255,-0.58578956127167,9.76089191436768,-5.37317514419556,0.12813521921635,-0.34474202990532
49,1499866805,-4.87799644470215,0.09443082660437,-85.38861083984375,0.00535820098594,-0.57729083299637,9.77025699615479,-5.33872413635254,0.07572849094868,-0.26377540826797
50,1499875138,-4.92264223098755,0.09534649550915,-85.39191436767578,-0.05156273022294,-0.57364100217819,9.76106739044189,-5.36177635192871,0.14386233687401,-0.39028406143188
51,1499883471,-4.93864154815674,0.09568843990564,-85.39317321777344,-0.06286618858576,-0.56042295694351,9.78530025482178,-5.20780992507935,0.23556132614613,-0.37524855136871
52,1499891804,-4.98356246948242,0.09580967575312,-85.39612579345703,-0.06847710907459,-0.58230054378510,9.78243064880371,-5.39617633819580,0.04645141586661,-0.35959824919701
53,1499900137,-5.00059652328491,0.09574052691460,-85.39575195312500,-0.04845000803471,-0.57128793001175,9.77362728118896,-5.32909250259399,0.09460616856813,-0.30772942304611
54,1499908470,-5.04344987869263,0.09541842341423,-85.39867401123047,-0.06129983067513,-0.58076876401901,9.77124977111816,-5.15025424957275,-0.00727444235235,-0.36075091362000
55,1499916803,-5.06121635437012,0.09507413953543,-85.40015411376953,-0.01729601249099,-0.58905136585236,9.75796604156494,-5.39953231811523,-0.01198746263981,-0.31172525882721
56,1499925136,-5.10625123977661,0.09494159370661,-85.40259552001953,0.01202098093927,-0.59530496597290,9.76857852935791,-5.41272401809692,0.01243571098894,-0.30624383687973
57,1499933469,-5.12342977523804,0.09616848081350,-85.40499877929688,-0.00649325363338,-0.56660574674606,9.77160453796387,-5.30309438705444,0.14993290603161,-0.36044350266457
58,1499941802,-5.16773176193237,0.09612408280373,-85.40769195556641,0.01540373452008,-0.57738631963730,9.76369667053223,-5.32430315017700,0.02465370297432,-0.33388155698776
59,1499950135,-5.18591117858887,0.09591234475374,-85.40826416015625,0.01353829540312,-0.57043147087097,9.76761436462402,-5.40790796279907,-0.00107579783071,-0.29026049375534
60,1499958468,-5.23024177551270,0.09709268808365,-85.40990447998047,0.05734054744244,-0.56131577491760,9.76250839233398,-5.32952833175659,0.15905158221722,-0.19454011321068
61,1499966801,-5.24809217453003,0.09775371849537,-85.40911102294922,0.03518526256084,-0.56619125604630,9.74385356903076,-5.36236572265625,0.13715142011642,-0.23936505615711
62,1499975134,-5.29233074188232,0.09832766652107,-85.41195678710938,0.02037800848484,-0.57761567831039,9.78171443939209,-5.31969261169434,0.10211115330458,-0.34517744183540
63,1499983467,-5.30974769592285,0.09842456877232,-85.41336059570312,-0.01087944861501,-0.58453142642975,9.76660442352295,-5.31490278244019,0.14096795022488,-0.32450675964355
64,1499991800,-5.35456562042236,0.09989775717258,-85.41522979736328,-0.04228623956442,-0.56877374649048,9.73984050750732,-5.39049053192139,0.19890736043453,-0.22138382494450
65,1500000133,-5.37192583084106,0.09981280565262,-85.41674804687500,-0.04067016020417,-0.57926124334335,9.75757884979248,-5.29694652557373,0.12442114204168,-0.25281250476837
66,1500008466,-5.41643142700195,0.10033446550369,-85.41919708251953,-0.07928293943405,-0.58359247446060,9.76461124420166,-5.35429763793945,0.09122510254383,-0.30291393399239
67,1500016799,-5.43391799926758,0.10023351013660,-85.41921997070312,-0.07031874358654,-0.57034319639206,9.78544998168945,-5.30844783782959,0.10136833041906,-0.37309694290161
68,1500025132,-5.47931718826294,0.09989646822214,-85.42124176025391,-0.05018525198102,-0.58514696359634,9.78645229339600,-5.46251773834229,-0.01506116893142,-0.26157256960869
69,1500033465,-5.49678707122803,0.09969882667065,-85.42122650146484,-0.05022731423378,-0.57526284456253,9.79614067077637,-5.30189085006714,0.01412625238299,-0.23939064145088
70,1500041798,-5.54029178619385,0.09904655814171,-85.42382812500000,-0.02450082264841,-0.59066998958588,9.77325153350830,-5.23788022994995,-0.04526034742594,-0.33946543931961
71,1500050131,-5.55817747116089,0.09923139959574,-85.42528533935547,0.00289426255040,-0.57297015190125,9.78528022766113,-5.34958457946777,0.04852617159486,-0.41553977131844
72,1500058464,-5.60234785079956,0.09906085580587,-85.42761230468750,0.01567049324512,-0.56241935491562,9.75653457641602,-5.31846237182617,0.00925954524428,-0.30347743630409
73,1500066797,-5.61958742141724,0.09922797232866,-85.42803955078125,0.03941877186298,-0.56775784492493,9.78192520141602,-5.26772069931030,0.05587745085359,-0.43659460544586
74,1500075130,-5.66409063339233,0.09951058030128,-85.43055725097656,0.03574636951089,-0.57927644252777,9.75740242004395,-5.35965013504028,0.06545717269182,-0.32158669829369
75,1500083463,-5.68249416351318,0.09951613098383,-85.43017578125000,0.03568344935775,-0.59160411357880,9.77500438690186,-5.41710281372070,0.06927369534969,-0.39855748414993
76,1500091796,-5.72690105438232,0.09987897425890,-85.43347167968750,0.02452084980905,-0.57207137346268,9.77801990509033,-5.34996795654297,0.08479592204094,-0.41935625672340
77,1500100129,-5.74462175369263,0.09987705200911,-85.43293762207031,0.00057386828121,-0.57190769910812,9.79821872711182,-5.33039903640747,0.09880691021681,-0.34023392200470
78,1500108462,-5.78932619094849,0.10097949206829,-85.43584442138672,-0.03065847046673,-0.59143483638763,9.78232765197754,-5.38798046112061,0.17016819119453,-0.37079167366028
79,1500116795,-5.80663490295410,0.10066401958466,-85.43486785888672,-0.04922628775239,-0.56922668218613,9.77090740203857,-5.28624010086060,0.06453506648540,-0.23962114751339
80,1500125128,-5.85061502456665,0.10042048990726,-85.43680572509766,-0.04560830071568,-0.57157468795776,9.77630138397217,-5.30417013168335,-0.00163931096904,-0.27455899119377
81,1500133461,-5.86803102493286,0.10105205327272,-85.43896484375000,-0.07311120629311,-0.58703976869583,9.75512981414795,-5.30125045776367,0.16435374319553,-0.33482930064201
82,1500141794,-5.91223716735840,0.10028216987848,-85.44075775146484,-0.05486305430532,-0.59349560737610,9.76760292053223,-5.33370351791382,-0.06421489268541,-0.26846280694008
83,1500150127,-5.92986679077148,0.09946682304144,-85.44145965576172,-0.03099693544209,-0.59427785873413,9.77680206298828,-5.33052730560303,-0.03229954838753,-0.39046341180801
84,1500158460,-5.97378635406494,0.09986019134521,-85.44483947753906,-0.02008189074695,-0.57756197452545,9.74310302734375,-5.30127573013306,0.09255703538656,-0.44366413354874
85,1500166793,-5.99134969711304,0.09998633712530,-85.44601440429688,-0.01103955786675,-0.57897543907166,9.76142787933350,-5.31774520874023,0.05090828984976,-0.28106498718262
86,1500175126,-6.03597164154053,0.10024033486843,-85.44757080078125,0.01072856038809,-0.55155551433563,9.76156997680664,-5.38836479187012,0.05559569969773,-0.23009268939495
87,1500183459,-6.05379104614258,0.10123925656080,-85.44864654541016,0.02530813589692,-0.57194066047668,9.76025962829590,-5.35583353042603,0.15976879000664,-0.30030128359795
88,1500191792,-6.09757566452026,0.10154853761196,-85.45075225830078,0.02329652383924,-0.57203835248947,9.75666618347168,-5.29010772705078,0.06794176250696,-0.29692023992538
89,1500200125,-6.11586666107178,0.10104074329138,-85.45101928710938,0.02881941758096,-0.59051275253296,9.75728607177734,-5.42944955825806,-0.00496916146949,-0.28313973546028
90,1500208458,-6.16022491455078,0.10194254666567,-85.45384979248047,0.03054780699313,-0.59434056282043,9.77912139892578,-5.36093091964722,0.14939503371716,-0.37601700425148
91,1500216791,-6.17635488510132,0.10182452946901,-85.45407867431641,-0.01366394851357,-0.57045328617096,9.76990890502930,-5.17545843124390,0.07255231589079,-0.37217485904694
92,1500225124,-6.22021484375000,0.10269387811422,-85.45657348632812,-0.01373332832009,-0.58327704668045,9.74520301818848,-5.30529785156250,0.14158268272877,-0.33854338526726
93,1500233457,-6.23725032806396,0.10264179110527,-85.45711517333984,-0.04319272190332,-0.59128332138062,9.77406883239746,-5.29213142395020,0.08543626964092,-0.32750356197357
94,1500241790,-6.28100347518921,0.10197477787733,-85.45883178710938,-0.05257606506348,-0.55442821979523,9.79345989227295,-5.29520559310913,-0.05127970501781,-0.26864215731621
95,1500250123,-6.29894161224365,0.10256239026785,-85.45929718017578,-0.05435429140925,-0.57891237735748,9.77521514892578,-5.40729284286499,0.15633648633957,-0.34284651279449
96,1500258456,-6.34248876571655,0.10296665877104,-85.46141815185547,-0.04347002506256,-0.59100639820099,9.75974082946777,-5.27432918548584,0.08128676563501,-0.30304199457169
97,1500266789,-6.35956907272339,0.10251905769110,-85.46185302734375,-0.04721976444125,-0.59102964401245,9.75801277160645,-5.32179260253906,0.01899295486510,-0.39238449931145
98,1500275122,-6.40343666076660,0.10142815858126,-85.46417999267578,-0.03255745768547,-0.58054548501968,9.76265811920166,-5.31505584716797,-0.09420915693045,-0.34922444820404
99,1500283455,-6.42018413543701,0.10117094963789,-85.46446228027344,-0.00688031734899,-0.58536493778229,9.77530193328857,-5.28915977478027,0.01748171448708,-0.31036767363548
100,1500291788,-6.46427297592163,0.10135024040937,-85.46666717529297,0.01141094323248,-0.58690762519836,9.74778652191162,-5.34679222106934,0.05708131939173,-0.31869229674339
101,1500300121,-6.48149299621582,0.10107618570328,-85.46697998046875,0.02593221515417,-0.58860570192337,9.81211090087891,-5.35824203491211,0.01415186561644,-0.31221190094948
102,1500308454,-6.52503538131714,0.10191992670298,-85.46974945068359,0.04416164383292,-0.58202856779099,9.75035476684570,-5.28478050231934,0.14347814023495,-0.38242053985596
103,1500316787,-6.54074621200562,0.10231222957373,-85.46989440917969,0.03099661879241,-0.55375683307648,9.76018810272217,-5.18798398971558,0.10951366275549,-0.30826729536057
104,1500325120,-6.58532524108887,0.10363644361496,-85.47212982177734,0.01997310668230,-0.58338683843613,9.74137401580811,-5.41310739517212,0.19442483782768,-0.31149470806122
105,1500333453,-6.60254526138306,0.10385308414698,-85.47199249267578,0.01044417917728,-0.55918109416962,9.75459384918213,-5.38997840881348,0.11230562627316,-0.34768763184547
106,1500341786,-6.64675807952881,0.10470514744520,-85.47432708740234,-0.00619262969121,-0.56784462928772,9.76506805419922,-5.37373828887939,0.14124970138073,-0.33336928486824
107,1500350119,-6.66342496871948,0.10458198934793,-85.47286987304688,-0.02090997435153,-0.58560341596603,9.75272083282471,-5.34251451492310,0.06781368702650,-0.22489300370216
108,1500358452,-6.70768928527832,0.10534078627825,-85.47499847412109,-0.03759149089456,-0.57989436388016,9.76809692382812,-5.38375329971313,0.12728993594646,-0.31262174248695
109,1500366785,-6.72399187088013,0.10607269406319,-85.47660827636719,-0.06351810693741,-0.57486051321030,9.78893947601318,-5.31666994094849,0.18704795837402,-0.40024805068970
110,1500375118,-6.76642560958862,0.10550557076931,-85.47904968261719,-0.05078560858965,-0.57691103219986,9.76693725585938,-5.16851711273193,-0.02556300535798,-0.37004885077477
111,1500383451,-6.78160715103149,0.10551282763481,-85.47898864746094,-0.03260384127498,-0.57046109437943,9.79897880554199,-5.20337724685669,0.08015974611044,-0.35065886378288
112,1500391784,-6.82579040527344,0.10522702336311,-85.48181915283203,-0.03622877225280,-0.57983529567719,9.75975704193115,-5.38211441040039,0.01348589640111,-0.41279906034470
113,1500400117,-6.84134101867676,0.10471837967634,-85.48139190673828,-0.01628157682717,-0.55493688583374,9.78615570068359,-5.27064132690430,-0.00297125102952,-0.25755116343498
114,1500408450,-6.88385200500488,0.10434848070145,-85.48365783691406,-0.00149142718874,-0.57450556755066,9.75706863403320,-5.18698501586914,-0.00361160677858,-0.34781569242477
115,1500416783,-6.89889621734619,0.10486266762018,-85.48505401611328,0.02049078792334,-0.59695577621460,9.76262855529785,-5.23337221145630,0.13853456079960,-0.44473996758461
116,1500425116,-6.94345188140869,0.10537152737379,-85.48683166503906,0.04219228029251,-0.58326625823975,9.77515792846680,-5.43859338760376,0.09435003250837,-0.28119304776192
117,1500433449,-6.95866537094116,0.10473759472370,-85.48798370361328,0.02566707693040,-0.58904320001602,9.77119445800781,-5.27261304855347,-0.00023052810866,-0.39048895239830
118,1500441782,-7.00165367126465,0.10394935309887,-85.49013519287109,0.00910857226700,-0.57663774490356,9.79282093048096,-5.25452995300293,-0.05330322682858,-0.34207811951637
119,1500450115,-7.01721382141113,0.10353910923004,-85.49005126953125,0.00723988469690,-0.56396383047104,9.77404499053955,-5.33693027496338,0.02140069007874,-0.22537961602211
120,1500458448,-7.06187582015991,0.10384390503168,-85.49272918701172,0.01266920007765,-0.57280528545380,9.78819561004639,-5.46021175384521,0.08461661636829,-0.38987424969673
121,1500466781,-7.07635021209717,0.10307785868645,-85.49256134033203,-0.01862679049373,-0.56245476007462,9.80601596832275,-5.23362827301025,0.00026894945768,-0.32811835408211
122,1500475114,-7.11912918090820,0.10289259999990,-85.49491882324219,-0.02951877005398,-0.57932102680206,9.78810501098633,-5.24031352996826,0.01976138167083,-0.35836875438690
123,1500483447,-7.13478326797485,0.10255876183510,-85.49510955810547,-0.02577145956457,-0.59384518861771,9.74834346771240,-5.40468025207520,0.04883353784680,-0.29141315817833
124,1500491780,-7.17852735519409,0.10270411521196,-85.49700164794922,-0.04246323555708,-0.57648736238480,9.75399208068848,-5.36210966110229,0.05446866899729,-0.30260658264160
125,1500500113,-7.19324636459351,0.10241916775703,-85.49783325195312,-0.04447561129928,-0.56752616167068,9.77174758911133,-5.31626033782959,0.06263960897923,-0.39901855587959
126,1500508446,-7.23535680770874,0.10219398885965,-85.50049591064453,-0.01883948221803,-0.57850062847137,9.76914787292480,-5.17177009582520,0.02204105071723,-0.39932590723038
127,1500516779,-7.25014686584473,0.10289045423269,-85.50063323974609,-0.00978451967239,-0.58932667970657,9.78676891326904,-5.35288810729980,0.16166424751282,-0.31367194652557
128,1500525112,-7.29425811767578,0.10278031975031,-85.50241851806641,-0.00267988303676,-0.57735121250153,9.77543067932129,-5.41825628280640,0.02432071790099,-0.29602372646332
129,1500533445,-7.30773735046387,0.10182495415211,-85.50336456298828,0.01931645721197,-0.58284276723862,9.77153778076172,-5.22279357910156,-0.03150551021099,-0.38080683350563
130,1500541778,-7.34977388381958,0.10178952664137,-85.50509643554688,0.02296447567642,-0.58557134866714,9.77894401550293,-5.17553520202637,0.03123655728996,-0.28895413875580
131,1500550111,-7.36460304260254,0.10222578793764,-85.50491333007812,0.00451586768031,-0.58025407791138,9.76322650909424,-5.41400432586670,0.12736678123474,-0.25785851478577
132,1500558444,-7.40824365615845,0.10337412357330,-85.50669860839844,0.00230826879852,-0.55807334184647,9.75853347778320,-5.37483978271484,0.17454819381237,-0.27837550640106
133,1500566777,-7.42178010940552,0.10331393778324,-85.50733947753906,0.02602014876902,-0.57453346252441,9.75533390045166,-5.28764915466309,0.08182467520237,-0.32094633579254
134,1500575110,-7.46520471572876,0.10412628948689,-85.50913238525391,-0.01620373688638,-0.58945095539093,9.77064609527588,-5.35524511337280,0.13392402231693,-0.28541943430901
135,1500583443,-7.48011684417725,0.10393590480089,-85.50865173339844,-0.00725718680769,-0.57637530565262,9.75029850006104,-5.48810625076294,0.06420207768679,-0.24815072119236
136,1500591776,-7.52298402786255,0.10447804629803,-85.51083374023438,-0.01481270324439,-0.56970405578613,9.76797580718994,-5.29461574554443,0.10902699083090,-0.33759564161301
137,1500600109,-7.53596305847168,0.10419330745935,-85.51110076904297,-0.01315775886178,-0.56147372722626,9.75819396972656,-5.28639364242554,0.06502173095942,-0.34323072433472
138,1500608442,-7.57887887954712,0.10452926903963,-85.51243591308594,-0.02781456708908,-0.58118212223053,9.76744937896729,-5.30954885482788,0.07088739424944,-0.24115799367428
139,1500616775,-7.59199190139771,0.10448402911425,-85.51287078857422,-0.04439701884985,-0.58558559417725,9.75444507598877,-5.33921051025391,0.08981631696224,-0.31897407770157
140,1500625108,-7.63589811325073,0.10476449131966,-85.51538848876953,-0.02259359136224,-0.58183068037033,9.75342082977295,-5.43449544906616,0.08323346078396,-0.38344508409500
141,1500633441,-7.64894294738770,0.10428850352764,-85.51529693603516,-0.02455670572817,-0.57949954271317,9.76145172119141,-5.36390209197998,0.03016076236963,-0.31080311536789
142,1500641774,-7.69169998168945,0.10443748533726,-85.51722717285156,-0.00820526108146,-0.57533013820648,9.77154350280762,-5.30499029159546,0.06028310209513,-0.31728354096413
143,1500650107,-7.70451259613037,0.10432606935501,-85.51672363281250,0.01004078704864,-0.57901799678802,9.75497150421143,-5.37084436416626,0.07344882190228,-0.32153549790382
144,1500658440,-7.74761152267456,0.10473161190748,-85.51927947998047,0.01919407770038,-0.59952205419540,9.75489902496338,-5.35457897186279,0.10198306292295,-0.38887530565262
145,1500666773,-7.76036024093628,0.10411947220564,-85.51939392089844,0.00234092911705,-0.57032614946365,9.78627681732178,-5.39878940582275,0.01717434450984,-0.34451144933701
146,1500675106,-7.80215692520142,0.10448530316353,-85.52239227294922,0.00947689265013,-0.56318092346191,9.80047130584717,-5.20537662506104,0.10395538061857,-0.44281893968582
147,1500683439,-7.81388425827026,0.10397475212812,-85.52243041992188,0.01131577417254,-0.57236909866333,9.76849746704102,-5.31367397308350,0.04289103671908,-0.38733848929405
148,1500691772,-7.85665130615234,0.10412885248661,-85.52359008789062,-0.00162089162041,-0.57530444860458,9.79069232940674,-5.33037376403809,0.05011424794793,-0.23091234266758
149,1500700105,-7.86890029907227,0.10421551018953,-85.52312469482422,-0.00006084796769,-0.55092501640320,9.77005481719971,-5.41764116287231,0.10661924630404,-0.30322128534317
150,1500708438,-7.91263008117676,0.10467782616615,-85.52564239501953,-0.00558756524697,-0.57222563028336,9.77536296844482,-5.45388603210449,0.10969297587872,-0.38516128063202
151,1500716771,-7.92458295822144,0.10450152307749,-85.52658843994141,-0.02780842408538,-0.56422263383865,9.78046512603760,-5.42599153518677,0.09696268290281,-0.44504737854004
152,1500725104,-7.96614360809326,0.10488743335009,-85.52893066406250,-0.02234318479896,-0.57961606979370,9.76620101928711,-5.20281457901001,0.09650162607431,-0.36935728788376
153,1500733437,-7.97720766067505,0.10434827208519,-85.52827453613281,-0.03701395168900,-0.59648919105530,9.78302478790283,-5.36205863952637,0.03723029047251,-0.32215026021004
154,1500741770,-8.02104663848877,0.10499244183302,-85.52970886230469,-0.01539404504001,-0.57426679134369,9.81203556060791,-5.48569869995117,0.11338142305613,-0.25852447748184
155,1500750103,-8.03126907348633,0.10441572219133,-85.52944183349609,-0.01733054593205,-0.57093602418900,9.77974891662598,-5.30150604248047,0.02826530672610,-0.33254960179329
156,1500758436,-8.07287216186523,0.10528785735369,-85.53082275390625,-0.00995501130819,-0.59575968980789,9.76980686187744,-5.22658491134644,0.14022512733936,-0.25171107053757
157,1500766769,-8.08334350585938,0.10607077181339,-85.53032684326172,0.00254227337427,-0.58186143636703,9.74801158905029,-5.37627363204956,0.19183778762817,-0.32586428523064
158,1500775102,-8.12572383880615,0.10580310970545,-85.53221130371094,0.00419600494206,-0.58201164007187,9.74666500091553,-5.32973337173462,0.01328098215163,-0.33034679293633
159,1500783435,-8.13450622558594,0.10520034283400,-85.53244781494141,-0.00884316302836,-0.57297772169113,9.78889369964600,-5.21329069137573,0.03569343686104,-0.39294800162315
160,1500791768,-8.17706203460693,0.10604814440012,-85.53392791748047,0.00772583950311,-0.59123408794403,9.74463748931885,-5.36011171340942,0.13866266608238,-0.26336556673050
161,1500800101,-8.18830966949463,0.10659455507994,-85.53419494628906,0.00376256369054,-0.59450548887253,9.78348445892334,-5.55577850341797,0.16171546280384,-0.30150511860847
162,1500808434,-8.23038768768311,0.10618688166142,-85.53579711914062,-0.00567640224472,-0.58201658725739,9.79483795166016,-5.31216192245483,-0.00658285804093,-0.30055740475655
163,1500816767,-8.23781204223633,0.10500311851501,-85.53569030761719,-0.01493723783642,-0.56728368997574,9.79172325134277,-5.13962411880493,-0.03196655958891,-0.38085803389549
164,1500825100,-8.28049564361572,0.10618005692959,-85.53740692138672,-0.01283148769289,-0.60663402080536,9.74097156524658,-5.39533138275146,0.18443530797958,-0.28831383585930
165,1500833433,-8.29163265228271,0.10612882673740,-85.53746032714844,-0.01896683871746,-0.56903356313705,9.78522205352783,-5.63323640823364,0.10334063321352,-0.36933165788651
166,1500841766,-8.33261775970459,0.10473972558975,-85.53898620605469,-0.01726307161152,-0.54857128858566,9.76814460754395,-5.20214843750000,-0.12374236434698,-0.31152030825615
167,1500850099,-8.33943748474121,0.10437986254692,-85.53870391845703,-0.01474604755640,-0.62498402595520,9.73089027404785,-5.16026926040649,0.06671226769686,-0.35811260342598
168,1500858432,-8.38328933715820,0.10596404969692,-85.54138183593750,-0.00987408496439,-0.59261691570282,9.77638339996338,-5.55705976486206,0.25018703937531,-0.39894172549248
169,1500866765,-8.39092445373535,0.10530919581652,-85.54135131835938,-0.00291043706238,-0.58105880022049,9.80065345764160,-5.30332469940186,0.03167200088501,-0.38367560505867
170,1500875098,-8.43159484863281,0.10508934408426,-85.54352569580078,-0.02122567407787,-0.58204340934753,9.77705097198486,-5.18680572509766,0.02647231146693,-0.37240532040596
171,1500883431,-8.44133663177490,0.10606863349676,-85.54379272460938,-0.01575399003923,-0.60588359832764,9.77255725860596,-5.60672569274902,0.22224192321301,-0.32842570543289
172,1500891764,-8.48118305206299,0.10610064864159,-85.54626464843750,0.00723562669009,-0.54139238595963,9.80043029785156,-5.09843635559082,0.06358733773232,-0.40442314743996
173,1500900097,-8.48456096649170,0.10453524440527,-85.54579162597656,-0.02190941013396,-0.55027753114700,9.76090908050537,-4.89096164703369,-0.08888139575720,-0.32422503829002
174,1500908430,-8.52939224243164,0.10605583339930,-85.54784393310547,-0.01784479245543,-0.61203563213348,9.74932670593262,-5.70749235153198,0.23333290219307,-0.32921978831291
175,1500916763,-8.53855323791504,0.10684727877378,-85.54851531982422,0.01410082168877,-0.55153048038483,9.81568717956543,-5.64176559448242,0.20789794623852,-0.38516125082970
176,1500925096,-8.57439231872559,0.10402042418718,-85.54990386962891,-0.00427587330341,-0.53028869628906,9.78225135803223,-4.64068508148193,-0.29443565011024,-0.33026996254921
177,1500933429,-8.58207035064697,0.10571901500225,-85.54949188232422,-0.03609737008810,-0.64990079402924,9.71425819396973,-5.51763963699341,0.31460684537888,-0.32816958427429
178,1500941762,-8.62793827056885,0.10716061294079,-85.55249023437500,0.01542071904987,-0.54052585363388,9.80062389373779,-5.85595178604126,0.24101713299751,-0.44868457317352
179,1500950095,-8.62587547302246,0.10317860543728,-85.55068969726562,0.02266395650804,-0.52671831846237,9.79764080047607,-4.39747762680054,-0.38677495718002,-0.26474875211716
180,1500958428,-8.66909217834473,0.10545904189348,-85.55226135253906,-0.06020413339138,-0.65063095092773,9.70283603668213,-5.55109167098999,0.31632301211357,-0.26203364133835
181,1500966761,-8.68095970153809,0.10736039280891,-85.55071258544922,0.01359952799976,-0.57827711105347,9.74726867675781,-6.13148450851440,0.33005225658417,-0.23700852692127
182,1500975094,-8.72298622131348,0.10670427232981,-85.55332946777344,0.01981602981687,-0.51758289337158,9.87509346008301,-5.41994667053223,-0.01208991929889,-0.44158944487572
183,1500983427,-8.71593570709229,0.10221554338932,-85.55255889892578,-0.01094512175769,-0.49992713332176,9.79130935668945,-3.90786123275757,-0.43416127562523,-0.35219570994377
184,1500991760,-8.76275634765625,0.10595338046551,-85.55200958251953,-0.06132929399610,-0.75832486152649,9.58582305908203,-6.00950908660889,0.45215526223183,0.01230764016509
185,1501000093,-8.78258323669434,0.11005064100027,-85.55490112304688,0.07248888909817,-0.53205251693726,9.85485363006592,-7.20167303085327,0.65225374698639,-0.62024873495102
186,1501008426,-8.80347251892090,0.10096945613623,-85.55467224121094,-0.00391404004768,-0.37450909614563,9.97124958038330,-2.90929055213928,-1.06229925155640,-0.26318627595901
187,1501016759,-8.79902935028076,0.10167809575796,-85.55268096923828,-0.11289650201797,-0.71178317070007,9.54782009124756,-4.33528614044189,0.17841596901417,-0.16846482455730
188,1501025092,-8.86313819885254,0.11187431216240,-85.55377960205078,0.01786621101201,-0.73299551010132,9.62509346008301,-8.10964584350586,1.24839937686920,-0.06513699889183
189,1501033425,-8.86905288696289,0.10549362003803,-85.55515289306641,0.06769415736198,-0.33958464860916,10.03850269317627,-5.63833379745483,-0.61005419492722,-0.69719380140305
190,1501041758,-8.88236618041992,0.09604617208242,-85.55532073974609,-0.06823453307152,-0.49453017115593,9.80456066131592,-2.02654695510864,-1.09664785861969,-0.32069021463394
191,1501050091,-8.89459133148193,0.10487120598555,-85.55377960205078,-0.09017087519169,-0.82110106945038,9.45949649810791,-6.46434116363525,1.13595294952393,-0.00461056223139
192,1501058424,-8.95425224304199,0.10806476324797,-85.55753326416016,0.10262971371412,-0.52192741632462,9.87815189361572,-7.60197257995605,0.46867647767067,-0.51310437917709
193,1501066757,-8.94392490386963,0.09822883456945,-85.55668640136719,0.03048207052052,-0.41316151618958,9.94185543060303,-3.79892396926880,-1.06680727005005,-0.47455492615700
194,1501075090,-8.97181797027588,0.09687902778387,-85.55693817138672,-0.06883481889963,-0.59574401378632,9.65126228332520,-3.80366230010986,-0.13370631635189,-0.18480670452118
195,1501083423,-8.98968982696533,0.10521741956472,-85.55722045898438,-0.02571982145309,-0.78177559375763,9.62142944335938,-7.26396703720093,1.11469316482544,-0.23226989805698
196,1501091756,-9.03299999237061,0.10164694488049,-85.56080627441406,0.09928632527590,-0.39985448122025,9.96327209472656,-5.66702175140381,-0.33398404717445,-0.62339925765991
197,1501100089,-9.01487827301025,0.09241250157356,-85.55809020996094,-0.06423897296190,-0.55595761537552,9.72446060180664,-2.98413538932800,-1.03140842914581,-0.19956050813198
198,1501108422,-9.07374668121338,0.10434442758560,-85.56253814697266,-0.06578382104635,-0.79828971624374,9.59081554412842,-7.54764509201050,1.52021789550781,-0.43477609753609
199,1501116755,-9.07575130462646,0.10188981890678,-85.56388092041016,0.07824503630400,-0.36000630259514,9.96292686462402,-5.47611808776855,-0.15076538920403,-0.53374940156937
200,1501125088,-9.10150814056396,0.09508951008320,-85.56407928466797,-0.08296180516481,-0.61869490146637,9.74269294738770,-3.59060311317444,-0.77944111824036,-0.28526574373245
201,1501133421,-9.10784912109375,0.09982667118311,-85.56385803222656,-0.07684408128262,-0.66351240873337,9.69734764099121,-6.05797243118286,0.70996266603470,-0.39054030179977
202,1501141754,-9.15342712402344,0.10206442326307,-85.56438446044922,0.00236091110855,-0.60666549205780,9.73693847656250,-5.98404884338379,0.29877722263336,-0.15668226778507
203,1501150087,-9.15635871887207,0.10068003088236,-85.56633758544922,-0.01772718690336,-0.51108986139297,9.94046688079834,-5.69934701919556,-0.01311448775232,-0.62037682533264
204,1501158420,-9.17704105377197,0.09423147141933,-85.56639862060547,-0.02651449851692,-0.44350439310074,9.79072952270508,-3.01064610481262,-0.74025148153305,-0.26636242866516
205,1501166753,-9.18680572509766,0.10174384713173,-85.56554412841797,-0.08832246065140,-0.82714456319809,9.53807449340820,-6.58672666549683,0.99907046556473,-0.17284487187862
206,1501175086,-9.24543094635010,0.10619712620974,-85.56822204589844,0.06207261979580,-0.51082873344421,9.88011741638184,-7.57986831665039,0.60220360755920,-0.37043312191963
207,1501183419,-9.22867202758789,0.09577467292547,-85.56832122802734,0.05665653944016,-0.35204389691353,10.00722217559814,-3.45436120033264,-1.12256944179535,-0.58697581291199
208,1501191752,-9.25146293640137,0.09493838995695,-85.56759643554688,-0.07756088674068,-0.65481156110764,9.66282939910889,-3.29570651054382,-0.08980350196362,-0.07154054939747
209,1501200085,-9.27146148681641,0.10454121977091,-85.56654357910156,0.00770851504058,-0.81088620424271,9.51908302307129,-7.95588541030884,1.25262582302094,-0.12253851443529
210,1501208418,-9.31595706939697,0.10139849036932,-85.57073974609375,0.14926168322563,-0.36727184057236,10.07469081878662,-5.91473674774170,-0.26669543981552,-0.70129215717316
211,1501216751,-9.29219913482666,0.09164538234472,-85.56630706787109,-0.06673148274422,-0.52841806411743,9.74947547912598,-2.74133801460266,-1.10143780708313,-0.13872671127319
212,1501225084,-9.33707523345947,0.09687304496765,-85.56790924072266,-0.07179158926010,-0.70131957530975,9.58550930023193,-5.97795295715332,0.67446124553680,-0.23121970891953
213,1501233417,-9.35032939910889,0.10190050303936,-85.56793212890625,0.04648613184690,-0.61075645685196,9.79310703277588,-7.26814174652100,0.72866100072861,-0.31029084324837
214,1501241750,-9.38452339172363,0.09479795396328,-85.56905364990234,0.00553790386766,-0.40927216410637,9.93034172058105,-4.71207141876221,-0.79396450519562,-0.41579592227936
215,1501250083,-9.36328887939453,0.08965567499399,-85.56753540039062,-0.07980775833130,-0.52758258581161,9.78825187683105,-3.18046832084656,-0.50032281875610,-0.34991604089737
216,1501258416,-9.41207122802734,0.09854559600353,-85.56705474853516,-0.08595649152994,-0.80630886554718,9.55187606811523,-6.47968435287476,1.06784474849701,0.08387380838394
217,1501266749,-9.42481803894043,0.09880813956261,-85.56771087646484,0.03006123937666,-0.51007336378098,9.84352588653564,-7.34342241287231,0.18341073393822,-0.51886761188507
218,1501275082,-9.45237159729004,0.09097132831812,-85.57007598876953,0.01101320609450,-0.43076720833778,9.97153186798096,-3.94702553749084,-0.85607892274857,-0.58282631635666
219,1501283415,-9.43410873413086,0.08975855261087,-85.56940460205078,-0.09257791191339,-0.56027936935425,9.73958969116211,-3.67372155189514,-0.03219709172845,-0.33070537447929
220,1501291748,-9.48294830322266,0.09462890774012,-85.57015991210938,-0.02815290354192,-0.76340079307556,9.56205463409424,-6.52076911926270,0.61772567033768,-0.14431059360504
221,1501300081,-9.49370765686035,0.09663271158934,-85.57176971435547,0.11036743223667,-0.53375399112701,9.94727420806885,-7.23525381088257,0.39086046814919,-0.55150014162064
222,1501308414,-9.51768398284912,0.08967915177345,-85.56999969482422,-0.01075804140419,-0.47275894880295,9.87697982788086,-3.55320620536804,-0.83169412612915,-0.07981394976377
223,1501316747,-9.51354408264160,0.09244836121798,-85.57177734375000,-0.01495054922998,-0.68680346012115,9.69309043884277,-5.50344896316528,0.49767181277275,-0.57275986671448
224,1501325080,-9.55318832397461,0.09513988345861,-85.57291412353516,0.05584617331624,-0.56484025716782,9.84585952758789,-5.44899272918701,0.36773073673248,-0.23357619345188
225,1501333413,-9.54697704315186,0.09314503520727,-85.57092285156250,-0.00231134402566,-0.57770490646362,9.67145347595215,-5.32135725021362,-0.12448518723249,-0.29832899570465
226,1501341746,-9.58580017089844,0.09210173040628,-85.57205963134766,-0.03387692570686,-0.57850939035416,9.83959007263184,-5.36956357955933,-0.07266759127378,-0.31026524305344
227,1501350079,-9.58086395263672,0.09462335705757,-85.57110595703125,-0.02977878786623,-0.60883247852325,9.71782970428467,-5.54202413558960,0.41821643710136,-0.25189039111137
228,1501358412,-9.61349105834961,0.09337981790304,-85.57270812988281,-0.02417088299990,-0.49143901467323,9.75670719146729,-4.64388656616211,-0.08631996810436,-0.37012571096420
229,1501366745,-9.60883998870850,0.09456358850002,-85.57007598876953,-0.09354003518820,-0.68976587057114,9.72716522216797,-5.64030647277832,0.24406525492668,-0.17038589715958
230,1501375078,-9.64643859863281,0.09336403012276,-85.57257843017578,-0.00119027006440,-0.45339775085449,9.77309894561768,-5.25819253921509,-0.06365138292313,-0.47593811154366
231,1501383411,-9.62993526458740,0.09006376564503,-85.57060241699219,-0.08892742544413,-0.61512064933777,9.76101207733154,-4.28282833099365,-0.29843145608902,-0.25908797979355
232,1501391744,-9.67684268951416,0.09317149966955,-85.56997680664062,-0.03132101148367,-0.64552527666092,9.57395648956299,-6.39410734176636,0.38432881236076,-0.02318088151515
233,1501400077,-9.68154335021973,0.09511938691139,-85.57158660888672,-0.00509335938841,-0.55251353979111,9.99640750885010,-6.90085887908936,0.38571190834045,-0.55539339780807
234,1501408410,-9.70540523529053,0.08810478448868,-85.57127380371094,0.01595594733953,-0.40511015057564,9.83846282958984,-3.64657068252563,-0.80613112449646,-0.26608064770699
235,1501416743,-9.69292259216309,0.09054401516914,-85.57118225097656,-0.04973423853517,-0.69165682792664,9.72817325592041,-4.90305137634277,0.40581911802292,-0.32860502600670
236,1501425076,-9.73567771911621,0.09296915680170,-85.57289123535156,0.04001033306122,-0.58308666944504,9.72899436950684,-5.93192434310913,0.35097905993462,-0.31508070230484
237,1501433409,-9.72532844543457,0.09026440232992,-85.57044982910156,0.06912069767714,-0.58847618103027,9.75514698028564,-5.23086166381836,-0.22343297302723,-0.27384176850319
238,1501441742,-9.76211071014404,0.08974105119705,-85.57200622558594,0.02264593914151,-0.54375958442688,9.84088516235352,-5.23383283615112,0.00011526403978,-0.35836872458458
239,1501450075,-9.74819469451904,0.08959121257067,-85.56973266601562,-0.02971792407334,-0.59173518419266,9.74879074096680,-4.87075185775757,0.06919685751200,-0.14236393570900
240,1501458408,-9.78879928588867,0.08999674022198,-85.57082366943359,0.00531851639971,-0.61543834209442,9.69687461853027,-5.71077013015747,0.10088165849447,-0.28526574373245
241,1501466741,-9.78518295288086,0.09173929691315,-85.57091522216797,-0.00863420590758,-0.59013032913208,9.83139038085938,-6.17497730255127,0.36030268669128,-0.46218326687813
242,1501475074,-9.81563854217529,0.08881895989180,-85.57253265380859,-0.05633662268519,-0.43913599848747,9.86510372161865,-4.51158952713013,-0.28129556775093,-0.41910013556480
243,1501483407,-9.79714965820312,0.08678656071424,-85.56993865966797,-0.07312590628862,-0.64671897888184,9.64887809753418,-4.45352172851562,-0.14597553014755,-0.19366922974586
244,1501491740,-9.84606170654297,0.09242530912161,-85.57246398925781,-0.04288472235203,-0.64192348718643,9.75147724151611,-6.74627780914307,0.75163692235947,-0.35257995128632
245,1501500073,-9.83489418029785,0.09009065479040,-85.57051849365234,-0.03603672981262,-0.50392597913742,9.81299686431885,-5.40552616119385,-0.17187152802944,-0.29154124855995
246,1501508406,-9.86321640014648,0.08470461517572,-85.57240295410156,-0.00766368862242,-0.53913348913193,9.79780864715576,-4.29473876953125,-0.56635630130768,-0.50454914569855
247,1501516739,-9.85336208343506,0.08905248343945,-85.56966400146484,-0.03883752599359,-0.66465240716934,9.68280887603760,-5.63146924972534,0.59879684448242,-0.06713490933180
248,1501525072,-9.89909172058105,0.09076856821775,-85.57267761230469,-0.01752963475883,-0.54032045602798,9.78859043121338,-6.40355873107910,0.29793196916580,-0.49263855814934
249,1501533405,-9.87508773803711,0.08331467956305,-85.57086181640625,0.06251069158316,-0.48871383070946,9.85224342346191,-3.99579429626465,-0.79498887062073,-0.35275921225548
250,1501541738,-9.91195869445801,0.08744480460882,-85.57228088378906,0.00482201436535,-0.65890258550644,9.67564010620117,-5.35982942581177,0.55130797624588,-0.25693637132645
251,1501550071,-9.90342044830322,0.08899954706430,-85.57110595703125,0.01193445920944,-0.56249761581421,9.74255657196045,-5.92851686477661,0.30871555209160,-0.32107442617416
252,1501558404,-9.93860626220703,0.08711996674538,-85.57183837890625,0.07535406947136,-0.54626387357712,9.82921504974365,-5.17794275283813,-0.17325466871262,-0.29861071705818
253,1501566737,-9.91950035095215,0.08499874174595,-85.57070159912109,0.02249607443810,-0.54588305950165,9.79847812652588,-4.72354650497437,-0.12950555980206,-0.37937241792679
254,1501575070,-9.95567321777344,0.08714343607426,-85.57166290283203,-0.06434422731400,-0.62068164348602,9.70214366912842,-5.31641387939453,0.30828014016151,-0.24592229723930
255,1501583403,-9.94659137725830,0.08706872910261,-85.56993103027344,0.02422674000263,-0.58269929885864,9.79507255554199,-5.99744510650635,0.11256174743176,-0.27458459138870
256,1501591736,-9.98259735107422,0.08550162613392,-85.57136535644531,-0.00230286736041,-0.52715069055557,9.83741950988770,-5.31730985641479,-0.12151392549276,-0.37960293889046
257,1501600069,-9.96008777618408,0.08200412243605,-85.56884002685547,-0.10219325125217,-0.55058640241623,9.76262474060059,-4.44816827774048,-0.31638702750206,-0.22358667850494
258,1501608402,-10.00364589691162,0.08549907058477,-85.57138061523438,-0.07504603266716,-0.67605125904083,9.70250034332275,-6.24265146255493,0.50184696912766,-0.40826535224915
259,1501616735,-9.98869514465332,0.08457441627979,-85.57040405273438,-0.01233028061688,-0.49165254831314,9.85190582275391,-5.42752742767334,0.00357318576425,-0.31946071982384
260,1501625068,-10.01835536956787,0.08185727894306,-85.57206726074219,-0.07750865072012,-0.54748094081879,9.86391639709473,-4.59714078903198,-0.24971318244934,-0.43490406870842
261,1501633401,-10.00104904174805,0.08203187584877,-85.57038879394531,-0.04639336094260,-0.63757872581482,9.67989349365234,-5.20962715148926,0.11105050146580,-0.19771626591682
262,1501641734,-10.04324913024902,0.08499575406313,-85.57450866699219,0.04331720620394,-0.55287724733353,9.76984405517578,-6.12292957305908,0.47200635075569,-0.60672444105148
263,1501650067,-10.01922798156738,0.08102016150951,-85.57157897949219,-0.01574729382992,-0.53036069869995,9.79996967315674,-4.46850633621216,-0.39789155125618,-0.18844394385815
264,1501658400,-10.06070613861084,0.08161396533251,-85.57285308837891,0.01181780546904,-0.65889787673950,9.72741985321045,-6.05738258361816,0.13318121433258,-0.32168918848038
265,1501666733,-10.04279708862305,0.08150638639927,-85.57196044921875,0.08383333683014,-0.47728559374809,9.88099861145020,-5.27128171920776,0.12693133950233,-0.43510904908180
266,1501675066,-10.06810855865479,0.07952988892794,-85.57203674316406,-0.03338740766048,-0.58087742328644,9.73841094970703,-4.13892745971680,-0.19471940398216,-0.23652185499668
267,1501683399,-10.06002426147461,0.08242418617010,-85.57105255126953,0.02104260399938,-0.69189727306366,9.68054962158203,-6.51854085922241,0.47787195444107,-0.32074144482613
268,1501691732,-10.09992218017578,0.08338255435228,-85.57255554199219,0.06137868762016,-0.50609278678894,9.87863349914551,-5.90866661071777,0.18248862028122,-0.34279534220695
269,1501700065,-10.07162380218506,0.07912990450859,-85.57053375244141,-0.07942813634872,-0.50607031583786,9.84406280517578,-4.14791822433472,-0.39156478643417,-0.34008023142815
270,1501708398,-10.10123443603516,0.07974375784397,-85.57154083251953,-0.07369163632393,-0.61198776960373,9.68757820129395,-4.69718980789185,0.13256648182869,-0.29522967338562
271,1501716731,-10.08895778656006,0.08232942223549,-85.56871032714844,0.01050528790802,-0.64180254936218,9.67307186126709,-6.14687919616699,0.41432309150696,-0.15015065670013
272,1501725064,-10.13476753234863,0.08484420925379,-85.57151031494141,-0.08854588866234,-0.59640169143677,9.86581897735596,-6.66105842590332,0.39524042606354,-0.46610221266747
273,1501733397,-10.10124492645264,0.07821550965309,-85.57035827636719,-0.07849338650703,-0.39250546693802,9.92239284515381,-3.65200066566467,-0.66156446933746,-0.46653768420219
274,1501741730,-10.12542438507080,0.07790772616863,-85.57038116455078,-0.07289373129606,-0.68627947568893,9.58220100402832,-4.08877468109131,0.00298405834474,-0.20278789103031
275,1501750063,-10.12425327301025,0.08700896799564,-85.56975555419922,-0.06130824238062,-0.70770043134689,9.71932029724121,-7.61234569549561,1.20044970512390,-0.20860233902931
276,1501758396,-10.16054916381836,0.08241564780474,-85.57129669189453,0.02697636373341,-0.42338734865189,9.94070720672607,-5.56315565109253,-0.47078964114189,-0.47086647152901
277,1501766729,-10.12153244018555,0.07494769245386,-85.56945037841797,0.04047652706504,-0.52249526977539,9.85248947143555,-3.11415290832520,-0.79445111751556,-0.39230763912201
278,1501775062,-10.15703010559082,0.08103639632463,-85.58388519287109,-0.01644664816558,-0.41067385673523,9.92686176300049,-5.48644113540649,1.06310606002808,-1.77112209796906
279,1501783395,-10.09435749053955,0.06580931693316,-85.54826354980469,0.05734416842461,-0.92282742261887,9.35302543640137,-0.36087900400162,-2.41800975799561,3.43577861785889
280,1501791728,-10.27264308929443,0.10547568649054,-85.57292938232422,0.64133614301682,-1.28973412513733,9.13694190979004,-22.64166259765625,5.24965286254883,-2.26821851730347
281,1501800061,-10.14834499359131,0.07432230561972,-85.58118438720703,-0.00187399750575,1.07423567771912,11.93969821929932,6.99456930160522,-3.36688899993896,-2.09632062911987
282,1501808394,-10.07727909088135,0.05161190405488,-85.55998992919922,-0.74700909852982,-1.48838675022125,7.93545532226562,7.25253152847290,-3.08754062652588,1.82556533813477
283,1501816727,-10.27302265167236,0.11873694509268,-85.57164764404297,0.60857659578323,-1.57300031185150,9.44057750701904,-31.55059432983398,8.38133049011230,-0.49184498190880
284,1501825060,-10.23229694366455,0.08276740461588,-85.57916259765625,0.45457768440247,1.43320095539093,11.73558235168457,3.59386920928955,-4.04489803314209,-1.85352277755737
285,1501833393,-10.05751609802246,0.04965078830719,-85.55641174316406,-1.36309146881104,-1.17061531543732,8.67187595367432,12.99555110931396,-4.23480224609375,1.58760905265808
286,1501841726,-10.26798057556152,0.11208732426167,-85.56547546386719,-0.04520650580525,-1.93915772438049,8.47701930999756,-26.57265663146973,7.60903215408325,0.05193288624287
287,1501850059,-10.25799942016602,0.09768114238977,-85.57041168212891,0.39528509974480,0.62650531530380,11.49376583099365,-6.93676996231079,-1.46654295921326,-1.39979231357574
288,1501858392,-10.14159679412842,0.04840726032853,-85.56649017333984,-0.74650549888611,-0.27439656853676,9.91141986846924,12.62796306610107,-5.86012887954712,-0.78594744205475
289,1501866725,-10.17813873291016,0.08459191769361,-85.56425476074219,0.11121501028538,-1.61905467510223,8.15036201477051,-12.57620525360107,4.39518547058105,0.48081761598587
290,1501875058,-10.30439281463623,0.11063548177481,-85.57496643066406,0.13848230242729,-0.25861740112305,10.70973396301270,-16.51201438903809,3.34641098976135,-0.91276341676712
291,1501883391,-10.18613719940186,0.05673582851887,-85.56520080566406,-0.35982921719551,0.31020426750183,10.38780212402344,6.00447607040405,-6.46341943740845,-0.49548178911209
292,1501891724,-10.19283676147461,0.05729847028852,-85.56211090087891,0.40390416979790,-1.26123166084290,9.11577224731445,-2.18850588798523,0.04409491270781,0.17231978476048
293,1501900057,-10.23526477813721,0.09308399260044,-85.56073760986328,0.54905736446381,-1.02192747592926,9.24797821044922,-13.43318462371826,4.28988647460938,0.44818523526192
294,1501908390,-10.29253482818604,0.08596564829350,-85.57328033447266,-0.10354058444500,-0.23613123595715,10.46788978576660,-8.27636909484863,-0.52888268232346,-1.83958876132965
295,1501916723,-10.19596004486084,0.05409254506230,-85.56905364990234,0.31082084774971,-0.12760835886002,10.26334571838379,3.27840447425842,-3.68499159812927,-0.69675838947296
296,1501925056,-10.21296119689941,0.07294984906912,-85.56817626953125,0.11238215118647,-0.82483863830566,9.11166954040527,-3.47067737579346,2.25250291824341,0.29954564571381
297,1501933389,-10.25076293945312,0.09162361919880,-85.56327056884766,-0.29333549737930,-0.96320295333862,9.44134712219238,-12.96974182128906,2.27530002593994,0.49861955642700
298,1501941722,-10.29398441314697,0.07284141331911,-85.56538391113281,0.51722913980484,-0.06561467051506,10.44821071624756,-6.63869667053223,-2.12877321243286,-0.86030530929565
299,1501950055,-10.19923782348633,0.06907586753368,-85.56008148193359,-0.20603166520596,-0.44758743047714,9.98230266571045,2.93253540992737,-0.39171853661537,0.05705570429564
300,1501958388,-10.25382423400879,0.09320223331451,-85.55937194824219,-1.07859122753143,-1.23124134540558,8.90090179443359,-8.02527332305908,2.87948822975159,0.38778671622276
301,1501966721,-10.28134632110596,0.08295480906963,-85.56399536132812,0.24462582170963,-0.47138431668282,10.03916549682617,-11.84412670135498,-0.91120094060898,-1.29497909545898
302,1501975054,-10.25929641723633,0.06627462059259,-85.56697082519531,0.29188546538353,-0.01179716549814,10.34535503387451,1.14899051189423,-1.85990083217621,-0.92244553565979
303,1501983387,-10.21324157714844,0.07884091138840,-85.56439971923828,-0.90740579366684,-0.84854799509048,9.31204032897949,-3.02767968177795,1.53991520404816,0.16371341049671
304,1501991720,-10.29801368713379,0.08448349684477,-85.56436157226562,0.05240211263299,-0.77621245384216,9.47532367706299,-11.69410324096680,0.71239596605301,-0.08788244426250
305,1502000053,-10.26573848724365,0.07593081146479,-85.56240081787109,0.46209219098091,-0.22158171236515,10.25716018676758,-4.75579500198364,-0.95543664693832,-0.44704526662827
306,1502008386,-10.25451850891113,0.06692732870579,-85.56095123291016,-0.45462754368782,-0.58317846059799,9.76538276672363,-0.19676855206490,-1.04670000076294,-0.23334567248821
307,1502016719,-10.24693870544434,0.06943530589342,-85.56093597412109,0.40580022335052,-1.00317418575287,9.37639236450195,-7.78462791442871,0.41675645112991,-0.40004315972328
308,1502025052,-10.30387401580811,0.08037469536066,-85.56704711914062,0.77272343635559,-0.43568831682205,9.95334243774414,-8.39854812622070,1.46929657459259,-0.70321315526962
309,1502033385,-10.24924373626709,0.07514107227325,-85.56734466552734,-0.40750205516815,-0.21424990892410,10.06653213500977,-2.15720510482788,-0.45485758781433,-0.72565126419067
310,1502041718,-10.26540088653564,0.06178335100412,-85.56305694580078,0.00050112803001,-0.68593144416809,9.58564281463623,-3.53015375137329,-1.62245678901672,0.00567355286330
311,1502050051,-10.26461887359619,0.07569090276957,-85.55854797363281,0.72123908996582,-0.75766831636429,9.52104663848877,-8.70848178863525,1.68822145462036,0.38340669870377
312,1502058384,-10.30558109283447,0.08661963790655,-85.55996704101562,-0.22254879772663,-0.53037357330322,10.01427745819092,-6.52742910385132,1.36837649345398,-0.14961275458336
313,1502066717,-10.25182342529297,0.06884576380253,-85.55752563476562,-0.27842086553574,-0.49929270148277,9.85155010223389,-2.37951111793518,-1.93267083168030,-0.62780487537384
314,1502075050,-10.27615451812744,0.07626847177744,-85.56134033203125,0.01807937212288,-0.75338774919510,9.59864044189453,-4.55413436889648,1.00488483905792,-0.51236158609390
315,1502083383,-10.26606273651123,0.09009876847267,-85.56163024902344,-0.59158325195312,-0.65652561187744,9.60659980773926,-7.67963600158691,1.81918740272522,-0.24822759628296
316,1502091716,-10.30567836761475,0.07436669617891,-85.56108093261719,-0.16214109957218,-0.36345404386520,10.01153755187988,-6.41149854660034,-1.82132565975189,-0.49251043796539
317,1502100049,-10.25463962554932,0.06860756129026,-85.55709838867188,0.34645628929138,-0.43772819638252,9.90967655181885,-2.79684400558472,-0.63564288616180,-0.12141147255898
318,1502108382,-10.27493762969971,0.08350464701653,-85.55972290039062,-0.61563473939896,-0.59971064329147,9.58532238006592,-4.11766815185547,1.86383271217346,-0.21498028934002
319,1502116715,-10.25736618041992,0.07562900334597,-85.55171203613281,-0.46197417378426,-0.85572695732117,9.51614856719971,-6.88607931137085,-0.93789076805115,0.24829156696796
320,1502125048,-10.31979560852051,0.07300406694412,-85.55542755126953,0.65599238872528,-0.62923645973206,9.90607738494873,-9.19574260711670,-0.18170741200447,-0.71791583299637
321,1502133381,-10.25811386108398,0.07213877886534,-85.55828094482422,0.12280261516571,-0.17694002389908,10.09496498107910,-1.61502861976624,0.03553975000978,-0.82587975263596
322,1502141714,-10.25806617736816,0.06274767965078,-85.55807495117188,-0.17867943644524,-0.69714587926865,9.49459362030029,-1.72127652168274,-1.06357991695404,-0.39801955223083
323,1502150047,-10.26805400848389,0.07414001971483,-85.55594635009766,0.54281777143478,-0.83817148208618,9.43968868255615,-10.28798484802246,1.44936895370483,-0.04513229057193
324,1502158380,-10.31331062316895,0.08240924775600,-85.55683898925781,0.07449453324080,-0.28755864500999,10.23257732391357,-7.18189859390259,1.04617512226105,-0.15435139834881
325,1502166713,-10.24248600006104,0.05856803804636,-85.55110168457031,-0.10092169046402,-0.42038038372993,9.93060111999512,-0.60585355758667,-2.78915953636169,-0.28764787316322
326,1502175046,-10.26835060119629,0.06292526423931,-85.55018615722656,0.61142385005951,-0.93035459518433,9.33035564422607,-4.87807750701904,0.54523748159409,-0.02507633529603
327,1502183379,-10.27417373657227,0.09110409766436,-85.55553436279297,-0.09232771396637,-0.72604823112488,9.67423439025879,-9.88156318664551,3.61807513237000,-0.57783156633377
328,1502191712,-10.29724216461182,0.07666248828173,-85.55767059326172,-0.56754958629608,-0.22675880789757,10.20009708404541,-4.56627559661865,-1.60877895355225,-0.78879046440125
329,1502200045,-10.22929382324219,0.05973001196980,-85.55312347412109,0.13711352646351,-0.45624184608459,9.73097896575928,-1.03573715686798,-1.90849101543427,-0.29937914013863
330,1502208378,-10.27516269683838,0.08206303417683,-85.55297851562500,-0.18887110054493,-0.85810011625290,9.31550502777100,-7.32490348815918,2.68474364280701,0.26481282711029
331,1502216711,-10.27247524261475,0.08368735760450,-85.55164337158203,-0.43558153510094,-0.54260307550430,9.96303272247314,-8.94254493713379,0.35415524244308,-0.37094536423683
332,1502225044,-10.27625751495361,0.06301875412464,-85.55031585693359,0.11114200949669,-0.32098937034607,10.09444332122803,-2.29780173301697,-2.41767644882202,-0.51597321033478
333,1502233377,-10.22586727142334,0.07376690953970,-85.54644775390625,-0.37915241718292,-0.80916684865952,9.47611999511719,-3.24145555496216,1.34473443031311,0.10108657181263
334,1502241710,-10.28693485260010,0.08199089020491,-85.55130767822266,-0.45120507478714,-0.80534869432449,9.57331275939941,-9.19430828094482,1.12693679332733,-0.63162153959274
335,1502250043,-10.25146389007568,0.06127918511629,-85.55233764648438,0.71931993961334,-0.24713756144047,10.12812614440918,-5.07251501083374,-2.31447672843933,-1.04229450225830
336,1502258376,-10.24824142456055,0.06300552189350,-85.55281829833984,0.23515686392784,-0.47332507371902,9.82499504089355,-1.50486183166504,0.26596540212631,-0.25335040688515
337,1502266709,-10.23124885559082,0.07621553540230,-85.54964447021484,-0.46941325068474,-0.82353454828262,9.40541172027588,-7.33906841278076,1.62188065052032,0.17767314612865
338,1502275042,-10.28212165832520,0.06647910177708,-85.55017089843750,0.50186711549759,-0.51139223575592,9.99747657775879,-8.01776885986328,-1.08627426624298,-0.50483101606369
339,1502283375,-10.22447299957275,0.06057311221957,-85.54593658447266,0.48203605413437,-0.43228894472122,9.90848255157471,-2.48678374290466,-0.65813219547272,-0.15284015238285
340,1502291708,-10.25126171112061,0.06693971157074,-85.54795074462891,-0.27504166960716,-0.78313732147217,9.66374492645264,-5.15007448196411,0.84827941656113,-0.33826160430908
341,1502300041,-10.22858810424805,0.06439290195704,-85.54882049560547,0.34174048900604,-0.58682882785797,9.73847579956055,-6.73820829391479,-0.10435239225626,-0.63361930847168
342,1502308374,-10.25127887725830,0.06770212948322,-85.55227661132812,0.12200276553631,-0.41120681166649,9.82981109619141,-4.68279504776001,0.51829123497009,-0.57486033439636
343,1502316707,-10.21163177490234,0.06951000541449,-85.54828643798828,-0.74973434209824,-0.57129019498825,9.82825756072998,-4.72211217880249,0.34600991010666,-0.08370732516050
344,1502325040,-10.24619579315186,0.06212998181581,-85.54470825195312,0.06698285043240,-0.62622070312500,9.71888542175293,-6.13163805007935,-0.89342457056046,0.02959725074470
345,1502333373,-10.21372509002686,0.06922099739313,-85.54323577880859,0.23078644275665,-0.59327763319016,9.77172851562500,-5.63077783584595,0.93890267610550,-0.11864514648914
346,1502341706,-10.23816490173340,0.07577244192362,-85.54618072509766,-0.73537147045135,-0.62911289930344,9.79843997955322,-4.93855285644531,0.89036369323730,-0.44999089837074
347,1502350039,-10.20102310180664,0.06392887979746,-85.54583740234375,-0.28494507074356,-0.59585648775101,9.76407241821289,-5.10104894638062,-1.22310531139374,-0.74627071619034
348,1502358372,-10.22779750823975,0.06492693722248,-85.54702758789062,0.21346351504326,-0.57070684432983,9.75992965698242,-5.24123620986938,0.19729363918304,-0.36069968342781
349,1502366705,-10.19506740570068,0.06867586821318,-85.54647827148438,-0.27289229631424,-0.52428531646729,9.69804668426514,-5.65972137451172,0.54080623388290,-0.35739547014236
350,1502375038,-10.22157669067383,0.05604939162731,-85.54639434814453,0.21139061450958,-0.48973023891449,9.87725734710693,-5.23278379440308,-1.43811142444611,-0.50098884105682
351,1502383371,-10.17757511138916,0.05953065678477,-85.54161071777344,0.47106337547302,-0.53500545024872,9.54295825958252,-4.34455871582031,0.42620810866356,0.11122981458902
352,1502391704,-10.22979164123535,0.07565120607615,-85.54400634765625,-0.38558360934258,-0.82958191633224,9.97475719451904,-8.33958625793457,2.01024389266968,-0.18311616778374
353,1502400037,-10.17549514770508,0.05168063193560,-85.53907775878906,0.40457159280777,-0.24336284399033,9.83293342590332,-3.14681148529053,-2.78862166404724,-0.42038086056709
354,1502408370,-10.19204902648926,0.05445924773812,-85.53940582275391,0.63209426403046,-0.89060622453690,9.64710044860840,-4.08293437957764,0.39057862758636,-0.22537964582443
355,1502416703,-10.17530345916748,0.07314024120569,-85.54182434082031,-0.15792235732079,-0.62085950374603,9.58957958221436,-7.69023990631104,2.40452384948730,-0.37135520577431
356,1502425036,-10.20871925354004,0.06341191381216,-85.54421234130859,-0.15009188652039,-0.45573341846466,10.13202476501465,-6.12951278686523,-1.04229450225830,-0.73433458805084
357,1502433369,-10.15235614776611,0.05654159560800,-85.54106140136719,0.19236738979816,-0.35019436478615,9.73957252502441,-2.94343400001526,-0.72795653343201,-0.17164099216461
358,1502441702,-10.16386890411377,0.06496023386717,-85.53917694091797,-0.46161112189293,-0.63818341493607,9.58681774139404,-3.52359652519226,1.01080179214478,0.15426173806190
359,1502450035,-10.15168190002441,0.06564027070999,-85.53476715087891,-0.23619833588600,-0.91531741619110,9.52059936523438,-8.29778289794922,0.20046980679035,-0.04917933046818
360,1502458368,-10.19388389587402,0.06580120325089,-85.53824615478516,0.22523017227650,-0.45812225341797,10.06692695617676,-7.22902870178223,0.14916448295116,-0.65224087238312
361,1502466701,-10.12449836730957,0.06456835567951,-85.53923797607422,-0.63954311609268,-0.30498296022415,9.97821044921875,-1.43293714523315,0.01671328768134,-0.63766634464264
362,1502475034,-10.14343643188477,0.05940857157111,-85.53840637207031,-0.51676815748215,-0.78200054168701,9.50018501281738,-4.46041202545166,-0.56991678476334,-0.25934416055679
363,1502483367,-10.13569355010986,0.06346100568771,-85.53763580322266,0.54056090116501,-0.63121175765991,9.56797122955322,-8.88542461395264,0.58061075210571,-0.31853866577148
364,1502491700,-10.16238784790039,0.06556769460440,-85.53990936279297,0.05595767498016,-0.37269631028175,10.13361835479736,-5.41436290740967,0.35307940840721,-0.47248020768166
365,1502500033,-10.10042190551758,0.05444473400712,-85.53432464599609,-0.23033563792706,-0.53038436174393,9.81381130218506,-2.38491606712341,-1.29152107238770,-0.12481816112995
366,1502508366,-10.13258647918701,0.05767584592104,-85.53447723388672,0.39786711335182,-0.81915414333344,9.50033092498779,-6.09347343444824,0.44278052449226,-0.20353071391582
367,1502516699,-10.11155223846436,0.06821780651808,-85.53585815429688,0.20386385917664,-0.58961194753647,9.83120250701904,-7.33914518356323,1.40129089355469,-0.48346871137619
368,1502525032,-10.12529563903809,0.05579667538404,-85.53694915771484,0.08405116945505,-0.39114448428154,9.99085521697998,-3.90570974349976,-1.38575565814972,-0.64471024274826
369,1502533365,-10.07706069946289,0.05244519189000,-85.53588104248047,0.54666131734848,-0.59536164999008,9.65730285644531,-4.08344697952271,-0.27786320447922,-0.41336250305176
370,1502541698,-10.11028289794922,0.07000902295113,-85.53610992431641,-0.03821374103427,-0.63947850465775,9.64733695983887,-6.26460123062134,2.13967251777649,0.08769033104181
371,1502550031,-10.08434391021729,0.06845559924841,-85.53362274169922,-0.41844233870506,-0.60263055562973,9.77075386047363,-6.79325437545776,-0.07054161280394,-0.17043714225292
372,1502558364,-10.09999275207520,0.05523361265659,-85.53256225585938,0.25284090638161,-0.43731114268303,9.94134902954102,-4.17740011215210,-1.52540457248688,-0.40621620416641
373,1502566697,-10.04828453063965,0.06366463750601,-85.52872467041016,-0.11007985472679,-0.71946424245834,9.57120609283447,-3.71800827980042,1.08311069011688,0.11555860936642
374,1502575030,-10.09467792510986,0.07447811216116,-85.53439331054688,-0.58103168010712,-0.74197131395340,9.67848491668701,-7.88903188705444,1.45502972602844,-0.69750136137009
375,1502583363,-10.05055713653564,0.06145250052214,-85.53466796875000,-0.03187939524651,-0.31369644403458,9.98982238769531,-4.64760065078735,-1.37609910964966,-0.76340669393539
376,1502591696,-10.05456352233887,0.06083735451102,-85.53353881835938,-0.31470277905464,-0.54245781898499,9.73057174682617,-2.82655644416809,-0.03739678487182,-0.13334771990776
377,1502600029,-10.03243255615234,0.06783190369606,-85.53060913085938,-0.46630635857582,-0.76805961132050,9.57986354827881,-7.31499004364014,0.89771485328674,0.00324020069093
378,1502608362,-10.06932544708252,0.05959041789174,-85.53088378906250,0.38042098283768,-0.50407361984253,9.90422344207764,-6.79443168640137,-0.90807580947876,-0.46085128188133
379,1502616695,-10.01203155517578,0.05809077993035,-85.53127288818359,0.21991239488125,-0.48512721061707,9.85047721862793,-3.10267782211304,-0.08526978641748,-0.55211490392685
380,1502625028,-10.03381919860840,0.06429215520620,-85.53298187255859,-0.40328961610794,-0.73299640417099,9.63782405853271,-5.00443172454834,0.82748061418533,-0.33167868852615
381,1502633361,-10.00942134857178,0.05721138790250,-85.53132629394531,0.40843847393990,-0.59344214200974,9.75026798248291,-7.08218288421631,-0.72470355033875,-0.50954407453537
382,1502641694,-10.02986431121826,0.05578557774425,-85.53250122070312,0.64489120244980,-0.42692995071411,9.91282939910889,-4.86398983001709,-0.08363047987223,-0.42593908309937
383,1502650027,-9.97915267944336,0.05888008698821,-85.53064727783203,-0.06524910032749,-0.52589547634125,9.76280212402344,-3.92960762977600,0.45102822780609,-0.19799803197384
384,1502658360,-10.00929927825928,0.05730359256268,-85.53019714355469,0.16997990012169,-0.64327776432037,9.62511062622070,-6.05138921737671,-0.13575546443462,-0.24056892096996
385,1502666693,-9.97963428497314,0.06451456248760,-85.52854919433594,0.22575546801090,-0.60408896207809,9.83878421783447,-6.48511457443237,0.97550535202026,-0.13821440935135
386,1502675026,-9.99872016906738,0.06472246348858,-85.52777099609375,-0.37872245907784,-0.53806954622269,9.82802009582520,-4.74593400955200,0.07017020136118,-0.16265040636063
387,1502683359,-9.95320796966553,0.05580222606659,-85.52945709228516,0.00719936005771,-0.56305259466171,9.76290035247803,-4.59388732910156,-0.82188403606415,-0.91803985834122
388,1502691692,-9.96974277496338,0.06125527992845,-85.52606201171875,0.10196443647146,-0.65783715248108,9.52795791625977,-4.46064233779907,0.63455426692963,0.25244110822678
389,1502700025,-9.97131252288818,0.08130063116550,-85.52835083007812,-0.68001401424408,-0.80070006847382,9.81667327880859,-10.26111507415771,2.57836794853210,-0.34266728162766
390,1502708358,-9.97577190399170,0.05879599601030,-85.53028106689453,-0.25591140985489,-0.02090917341411,10.31211280822754,-3.03244352340698,-2.55852890014648,-0.95766502618790
391,1502716691,-9.88559722900391,0.04601285234094,-85.52254486083984,0.02682206407189,-0.65454131364822,9.45321846008301,0.74889618158340,-1.52353465557098,0.10579959303141
392,1502725024,-9.95798969268799,0.07343735545874,-85.52430725097656,-0.31459754705429,-1.17511951923370,9.23109245300293,-11.20625591278076,3.33969974517822,0.09606620669365
393,1502733357,-9.94600486755371,0.06243478134274,-85.52790832519531,0.34776097536087,-0.19519007205963,10.27100944519043,-8.67318439483643,-1.08860492706299,-1.20435571670532
394,1502741690,-9.90993213653564,0.03808898106217,-85.52560424804688,0.52054619789124,-0.29944312572479,10.04925537109375,1.78821957111359,-2.86259579658508,-0.49494388699532
395,1502750023,-9.86776351928711,0.04338323324919,-85.52033233642578,0.49158051609993,-1.02729237079620,9.14230060577393,-5.05315065383911,0.64989721775055,0.20620740950108
396,1502758356,-9.94529151916504,0.04898783192039,-85.52661132812500,1.59249198436737,-0.70311903953552,9.73317813873291,-11.86438751220703,0.85363286733627,-0.89260494709015
397,1502766689,-9.88220119476318,0.04315100610256,-85.52423858642578,1.33134102821350,-0.21455979347229,10.44179344177246,-2.54103469848633,-0.56292408704758,-0.32327726483345
398,1502775022,-9.88164710998535,0.04147077351809,-85.52217102050781,0.48285782337189,-0.66679102182388,9.61470222473145,-2.51705956459045,-0.17783962190151,-0.05727342516184
399,1502783355,-9.85268020629883,0.04956882819533,-85.52327728271484,0.64544725418091,-0.60782629251480,9.66044330596924,-6.66618108749390,1.33858716487885,-0.50119376182556
400,1502791688,-9.88383293151855,0.06652136147022,-85.52224731445312,-0.21056738495827,-0.56795412302017,9.81742572784424,-6.34295511245728,2.04620575904846,0.20123822987080
401,1502800021,-9.84049224853516,0.06665156036615,-85.51815795898438,-1.22049915790558,-0.34042021632195,9.86491966247559,-4.94229269027710,0.32854101061821,0.01328098215163
402,1502808354,-9.85510730743408,0.06485052406788,-85.51560974121094,-1.20774805545807,-0.65983539819717,9.62473201751709,-4.37975263595581,-0.20096929371357,-0.00435442011803
403,1502816687,-9.82404327392578,0.07439658045769,-85.51342773437500,-1.41275668144226,-0.71350431442261,9.60323524475098,-6.43870115280151,1.40054786205292,-0.02425668016076
404,1502825020,-9.84383296966553,0.06473996490240,-85.51322937011719,-1.38603246212006,-0.66360592842102,9.79871845245361,-5.01987743377686,-1.08048522472382,-0.44297257065773
405,1502833353,-9.80878067016602,0.05609635263681,-85.51922607421875,-0.53986185789108,-0.60730957984924,9.82026672363281,-5.95464420318604,-0.72165554761887,-1.38885521888733
406,1502841686,-9.82353210449219,0.05763058736920,-85.51897430419922,-0.51892763376236,-0.47179558873177,9.90146255493164,-4.43623208999634,0.24040241539478,-0.20811568200588
407,1502850019,-9.78074073791504,0.04579898715019,-85.51612091064453,-0.09916312992573,-0.54759740829468,9.63980674743652,-5.02935457229614,-1.39121139049530,-0.39205145835876
408,1502858352,-9.81007003784180,0.03772954642773,-85.51986694335938,1.00968408584595,-0.59076446294785,9.84634590148926,-6.20668745040894,-0.81168943643570,-0.87936228513718
409,1502866685,-9.77126407623291,0.04634369537234,-85.51576232910156,0.64252430200577,-0.64691758155823,9.81446647644043,-5.52107143402100,0.98111486434937,0.13717702031136
410,1502875018,-9.79173278808594,0.03738290816545,-85.51739501953125,0.67845821380615,-0.50651741027832,9.78962230682373,-5.16523885726929,-0.96119982004166,-0.64819389581680
411,1502883351,-9.73652744293213,0.02566230483353,-85.51605987548828,1.56338584423065,-0.60372269153595,9.71703815460205,-3.55661273002625,-1.29146945476532,-0.55068039894104
412,1502891684,-9.77224636077881,0.04306050762534,-85.51492309570312,1.05781412124634,-0.82787078619003,9.67516422271729,-7.01473951339722,2.09943222999573,0.21389165520668
413,1502900017,-9.74796295166016,0.04435909911990,-85.52249145507812,0.86687409877777,-0.18058933317661,10.07710838317871,-7.27431535720825,0.55881303548813,-1.36190891265869
414,1502908350,-9.71853351593018,0.03029402717948,-85.51271820068359,0.68613672256470,-0.36550235748291,9.88904762268066,0.78083711862564,-1.79481494426727,0.59472405910492
415,1502916683,-9.70986080169678,0.05480885878205,-85.50810241699219,-0.09281003475189,-1.04405534267426,9.21127033233643,-9.16177654266357,3.16877555847168,0.52169793844223
416,1502925016,-9.75302219390869,0.06142646074295,-85.50926971435547,-0.36787337064743,-0.44526651501656,10.07364368438721,-7.94871282577515,0.87299722433090,-0.27778640389442
417,1502933349,-9.68402290344238,0.05314230173826,-85.50710296630859,-0.88906258344650,-0.55882656574249,9.98689365386963,-1.90989983081818,-0.63410604000092,-0.42378750443459
418,1502941682,-9.70542716979980,0.06979003548622,-85.50881195068359,-1.66062593460083,-0.79944354295731,9.50787830352783,-5.35691022872925,2.07292151451111,-0.14300428330898
419,1502950015,-9.66860103607178,0.06498969346285,-85.50996398925781,-1.49246478080750,-0.47738203406334,9.77743434906006,-5.78630638122559,-0.24628084897995,-0.68502700328827
420,1502958348,-9.68405628204346,0.05355936661363,-85.50950622558594,-0.91556721925735,-0.56989312171936,9.65424156188965,-4.66496706008911,-1.29341650009155,-0.45319271087646
421,1502966681,-9.65891838073730,0.06428533047438,-85.51577758789062,-1.18418550491333,-0.46389865875244,9.75435733795166,-7.18207788467407,1.54117023944855,-1.03858041763306
422,1502975014,-9.66578960418701,0.04470444843173,-85.50830841064453,-0.87086832523346,-0.44299235939980,9.96911907196045,-3.65527939796448,-2.39746665954590,0.21227799355984
423,1502983347,-9.63223552703857,0.02935103140771,-85.50341033935547,0.89153039455414,-0.80791300535202,9.52470588684082,-6.18107318878174,-1.86855816841125,-0.27514809370041
424,1502991680,-9.65835285186768,0.04005437344313,-85.51146697998047,1.02635478973389,-0.52423757314682,9.91082668304443,-5.98335695266724,1.49816381931305,-1.01865255832672
425,1503000013,-9.59689235687256,0.03509137779474,-85.51259613037109,0.26218947768211,-0.43322995305061,9.88749217987061,-2.82711982727051,-0.50867307186127,-0.80054730176926
426,1503008346,-9.62498664855957,0.02459722012281,-85.50982666015625,1.18090295791626,-0.70014482736588,9.57884788513184,-6.24034500122070,-1.22730612754822,-0.16298337280750
427,1503016679,-9.59645748138428,0.03356270119548,-85.50643157958984,1.48929262161255,-0.45626941323280,9.83619785308838,-6.79397058486938,1.11459064483643,0.02247649058700
428,1503025012,-9.61059379577637,0.03730350732803,-85.50541687011719,0.43681740760803,-0.57862251996994,9.88504886627197,-4.58343696594238,0.49242088198662,-0.08603821694851
429,1503033345,-9.56813049316406,0.03542733937502,-85.50296783447266,0.27037203311920,-0.64957875013351,9.73440170288086,-5.11992692947388,-0.03514272719622,-0.21431429684162
430,1503041678,-9.59443569183350,0.04762307554483,-85.50211334228516,-0.15016226470470,-0.75253254175186,9.74696350097656,-6.06452894210815,1.49611473083496,0.06235786154866
431,1503050011,-9.55019950866699,0.04417211934924,-85.50228881835938,-0.60443609952927,-0.48117780685425,9.88019943237305,-4.90261554718018,-0.16052439808846,-0.47181421518326
432,1503058344,-9.55805587768555,0.03399129211903,-85.50349426269531,-0.11468547582626,-0.56845605373383,9.63672256469727,-3.86995244026184,-1.11053085327148,-0.63082742691040
433,1503066677,-9.53120613098145,0.05311540514231,-85.50885009765625,-0.60924446582794,-0.56152552366257,9.71278095245361,-6.98530960083008,2.57911038398743,-0.65352165699005
434,1503075010,-9.54656028747559,0.05500095710158,-85.50572967529297,-1.50968170166016,-0.33551222085953,9.95481586456299,-4.78917121887207,0.23148865997791,0.12178289145231
435,1503083343,-9.50357532501221,0.03928384184837,-85.49761199951172,-0.84435671567917,-0.63740545511246,9.60479927062988,-5.04743909835815,-1.82521903514862,0.17047554254532
436,1503091676,-9.53669452667236,0.04671550914645,-85.49839782714844,-0.37812921404839,-0.72582244873047,9.75510883331299,-6.93920326232910,0.96636098623276,-0.23029759526253
437,1503100009,-9.48903179168701,0.04333030059934,-85.49861907958984,-0.65855926275253,-0.58887022733688,9.83682727813721,-4.49173831939697,-0.32663273811340,-0.56182265281677
438,1503108342,-9.50274372100830,0.03097661957145,-85.50331878662109,-0.06851067394018,-0.68662601709366,9.70524978637695,-4.63028573989868,-1.29923093318939,-1.08558261394501
439,1503116675,-9.46612358093262,0.03350976854563,-85.50469970703125,0.32565379142761,-0.59562170505524,9.74780368804932,-5.80702924728394,0.34206533432007,-0.57534700632095
440,1503125008,-9.48539161682129,0.02507063560188,-85.50527191162109,0.55264467000961,-0.43114340305328,9.84583759307861,-5.31500530242920,-0.91655409336090,-0.52078866958618
441,1503133341,-9.43674087524414,0.00976887810975,-85.50163269042969,1.47611641883850,-0.53896266222000,9.84849548339844,-4.35398483276367,-1.83984506130219,-0.37606820464134
442,1503141674,-9.46304225921631,0.02392743527889,-85.50282287597656,1.20089423656464,-0.65957558155060,9.74512004852295,-6.17715501785278,1.77016127109528,-0.14869064092636
443,1503150007,-9.42675971984863,0.03242035210133,-85.50163269042969,0.09711088240147,-0.53678804636002,9.76428604125977,-5.84283781051636,1.12255668640137,-0.17422801256180
444,1503158340,-9.43638038635254,0.01996763236821,-85.49949645996094,0.38689765334129,-0.56407243013382,9.80947494506836,-4.19609880447388,-1.44418179988861,-0.27934888005257
445,1503166673,-9.39807319641113,0.03016339987516,-85.49758148193359,0.38039708137512,-0.72847843170166,9.62553310394287,-5.59361124038696,1.37529230117798,-0.05207374319434
446,1503175006,-9.42587661743164,0.04819168522954,-85.50308990478516,-0.75209218263626,-0.45297545194626,9.81857681274414,-6.39531087875366,2.31390023231506,-0.58500349521637
447,1503183339,-9.37167263031006,0.03743499144912,-85.49852752685547,-1.03583002090454,-0.43169197440147,9.85967445373535,-3.67290186882019,-1.13081729412079,-0.11897812038660
448,1503191672,-9.39204311370850,0.04384725913405,-85.49575042724609,-0.99241912364960,-0.66611289978027,9.59920120239258,-5.52222394943237,0.77812206745148,0.16637726128101
449,1503200005,-9.36435413360596,0.05191712826490,-85.49332427978516,-1.40405666828156,-0.63035988807678,9.72345256805420,-6.86379528045654,1.06753730773926,-0.06529068201780
450,1503208338,-9.37840366363525,0.03368351235986,-85.49300384521484,-0.80135959386826,-0.56187409162521,9.84509277343750,-4.78092241287231,-2.09196567535400,-0.60795384645462
451,1503216671,-9.32955837249756,0.03116018138826,-85.49281311035156,-0.20173177123070,-0.63793921470642,9.68501091003418,-4.31010770797729,-0.25985640287399,-0.54509651660919
452,1503225004,-9.35359001159668,0.04170257598162,-85.49742889404297,-0.63256382942200,-0.65518909692764,9.66706466674805,-5.99693346023560,1.41079378128052,-0.63328641653061
453,1503233337,-9.31644821166992,0.02604565024376,-85.49813079833984,0.09808693081141,-0.44512557983398,9.87228584289551,-5.70623683929443,-1.85513687133789,-0.87459808588028
454,1503241670,-9.32191753387451,0.01002799905837,-85.49702453613281,1.26166379451752,-0.44471341371536,9.87470436096191,-3.78747487068176,-1.84612059593201,-0.47094336152077
455,1503250003,-9.28103351593018,0.01868056878448,-85.49393463134766,0.97371023893356,-0.65729540586472,9.62626457214355,-5.25166130065918,0.93792927265167,0.00065316294786
456,1503258336,-9.31694126129150,0.01949421502650,-85.49430847167969,0.92410755157471,-0.65778821706772,9.75776195526123,-7.45825099945068,0.17667420208454,-0.32022917270660
457,1503266669,-9.27566623687744,0.01572181470692,-85.49448394775391,1.23131775856018,-0.44780167937279,9.96562194824219,-5.20017623901367,-0.36725687980652,-0.59325128793716
458,1503275002,-9.27414417266846,0.01970339007676,-85.49215698242188,0.41579222679138,-0.53960305452347,9.76529312133789,-2.98418641090393,0.49874755740166,0.06205048039556
459,1503283335,-9.24248790740967,0.02075481228530,-85.49202728271484,0.17426840960979,-0.69382768869400,9.60207748413086,-6.34966659545898,0.30154359340668,-0.45534422993660
460,1503291668,-9.26656436920166,0.02507149055600,-85.49000549316406,0.40368953347206,-0.51893734931946,9.90305709838867,-6.07403278350830,0.54490447044373,0.03069866262376
461,1503300001,-9.22347259521484,0.03907807916403,-85.48853302001953,-0.76674562692642,-0.52518987655640,9.69936370849609,-4.96396160125732,1.82848501205444,-0.00576320290565
462,1503308334,-9.24803733825684,0.04266606271267,-85.48781585693359,-1.45194959640503,-0.66158849000931,9.84571552276611,-6.14885187149048,0.48325100541115,-0.13964882493019
463,1503316667,-9.20294570922852,0.03274990990758,-85.48394012451172,-0.78693813085556,-0.52194833755493,9.73087882995605,-4.72042179107666,-1.05423069000244,-0.23805870115757
464,1503325000,-9.21466636657715,0.03633746504784,-85.48401641845703,-0.90820276737213,-0.69930362701416,9.59360885620117,-4.62636613845825,0.49990028142929,-0.23754642903805
465,1503333333,-9.18528842926025,0.04010004922748,-85.48490905761719,-1.12290549278259,-0.71662622690201,9.80075931549072,-6.59492206573486,0.54047316312790,-0.51630610227585
466,1503341666,-9.20197486877441,0.03200541809201,-85.49331665039062,-0.44594761729240,-0.26299312710762,9.84471607208252,-5.23895645141602,-0.72370457649231,-1.44666624069214
467,1503349999,-9.14069843292236,0.02975785732269,-85.49188232421875,-0.71431994438171,-0.37292131781578,9.87528705596924,-2.74272108078003,-0.31267300248146,-0.36372211575508
468,1503358332,-9.17081356048584,0.02615322545171,-85.48314666748047,-0.41469800472260,-0.77537697553635,9.50687313079834,-6.86866140365601,-0.51984089612961,0.67072153091431
469,1503366665,-9.15203571319580,0.01731581054628,-85.48286437988281,1.02797079086304,-0.48706230521202,9.84212493896484,-7.85837173461914,-1.11204218864441,-0.67104178667068
470,1503374998,-9.14815998077393,0.02270739153028,-85.48335266113281,0.36634662747383,-0.51646220684052,10.01153373718262,-2.80534815788269,0.72120720148087,-0.24932895600796
471,1503383331,-9.10703563690186,0.03182015195489,-85.48320007324219,-0.62263303995132,-0.76886999607086,9.57719612121582,-5.16001224517822,1.03449487686157,-0.28483027219772
472,1503391664,-9.13909721374512,0.01983999460936,-85.48612976074219,0.52222120761871,-0.59154003858566,9.77385234832764,-7.13369274139404,-1.28998422622681,-0.87265145778656
473,1503399997,-9.08613204956055,0.01553355809301,-85.48127746582031,1.02150976657867,-0.48093119263649,9.96447086334229,-3.72308015823364,-0.64716923236847,-0.01352431625128
474,1503408330,-9.10311508178711,0.02778350189328,-85.48190307617188,0.20057977735996,-0.68030267953873,9.54964160919189,-5.34238672256470,1.53625237941742,-0.14180041849613
475,1503416663,-9.07378959655762,0.03665079921484,-85.48391723632812,-0.19491134583950,-0.49171519279480,9.88667297363281,-6.55135250091553,1.11062026023865,-0.54427683353424
476,1503424996,-9.08698463439941,0.04073652997613,-85.47971343994141,-0.80616861581802,-0.51442718505859,9.73883056640625,-4.90507459640503,0.47705233097076,0.27646726369858
477,1503433329,-9.05037021636963,0.03461240977049,-85.47377777099609,-0.83492362499237,-0.66349798440933,9.83668041229248,-5.66425561904907,-0.80928182601929,0.09821779280901
478,1503441662,-9.05988311767578,0.02572676353157,-85.47811889648438,0.22852836549282,-0.53404492139816,9.72476196289062,-4.47836732864380,-0.89934134483337,-0.98197299242020
479,1503449995,-9.01995944976807,0.05711405724287,-85.48483276367188,-1.14482760429382,-0.57421356439590,9.72666263580322,-5.25440120697021,3.79745149612427,-0.68725556135178
480,1503458328,-9.03703975677490,0.05644042789936,-85.47921752929688,-2.33202552795410,-0.47044986486435,9.83364868164062,-5.40217065811157,-0.11283071339130,0.35220855474472
481,1503466661,-8.99298381805420,0.03257659077644,-85.47358703613281,-0.44108730554581,-0.44987690448761,9.74724578857422,-4.74816226959229,-3.01653718948364,-0.29264262318611
482,1503474994,-9.02602291107178,0.05264582857490,-85.47106170654297,-0.73393785953522,-0.87302476167679,9.51643657684326,-7.33453464508057,2.40326881408691,0.37564566731453
483,1503483327,-8.97165966033936,0.04386220127344,-85.46718597412109,-1.30407333374023,-0.26839435100555,10.50162315368652,-3.50873970985413,-1.32901990413666,-0.18472982943058
484,1503491660,-8.99333000183105,0.04034379497170,-85.47668457031250,-0.37370148301125,-0.97513669729233,8.81477928161621,-5.98448467254639,-0.16700482368469,-1.49464201927185
485,1503499993,-8.97463035583496,0.07124401628971,-85.48161315917969,-1.25379431247711,-0.29172909259796,10.86123275756836,-7.77750682830811,3.45673108100891,-0.51323246955872
486,1503508326,-8.94869422912598,0.02849128469825,-85.46956634521484,-1.10889160633087,-0.39260387420654,9.40289306640625,-0.29156684875488,-5.22215318679810,0.32608202099800
487,1503516659,-8.87818527221680,0.01031187921762,-85.46765899658203,1.28977322578430,-0.48591163754463,9.52785205841064,-1.54292476177216,-2.55727410316467,-0.60846620798111
488,1503524992,-8.99815654754639,0.07873759418726,-85.48060607910156,-0.10052944719791,-1.65765595436096,9.21462726593018,-17.81280708312988,8.42361354827881,-0.56005537509918
489,1503533325,-8.89817142486572,0.03522969037294,-85.46385955810547,-0.61733335256577,0.92383027076721,10.89051342010498,1.99884521961212,-5.82690572738647,0.69223755598068
490,1503541658,-8.89694786071777,0.01963636837900,-85.48109436035156,0.77171403169632,-1.34872996807098,9.39808464050293,-3.28630661964417,-1.46024203300476,-2.63647341728210
491,1503549991,-8.87483119964600,0.06621442735195,-85.47512054443359,0.20467618107796,-0.43131920695305,9.63050079345703,-7.35277032852173,5.03379917144775,1.07017564773560
492,1503558324,-8.91498947143555,0.05225309357047,-85.47257995605469,-0.76135659217834,-0.40050950646400,9.74351596832275,-8.26806926727295,-1.63411128520966,-0.26185429096222
493,1503566657,-8.87261867523193,0.03082763589919,-85.46059417724609,0.94379669427872,-0.76927310228348,9.99286365509033,-4.87487602233887,-3.07903599739075,0.48914229869843
494,1503574990,-8.86682891845703,0.07044573128223,-85.47560882568359,-0.38376599550247,-0.12689450383186,9.84588623046875,-2.76766920089722,5.04207277297974,-1.35115087032318
495,1503583323,-8.81877899169922,0.07782063633204,-85.45680236816406,-2.79296541213989,-1.37703526020050,9.48217201232910,-4.18311214447021,0.22795391082764,1.82110822200775
496,1503591656,-8.89011955261230,0.05347740277648,-85.47827148437500,0.26680704951286,-0.18840490281582,10.26439380645752,-12.03738689422607,-2.42320990562439,-3.30152201652527
497,1503599989,-8.74680137634277,0.04322998225689,-85.45953369140625,-0.10491529852152,-0.14692860841751,9.48966884613037,7.28247404098511,-2.00193238258362,1.51558184623718
498,1503608322,-8.86717033386230,0.10567461699247,-85.45894622802734,-2.53275036811829,-1.98523163795471,8.98881721496582,-17.93939590454102,7.46105718612671,0.90967702865601
499,1503616655,-8.85935974121094,0.06861609965563,-85.47428894042969,-0.04410389810801,0.76005208492279,11.08360385894775,-8.99607944488525,-4.53802347183228,-3.01715254783630
500,1503624988,-8.71558761596680,0.03589862585068,-85.45722198486328,-0.73571151494980,-0.54538625478745,10.11914920806885,13.74235916137695,-4.12840032577515,1.11745953559875
501,1503633321,-8.73774051666260,0.07926223427057,-85.45606994628906,-1.39157319068909,-1.84194970130920,8.60188674926758,-12.57812690734863,4.59707689285278,0.38553267717361
502,1503641654,-8.78017044067383,0.04138283804059,-85.47147369384766,1.37358748912811,0.36644899845123,9.86774635314941,-8.61516857147217,-4.14776420593262,-2.82563424110413
503,1503649987,-8.80594825744629,0.07973948866129,-85.48556518554688,0.21179443597794,-1.10928928852081,9.72228145599365,-12.93662643432617,4.19749546051025,-1.51574838161469
504,1503658320,-8.67534732818604,0.04961108788848,-85.46195220947266,-0.95436775684357,1.59638512134552,10.54265880584717,12.13009548187256,-3.94141626358032,1.94251990318298
505,1503666653,-8.77326869964600,0.06207021698356,-85.45670318603516,0.69484990835190,-3.41185450553894,8.16147232055664,-21.59949111938477,0.85055935382843,0.32231682538986
506,1503674986,-8.74366283416748,0.04228442907333,-85.46627807617188,3.03439164161682,1.92397606372833,11.71218299865723,-0.00051228469238,-2.11171460151672,-1.80626463890076
507,1503683319,-8.66185855865479,0.06559331715107,-85.44326019287109,-1.03569710254669,-3.14487648010254,7.91843891143799,0.01737925969064,1.81106734275818,2.65065097808838
508,1503691652,-8.79136753082275,0.07273385673761,-85.49562072753906,1.65331733226776,0.63926929235458,11.96167469024658,-19.10356521606445,1.85909473896027,-6.39049816131592
509,1503699985,-8.53502845764160,-0.00207979278639,-85.44736480712891,2.85289168357849,-0.65398651361465,8.12791824340820,20.97877502441406,-10.20412731170654,3.93241477012634
510,1503708318,-8.81767940521240,0.10387571156025,-85.49555206298828,1.02485609054565,-1.40660250186920,8.81274604797363,-37.49668502807617,13.49945259094238,-4.10691595077515
511,1503716651,-8.57690906524658,0.00065783265745,-85.47593688964844,2.49351978302002,1.76415407657623,12.50243663787842,19.07673645019531,-12.85463905334473,0.01427994295955
512,1503724984,-8.60329437255859,0.01780289039016,-85.44795227050781,2.74528717994690,-2.90284657478333,6.56765985488892,-6.76302909851074,1.58968365192413,3.31887507438660
513,1503733317,-8.79165840148926,0.12291447073221,-85.47323608398438,1.23065650463104,-0.34994915127754,11.76476287841797,-32.47396469116211,12.83631706237793,-1.54574370384216
514,1503741650,-8.54557895660400,0.00222621485591,-85.46052551269531,1.79399228096008,0.99713194370270,11.00249099731445,25.91815567016602,-14.49159717559814,-0.98648178577423
515,1503749983,-8.54929733276367,0.02675470523536,-85.44002532958984,2.29648828506470,-3.08945679664612,6.98840904235840,-10.20645332336426,2.61164045333862,2.49996232986450
516,1503758316,-8.71202182769775,0.12488542497158,-85.46623229980469,0.42968270182610,0.03344696760178,10.90374469757080,-23.14880180358887,12.16893196105957,-1.65447545051575
517,1503766649,-8.56201457977295,0.09602141380310,-85.48609161376953,-2.52521157264709,0.60356873273849,10.68608951568604,8.31193542480469,-2.83821129798889,-3.20375204086304
518,1503774982,-8.51862525939941,0.10021899640560,-85.46860504150391,-3.26660633087158,-0.45753782987595,9.44362163543701,1.56345462799072,0.24183680117130,1.84013962745667
519,1503783315,-8.54308032989502,0.17287065088749,-85.45611572265625,-4.64182281494141,-0.47335356473923,8.64611816406250,-12.70258808135986,8.56098270416260,2.33731222152710
520,1503791648,-8.62338066101074,0.16537491977215,-85.47880554199219,-6.61115598678589,-0.12771007418633,10.27379512786865,-13.28024101257324,-0.42609286308289,-3.13687348365784
521,1503799981,-8.51269054412842,0.11504094302654,-85.43035125732422,-4.80214357376099,-0.97311371564865,10.59972858428955,3.52314829826355,-7.01223039627075,4.41762351989746
522,1503808314,-8.58380317687988,0.14895336329937,-85.43511962890625,-2.56435203552246,-1.58162224292755,8.44006156921387,-12.19977951049805,4.16514396667480,-0.27274039387703
523,1503816647,-8.51608657836914,0.07939969003201,-85.46277618408203,-0.80826127529144,-0.49508985877037,10.12087154388428,-1.60585904121399,-8.39340114593506,-5.00225543975830
524,1503824980,-8.48085689544678,-0.00740093691275,-85.47182464599609,3.67162108421326,-1.26350140571594,9.25158786773682,0.54864412546158,-10.08734798431396,-2.92670822143555
525,1503833313,-8.50406360626221,-0.00808566343039,-85.48552703857422,7.47921323776245,-0.44159346818924,9.83826446533203,-12.46040534973145,-0.59496760368347,-2.16581225395203
526,1503841646,-8.51071643829346,-0.02855019085109,-85.50167083740234,8.30399894714355,0.32027164101601,10.70981788635254,-4.49378681182861,-2.08853363990784,-2.59154582023621
527,1503849979,-8.42938423156738,-0.05320590361953,-85.47617340087891,8.58561134338379,-0.32062149047852,9.96339607238770,0.12869873642921,-3.66629362106323,2.10639953613281
528,1503858312,-8.48527526855469,-0.02181605063379,-85.46012115478516,7.77193260192871,-1.02194488048553,9.31100463867188,-10.41308498382568,3.49453759193420,2.14556384086609
529,1503866645,-8.48059368133545,0.02895359881222,-85.45767211914062,5.06722831726074,-0.78804272413254,10.12749004364014,-9.10499095916748,6.36868572235107,0.85942178964615
530,1503874978,-8.45529270172119,0.02745394594967,-85.45594787597656,3.81059837341309,-0.58463764190674,9.85788345336914,-0.68612849712372,-0.15806543827057,-0.13483332097530
531,1503883311,-8.39678001403809,0.07124273478985,-85.46891784667969,1.07628846168518,-0.71810805797577,9.71176815032959,-2.59841060638428,6.32467985153198,-1.05387210845947
532,1503891644,-8.43718528747559,0.16426244378090,-85.48875427246094,-4.30670118331909,-0.08162594586611,9.43250179290771,-8.57784938812256,11.44314765930176,-1.03658258914948
533,1503899977,-8.40015029907227,0.15202695131302,-85.46588134765625,-6.47235059738159,0.00900436751544,9.74772453308105,-5.16185760498047,-0.78102928400040,2.27591443061829
534,1503908310,-8.41602802276611,0.14000663161278,-85.44288635253906,-5.09613132476807,-0.55578541755676,9.72105121612549,-5.66028451919556,-1.77624475955963,2.20544958114624
535,1503916643,-8.38530731201172,0.15854169428349,-85.42537689208984,-5.63038301467896,-1.38856077194214,9.51669979095459,-5.93709754943848,2.52772808074951,2.12768483161926
536,1503924976,-8.45660114288330,0.14739052951336,-85.43785858154297,-4.81373119354248,-1.24253368377686,9.44314765930176,-12.31309795379639,-1.04721248149872,-1.99178886413574
537,1503933309,-8.33879470825195,0.07734679430723,-85.44662475585938,-2.10225009918213,-0.46707046031952,10.53110408782959,4.57266664505005,-7.95132541656494,-2.64208292961121
538,1503941642,-8.36173629760742,0.06269773840904,-85.47242736816406,0.35672351717949,-1.51871252059937,8.54488277435303,-6.52176856994629,-1.23294126987457,-3.63115048408508
539,1503949975,-8.36656188964844,0.00827861670405,-85.49216461181641,4.48660326004028,0.40240141749382,10.01772594451904,-10.10701942443848,-6.18489027023315,-3.68330168724060
540,1503958308,-8.30806732177734,-0.04890459030867,-85.49289703369141,7.54696369171143,0.13937893509865,10.62377357482910,3.23306751251221,-6.71992063522339,-1.39605271816254
541,1503966641,-8.27726173400879,-0.03222142159939,-85.48217010498047,7.21193361282349,-0.36768946051598,9.44959354400635,-5.81056356430054,1.92113184928894,1.17783224582672
542,1503974974,-8.35663795471191,-0.01044677477330,-85.45796966552734,5.81799364089966,-0.98919463157654,9.56013011932373,-13.32260513305664,2.22232961654663,2.93583965301514
543,1503983307,-8.33150100708008,-0.01652692258358,-85.46051025390625,6.69079256057739,-0.32872211933136,11.38408946990967,-6.51031827926636,0.01730241440237,-0.67306518554688
544,1503991640,-8.21216297149658,-0.00880155246705,-85.45496368408203,4.76086759567261,-0.64419031143188,9.16103935241699,10.51112270355225,0.88016927242279,0.47871735692024
545,1503999973,-8.26582527160645,0.07564693689346,-85.46549987792969,-0.47062423825264,-1.52553129196167,8.05583953857422,-15.94958114624023,11.38101100921631,-0.01244852412492
546,1504008306,-8.33483123779297,0.13093997538090,-85.47312164306641,-3.22658562660217,0.19549846649170,11.00428771972656,-12.10196113586426,6.75769042968750,-0.25931859016418
547,1504016639,-8.21442127227783,0.14081986248493,-85.45603179931641,-6.67754316329956,0.11402276903391,10.37434577941895,5.00641727447510,2.20931744575500,1.92943048477173
548,1504024972,-8.25263023376465,0.20299579203129,-85.43695068359375,-9.48502063751221,-1.27680361270905,8.72703170776367,-8.42664909362793,7.11718463897705,3.01906061172485
549,1504033305,-8.26604366302490,0.18480901420116,-85.43027496337891,-8.32358741760254,-0.78910082578659,10.06311988830566,-11.09734249114990,-1.34190428256989,0.18300090730190
550,1504041638,-8.25146961212158,0.17264440655708,-85.43212890625000,-8.42170238494873,-0.78835296630859,9.54506206512451,-2.09852313995361,-1.34894812107086,-0.74424731731415
551,1504049971,-8.19482803344727,0.19219720363617,-85.45959472656250,-9.27596759796143,-0.42105874419212,9.68887233734131,-2.61874866485596,3.03161120414734,-3.28771543502808
552,1504058304,-8.19885253906250,0.13331858813763,-85.47480773925781,-6.20082712173462,-0.47749787569046,9.46411132812500,-4.33682203292847,-6.66712856292725,-3.13021302223206
553,1504066637,-8.17727565765381,0.06161643937230,-85.48352813720703,-1.04750347137451,0.16521172225475,9.92129039764404,-6.81254196166992,-8.80353546142578,-2.73708605766296
554,1504074970,-8.16888618469238,0.02078170701861,-85.46923828125000,1.59794557094574,-0.24259215593338,9.87655162811279,-2.86528539657593,-5.02858686447144,0.68327254056931
555,1504083303,-8.16866016387939,0.00256815110333,-85.45824432373047,4.20560359954834,-0.83325445652008,9.21602153778076,-9.38753986358643,-3.04404664039612,0.42974281311035
556,1504091636,-8.19336032867432,-0.03239730000496,-85.45043182373047,6.47160673141479,-0.83856564760208,10.67914581298828,-6.84760856628418,-4.22132921218872,0.01525328028947
557,1504099969,-8.14069747924805,-0.04488886520267,-85.44572448730469,7.17242813110352,-1.05566918849945,9.81610488891602,-3.07662796974182,-2.02969741821289,-0.14853693544865
558,1504108302,-8.15648555755615,-0.06760863959789,-85.45376586914062,8.19314861297607,-0.98549211025238,9.76423931121826,-5.79135274887085,-2.49912929534912,-1.65654933452606
559,1504116635,-8.13641548156738,-0.04302166029811,-85.47464752197266,8.38534736633301,-0.54344511032104,10.32330608367920,-6.94729948043823,3.32614970207214,-2.48386406898499
560,1504124968,-8.06796455383301,-0.00773647008464,-85.47286224365234,4.38574123382568,0.15114568173885,9.07012557983398,4.30848121643066,4.22469758987427,0.49395772814751
561,1504133301,-8.08545494079590,0.00617235666141,-85.45538330078125,2.26636385917664,-1.12240374088287,9.31618022918701,-11.42328453063965,2.02702140808105,1.95535254478455
562,1504141634,-8.15697479248047,0.04304471239448,-85.44836425781250,2.30259084701538,-0.62465757131577,10.17243576049805,-12.49997711181641,4.32351684570312,1.14417517185211
563,1504149967,-8.06208133697510,0.08273837715387,-85.44917297363281,-2.17621088027954,0.04457347840071,10.16078376770020,2.08255267143250,5.63637399673462,0.26524820923805
564,1504158300,-8.06006145477295,0.10671621561050,-85.44269561767578,-5.20390653610229,-1.20206618309021,9.54100322723389,-3.68911623954773,2.80418252944946,0.85565638542175
565,1504166633,-8.08320522308350,0.12641750276089,-85.45422363281250,-3.98709583282471,-0.15204766392708,9.24559020996094,-12.08264541625977,3.43395972251892,-1.34487569332123
566,1504174966,-8.04931640625000,0.15054437518120,-85.45304870605469,-7.24787616729736,0.05535412207246,10.33019256591797,0.12526641786098,2.91196680068970,0.23066899180412
567,1504183299,-8.02515697479248,0.15190827846527,-85.44960021972656,-8.26020526885986,-0.81753128767014,9.51492309570312,-6.38045454025269,0.65489196777344,0.06497050821781
568,1504191632,-8.05095863342285,0.11390585452318,-85.44003295898438,-4.58913755416870,-0.42788502573967,9.38208866119385,-7.05162429809570,-4.60787296295166,0.18213000893593
569,1504199965,-8.00778007507324,0.10846389085054,-85.43808746337891,-4.20361566543579,-0.82192188501358,9.48805427551270,-4.09325695037842,-0.70636373758316,-0.23293584585190
570,1504208298,-8.05547523498535,0.08053820580244,-85.44242858886719,-2.73838281631470,-1.23087680339813,9.49962902069092,-9.68661403656006,-3.17793273925781,-1.30025553703308
571,1504216631,-7.99341154098511,-0.00243795057759,-85.45073699951172,2.61551237106323,-0.25949716567993,10.67245292663574,-1.79827332496643,-10.05830192565918,-2.87512135505676
572,1504224964,-7.96556472778320,-0.01688593626022,-85.44657897949219,4.13039827346802,-1.30015635490417,9.00711727142334,-0.63331192731857,-1.71886873245239,-0.06403558701277
573,1504233297,-8.03014373779297,-0.01753352396190,-85.47441101074219,5.35811424255371,-0.56658381223679,10.24118423461914,-16.97030639648438,0.04573423042893,-3.76560115814209
574,1504241630,-7.93369865417480,-0.08595284074545,-85.46839904785156,8.75180625915527,0.45132568478584,10.67495536804199,7.58907604217529,-8.16271972656250,-0.74324834346771
575,1504249963,-7.93776845932007,-0.06380806863308,-85.46578979492188,7.30729293823242,-1.29470372200012,8.78237438201904,-9.66043472290039,2.59460663795471,0.26020222902298
576,1504258296,-7.97725486755371,-0.02515174634755,-85.45612335205078,4.61714696884155,0.03837930783629,10.68892288208008,-8.73409557342529,4.50068998336792,1.47234451770782
577,1504266629,-7.90361166000366,-0.02048245817423,-85.44734954833984,4.69908857345581,-0.48316022753716,9.88550090789795,-0.32496780157089,0.99791777133942,0.72825115919113
578,1504274962,-7.92820262908936,0.05975690484047,-85.44880676269531,0.09183917194605,-0.82681035995483,9.24973106384277,-6.95823669433594,9.62889289855957,0.83506268262863
579,1504283295,-7.91826248168945,0.11415259540081,-85.44692230224609,-5.39750194549561,-0.33185878396034,9.89946651458740,-7.98262596130371,7.34497213363647,0.79377239942551
580,1504291628,-7.91153287887573,0.10954862087965,-85.43264007568359,-5.67351436614990,-0.44896340370178,9.82890033721924,-3.21230721473694,-0.71461158990860,1.30364942550659
581,1504299961,-7.89756917953491,0.17139104008675,-85.43471527099609,-7.77838182449341,-0.66438305377960,9.25831317901611,-7.47548913955688,8.09815883636475,0.40676689147949
582,1504308294,-7.91140651702881,0.18970245122910,-85.43335723876953,-10.74314594268799,-0.65080118179321,9.95425987243652,-5.69012546539307,2.22350788116455,0.14283779263496
583,1504316627,-7.87295007705688,0.13184455037117,-85.42924499511719,-7.62725973129272,-0.75084060430527,9.58446121215820,-4.51709699630737,-6.71359491348267,-0.89619106054306
584,1504324960,-7.88860797882080,0.12820746004581,-85.43550872802734,-5.23111391067505,-0.74404335021973,9.64559555053711,-5.91560792922974,-0.25819149613380,-1.12277448177338
585,1504333293,-7.84990501403809,0.09105201065540,-85.44195556640625,-4.07441186904907,-0.59642618894577,9.55653381347656,-4.45674848556519,-4.73146104812622,-1.85357403755188
586,1504341626,-7.87650251388550,-0.00950975902379,-85.43499755859375,1.96373593807220,-1.23512327671051,9.89016628265381,-7.24065971374512,-11.99730205535889,-1.14398324489594
587,1504349959,-7.76296949386597,-0.03741876780987,-85.44694519042969,6.03008937835693,0.40045967698097,9.94763660430908,4.55045795440674,-3.86080813407898,-2.40489482879639
588,1504358292,-7.83543252944946,0.00549744861200,-85.48855590820312,3.53910446166992,-1.29412364959717,8.97397136688232,-12.75596714019775,5.85045814514160,-4.56891393661499
589,1504366625,-7.79720306396484,-0.03838182985783,-85.47212982177734,4.55522394180298,0.74402862787247,11.69302463531494,-4.47890567779541,-5.93568992614746,0.72205257415771
590,1504374958,-7.77276468276978,-0.07058831304312,-85.44040679931641,7.52338933944702,-0.51491910219193,8.82563209533691,-1.13255894184113,-4.27557945251465,2.92754030227661
591,1504383291,-7.79939126968384,0.01686160080135,-85.44173431396484,3.88115048408508,-0.86453342437744,9.87779426574707,-12.26950168609619,10.25953960418701,0.81029361486435
592,1504391624,-7.79935359954834,0.05584491416812,-85.43138885498047,-1.00830578804016,-0.77771759033203,10.02115154266357,-4.07686471939087,4.53319549560547,1.54588329792023
593,1504399957,-7.75410652160645,0.04444148764014,-85.42211151123047,-0.92890965938568,-0.85649901628494,9.45238876342773,-3.61255455017090,-1.26685440540314,0.49900370836258
594,1504408290,-7.77804279327393,0.08742944151163,-85.43999481201172,-2.48925328254700,-0.82485550642014,9.55802536010742,-6.95859336853027,5.46737194061279,-1.75073313713074
595,1504416623,-7.73719120025635,0.08344659954309,-85.44136810302734,-4.01372241973877,-0.27847966551781,9.90163040161133,-4.10214519500732,-0.28137236833572,-0.64509451389313
596,1504424956,-7.73139762878418,0.05321871116757,-85.43545532226562,-1.81205856800079,-0.52641063928604,9.75480651855469,-3.40551519393921,-3.62262129783630,-0.10532574355602
597,1504433289,-7.73097610473633,0.09918379783630,-85.44221496582031,-2.31018662452698,-0.65079641342163,9.44486427307129,-8.93352890014648,5.52000904083252,-0.46738302707672
598,1504441622,-7.73502111434937,0.06571326404810,-85.43096160888672,-2.77624773979187,-0.46490275859833,9.91528797149658,-4.59568071365356,-4.09530735015869,0.47600224614143
599,1504449955,-7.70369529724121,-0.01239636726677,-85.42476654052734,2.32157588005066,-1.16792130470276,9.65928649902344,-5.20414638519287,-9.58008289337158,-0.95968866348267
600,1504458288,-7.72735357284546,-0.00411604298279,-85.44376373291016,4.88650608062744,-0.65702360868454,9.94500064849854,-6.95879840850830,1.35774648189545,-2.44838809967041
601,1504466621,-7.64236211776733,-0.00755418930203,-85.45527648925781,3.34145522117615,-0.12949445843697,9.85337829589844,1.27275836467743,-0.42998611927032,-1.86059248447418
602,1504474954,-7.66629314422607,-0.02061906270683,-85.46373748779297,3.97498178482056,-0.59501481056213,9.28525352478027,-7.00129318237305,-1.35322570800781,-1.53787863254547
603,1504483287,-7.67548227310181,0.01270500663668,-85.45516204833984,3.48170471191406,-0.13904608786106,10.52320861816406,-10.02413177490234,3.90182971954346,1.12322282791138
604,1504491620,-7.66759681701660,0.01503239478916,-85.43054199218750,1.41656088829041,-0.24963988363743,9.90494441986084,-3.19363379478455,-0.05263724923134,2.64304304122925
605,1504499953,-7.63866853713989,-0.00183561339509,-85.41528320312500,2.09490370750427,-1.07349872589111,9.61058998107910,-5.44576549530029,-1.92078578472137,1.14122951030731
606,1504508286,-7.65765476226807,0.06809700280428,-85.41822052001953,-0.46937775611877,-1.15035641193390,9.49381732940674,-6.42484521865845,8.42968463897705,0.44278052449226
607,1504516619,-7.63402891159058,0.12278384715319,-85.43241882324219,-5.60736703872681,-0.67586427927017,9.76257324218750,-6.05272150039673,7.17292213439941,-1.14495646953583
608,1504524952,-7.62353944778442,0.07221860438585,-85.43849945068359,-4.26003408432007,-0.40880191326141,9.91569519042969,-2.89722609519958,-5.85164833068848,-1.85170423984528
609,1504533285,-7.58428144454956,0.07380106300116,-85.43738555908203,-2.36026906967163,-0.38096085190773,9.58466720581055,-4.13726234436035,0.40412858128548,-0.26605504751205
610,1504541618,-7.59906768798828,0.09967555850744,-85.44650268554688,-3.99423193931580,-0.12200795859098,9.40065383911133,-5.93922328948975,3.28944396972656,-0.99680358171463
611,1504549951,-7.62529230117798,0.07821892946959,-85.44181060791016,-2.99701714515686,-0.76596903800964,9.06205654144287,-11.98805141448975,-2.61403536796570,-0.26415961980820
612,1504558284,-7.57654809951782,0.00126870768145,-85.42537689208984,0.50847870111465,-0.16115069389343,12.05020332336426,1.67146980762482,-9.34538078308105,0.40986621379852
613,1504566617,-7.54232931137085,-0.02472912706435,-85.42427062988281,3.62194728851318,-1.88831055164337,7.75932407379150,-4.71729660034180,-3.32518863677979,-0.68382322788239
614,1504574950,-7.62812614440918,-0.04609481617808,-85.45328521728516,6.21089267730713,-0.33750018477440,10.39062500000000,-14.48341655731201,-2.01458549499512,-4.11418437957764
615,1504583283,-7.50007963180542,-0.10938895493746,-85.45517730712891,8.81867790222168,-0.22613213956356,10.15450572967529,6.58850669860840,-7.57856130599976,-1.65693378448486
616,1504591616,-7.51018428802490,-0.11427896469831,-85.45981597900391,8.66306781768799,-0.70656079053879,9.11353015899658,-5.40734434127808,-0.44143578410149,-0.95236295461655
617,1504599949,-7.56321716308594,-0.07427875697613,-85.44262695312500,7.62744808197021,-0.88900941610336,9.70547962188721,-15.14334392547607,4.90024757385254,2.30237412452698
618,1504608282,-7.56829452514648,-0.04203128069639,-85.44100189208984,6.75306749343872,0.15388393402100,11.41803836822510,-4.81283855438232,3.87823915481567,0.37702879309654
619,1504616615,-7.43403863906860,-0.03360539302230,-85.42144012451172,3.55550861358643,-0.95825582742691,9.19504261016846,7.36815357208252,1.63176798820496,2.15849924087524
620,1504624948,-7.57358169555664,0.06704130768776,-85.42447662353516,-0.89452725648880,-1.62585961818695,8.39763927459717,-20.95683288574219,12.08888816833496,0.88972359895706
621,1504633281,-7.50863552093506,0.08197082579136,-85.43539428710938,-4.14412736892700,0.68703472614288,11.39430809020996,-0.94590812921524,3.20545506477356,-1.36024403572083
622,1504641614,-7.43583345413208,0.12861941754818,-85.42734527587891,-7.70527076721191,-1.00346958637238,8.85120773315430,4.51457357406616,5.49303722381592,1.36048746109009
623,1504649947,-7.48536157608032,0.18205431103706,-85.43906402587891,-9.41431045532227,-0.30290350317955,9.55512523651123,-14.67030048370361,7.61971235275269,-0.89012056589127
624,1504658280,-7.47583007812500,0.13229021430016,-85.43154144287109,-9.12298011779785,-0.02474736981094,10.17536830902100,-3.08782172203064,-5.96699047088623,-0.20683495700359
625,1504666613,-7.44615888595581,0.13654714822769,-85.41953277587891,-8.14573001861572,-0.49922186136246,9.62060451507568,-5.14387655258179,0.83898150920868,1.11500048637390
626,1504674946,-7.46041917800903,0.12954832613468,-85.41066741943359,-6.99734640121460,-0.81769651174545,9.57981967926025,-5.95046901702881,-0.89839380979538,0.61974930763245
627,1504683279,-7.45288753509521,0.08584184944630,-85.42140197753906,-4.35743999481201,-0.90106528997421,9.49964714050293,-7.79866409301758,-5.06767463684082,-2.43629813194275
628,1504691612,-7.45565032958984,0.02466039918363,-85.44158172607422,-1.08563280105591,-0.22584357857704,10.00467205047607,-4.57613754272461,-6.89174175262451,-3.67876815795898
629,1504699945,-7.33029985427856,-0.05131393298507,-85.40533447265625,2.46990323066711,-1.42461788654327,9.36744976043701,6.37867450714111,-9.99452114105225,2.63259267807007
630,1504708278,-7.53882074356079,-0.05996479839087,-85.44664764404297,8.07614421844482,-1.33146619796753,9.70128726959229,-29.28185462951660,-0.31372338533401,-5.37371683120728
631,1504716611,-7.34713029861450,-0.09585407376289,-85.46276855468750,8.43955326080322,1.38308608531952,11.66457462310791,14.37185573577881,-4.36630582809448,-2.97786021232605
632,1504724944,-7.33904027938843,-0.11929788440466,-85.44969940185547,6.14249897003174,-1.95107448101044,7.86267232894897,-3.28912401199341,-2.91761517524719,0.87097370624542
633,1504733277,-7.42839670181274,-0.12690544128418,-85.45311737060547,9.52621364593506,0.08199045062065,10.73414039611816,-19.38101768493652,-0.67575490474701,-0.96852576732635
634,1504741610,-7.34147167205811,-0.08693254739046,-85.42578125000000,8.71769523620605,-0.34232103824615,10.59359073638916,6.16592216491699,4.40686511993408,3.54325532913208
635,1504749943,-7.35316848754883,-0.01482535246760,-85.42742919921875,2.75916886329651,-0.87482815980911,8.51301670074463,-10.01470756530762,9.27206039428711,0.53404414653778
636,1504758276,-7.39480257034302,0.04430104047060,-85.42855834960938,-1.34897351264954,-0.55945414304733,10.20910263061523,-9.27573394775391,7.12702083587646,0.44944018125534
637,1504766609,-7.32170581817627,0.08005581796169,-85.42271423339844,-4.54490852355957,0.03093728236854,10.39037418365479,0.18164335191250,5.17836570739746,0.90660303831100
638,1504774942,-7.32870340347290,0.12986719608307,-85.40156555175781,-7.84714746475220,-1.30447256565094,8.88558673858643,-5.13119697570801,5.67845821380615,2.95374369621277
639,1504783275,-7.34624767303467,0.11154816299677,-85.41670989990234,-6.96735620498657,-0.22540767490864,9.60173511505127,-10.69507026672363,-1.12851202487946,-2.41496133804321
640,1504791608,-7.32608222961426,0.12519019842148,-85.40893554687500,-7.47347211837769,-0.93968755006790,9.57237529754639,-1.87706232070923,1.58053922653198,0.80711740255356
641,1504799941,-7.30261802673340,0.15279492735863,-85.42451477050781,-9.06852245330811,-0.18943466246128,10.30085468292236,-5.73758888244629,3.87631773948669,-1.87790787220001
642,1504808274,-7.28387165069580,0.06532095372677,-85.41249847412109,-5.42971611022949,-1.00549900531769,9.16079139709473,-2.05672073364258,-10.51776981353760,-0.23065620660782
643,1504816607,-7.31617927551270,0.01007282268256,-85.42232513427734,0.89488404989243,-0.58828240633011,9.51428604125977,-12.41724395751953,-6.58337116241455,-2.49467277526855
644,1504824940,-7.24326372146606,-0.02981890179217,-85.44066619873047,2.32432961463928,0.20640420913696,10.18530082702637,4.43762826919556,-4.39217519760132,-3.11771321296692
645,1504833273,-7.24101209640503,-0.03973378241062,-85.43979644775391,3.17397212982178,-1.45457184314728,8.91634845733643,-8.23548889160156,-1.48603546619415,-0.50352460145950
646,1504841606,-7.32802295684814,-0.06101109832525,-85.43849182128906,6.39624977111816,-0.21521243453026,10.70550251007080,-14.76066780090332,-2.47487354278564,-0.49632716178894
647,1504849939,-7.23795413970947,-0.09135574847460,-85.43753051757812,7.36199378967285,0.03509503975511,10.02786731719971,2.32640027999878,-3.75048756599426,-0.82774966955185
648,1504858272,-7.18764734268188,-0.11570753902197,-85.42649841308594,6.98329257965088,-0.91119086742401,10.02212142944336,1.71173536777496,-2.98856687545776,0.61454957723618
649,1504866605,-7.23324537277222,-0.08971095085144,-85.41761779785156,7.26732587814331,-1.55994749069214,8.71380805969238,-13.97008132934570,3.25514698028564,1.00140142440796
650,1504874938,-7.28453445434570,-0.00465306639671,-85.43594360351562,3.99224114418030,-0.00255093723536,11.28375625610352,-10.49003124237061,10.47846698760986,-1.21898186206818
651,1504883271,-7.15039730072021,0.00370388408192,-85.42199707031250,-0.87328612804413,-0.26990669965744,9.71605587005615,7.65992593765259,1.50715470314026,1.44237625598907
652,1504891604,-7.23103332519531,0.03575710952282,-85.41523742675781,-2.04195618629456,-1.23995685577393,8.48451328277588,-14.02031135559082,3.79125332832336,0.95690941810608
653,1504899937,-7.22733497619629,0.07774978131056,-85.41956329345703,-3.88000249862671,0.16629277169704,10.77502536773682,-8.00721549987793,5.86802959442139,-0.24064576625824
654,1504908270,-7.16087627410889,0.11559227854013,-85.39959716796875,-8.36741638183594,-0.63422989845276,9.59121704101562,3.62063646316528,4.28404521942139,2.61525225639343
655,1504916603,-7.19744014739990,0.14822614192963,-85.41743469238281,-8.76812934875488,-0.92188853025436,9.19525718688965,-12.81675052642822,4.77430248260498,-1.99089264869690
656,1504924936,-7.17435216903687,0.11997428536415,-85.41756439208984,-8.07753944396973,-0.01408333331347,10.12931823730469,-1.58700668811798,-3.28310394287109,-0.77011752128601
657,1504933269,-7.15053796768188,0.09437362849712,-85.41342926025391,-7.10781812667847,-0.91962933540344,9.23865127563477,-5.54335594177246,-3.00718784332275,-0.39125743508339
658,1504941602,-7.18239545822144,0.03032156080008,-85.42216491699219,-1.94139063358307,-0.29396897554398,9.87013435363770,-8.18725776672363,-7.41719102859497,-2.32892322540283
659,1504949935,-7.11225652694702,-0.01490368787199,-85.41810607910156,1.11883962154388,-0.55370366573334,9.57541656494141,0.02647231519222,-5.78950881958008,-0.72352534532547
660,1504958268,-7.15796136856079,-0.01340189948678,-85.42058563232422,1.70071852207184,-1.17429268360138,9.46249485015869,-9.85774135589600,0.29542180895805,-0.60308712720871
661,1504966601,-7.15786457061768,-0.07456669211388,-85.42121124267578,5.44360876083374,-0.58257943391800,10.34036922454834,-8.36747932434082,-7.63811540603638,-1.54925143718719
662,1504974934,-7.10893678665161,-0.12712913751602,-85.42070007324219,8.94961738586426,-0.30881735682487,10.10650920867920,1.49081254005432,-6.18740034103394,-1.05151557922363
663,1504983267,-7.09405326843262,-0.09808775782585,-85.41729736328125,7.35495948791504,-1.36874568462372,9.10293674468994,-6.55896043777466,3.25870728492737,0.33809512853622
664,1504991600,-7.14500570297241,-0.07458675652742,-85.43647003173828,6.40700817108154,-0.18137229979038,10.45630359649658,-10.50416755676270,3.16234636306763,-2.26335072517395
665,1504999933,-7.03396081924438,-0.07360874861479,-85.42537689208984,5.38257455825806,-0.24525462090969,10.12427139282227,5.01625299453735,0.28015568852425,0.93085968494415
666,1505008266,-7.10229635238647,-0.00200017821044,-85.42453765869141,1.05488479137421,-1.02858829498291,9.16872119903564,-12.59505939483643,8.59330749511719,0.82353621721268
667,1505016599,-7.08089637756348,0.01050632633269,-85.41926574707031,-1.16547346115112,0.29640844464302,10.42041492462158,-5.75031948089600,2.07407450675964,0.42523473501205
668,1505024932,-7.02925109863281,0.03076573647559,-85.40140533447266,-2.67511701583862,-0.45815074443817,9.18593978881836,1.79523777961731,2.22896385192871,2.09080052375793
669,1505033265,-7.07774496078491,0.13365218043327,-85.40613555908203,-6.83024978637695,-1.01546311378479,9.29125976562500,-14.13235187530518,12.97562408447266,0.54759407043457
670,1505041598,-7.05912971496582,0.12430186569691,-85.39656829833984,-9.50868034362793,-0.01472839154303,10.46623420715332,-2.17595505714417,-1.17536032199860,0.67123389244080
671,1505049931,-7.04117822647095,0.11116395890713,-85.38964843750000,-7.87944841384888,-1.30119335651398,9.32178211212158,-6.13107490539551,-1.29129064083099,0.19365642964840
672,1505058264,-7.05242633819580,0.11291655898094,-85.39845275878906,-6.55698251724243,-0.27383258938789,9.92615699768066,-5.76294755935669,0.41852381825447,-1.35547983646393
673,1505066597,-7.00578451156616,0.07039066404104,-85.39444732666016,-5.91956043243408,-1.01364874839783,9.28942966461182,-2.66377806663513,-5.24748563766479,-0.63551473617554
674,1505074930,-7.06190490722656,0.03931756690145,-85.41326141357422,-1.92468142509460,-0.60257214307785,9.91770267486572,-11.15397644042969,-3.34324741363525,-3.03236722946167
675,1505083263,-6.97796916961670,-0.00515935476869,-85.41024780273438,0.13075849413872,-0.15342880785465,9.99197769165039,1.83283948898315,-5.81781291961670,-0.82877427339554
676,1505091596,-6.99617481231689,-0.04785145446658,-85.40582275390625,2.45591187477112,-1.30331742763519,9.12745857238770,-6.61264753341675,-5.06997919082642,-0.43080580234528
677,1505099929,-7.01376056671143,-0.08340219408274,-85.42395782470703,6.95395517349243,-0.32842487096786,10.31259155273438,-10.34658908843994,-4.48853635787964,-3.19855213165283
678,1505108262,-6.95744514465332,-0.08509030938148,-85.42480468750000,6.68343353271484,-0.21235097944736,10.26052856445312,2.32258343696594,-0.10921909660101,-0.45857164263725
679,1505116595,-6.95753097534180,-0.06350241601467,-85.42174530029297,4.70148754119873,-0.64202857017517,9.40118980407715,-8.21404933929443,2.27875781059265,0.17193555831909
680,1505124928,-6.97638511657715,-0.05427354946733,-85.41848754882812,4.39116621017456,-0.08765406161547,10.34763526916504,-6.70485973358154,1.12995934486389,0.18615147471428
681,1505133261,-6.92914962768555,-0.01955974288285,-85.40197753906250,1.82914328575134,-0.55300694704056,9.49676513671875,-2.52343750000000,3.97088503837585,2.03391098976135
682,1505141594,-6.96731805801392,0.02024233527482,-85.39220428466797,-1.28504180908203,-0.88121753931046,9.45449256896973,-9.02889156341553,4.67827415466309,1.40579915046692
683,1505149927,-6.96826744079590,0.04804676026106,-85.39225006103516,-2.48409914970398,-0.64526677131653,10.11470508575439,-8.30705642700195,3.56093001365662,-0.04582387581468
