sep=,
DeviceTag:,Xsens DOT
FirmwareVersion:,3.0.0
AppVersion:,2023.6.0
StartTime: ,2025-03-06_12:43:39_000 PST
© Movella Technologies B. V. 2005-2025

PacketCounter,SampleTimeFine,Euler_X,Euler_Y,Euler_Z,Acc_X,Acc_Y,Acc_Z,Gyr_X,Gyr_Y,Gyr_Z
0,2042652963,-1.50241005420685,0.04840375483036,21.09813880920410,0.00000000000000,0.00000000000000,0.00000000000000,0.00000000000000,0.00000000000000,0.00000000000000
1,2042661296,-1.50291788578033,0.04819627478719,21.09863853454590,-0.03078093379736,-0.36538884043694,9.77214336395264,-5.46037864685059,0.06849247217178,-0.31417140364647
2,2042669629,-1.50314724445343,0.04766277223825,21.09883308410645,-0.01558254752308,-0.34092953801155,9.81559848785400,-5.45227193832397,0.02862390875816,-0.36395266652107
3,2042677962,-1.50371026992798,0.04704688489437,21.09874916076660,-0.02025448530912,-0.33844533562660,9.78871917724609,-5.46783256530762,0.02097805961967,-0.40128540992737
4,2042686295,-1.50295639038086,0.04735405743122,21.09873390197754,-0.02255663275719,-0.34705635905266,9.79434967041016,-5.33415174484253,0.13111926615238,-0.38609617948532
5,2042694628,-1.50215351581573,0.04820377379656,21.09855079650879,-0.02040803059936,-0.33062186837196,9.77410507202148,-5.30208301544189,0.19689664244652,-0.40341144800186
6,2042702961,-1.50201594829559,0.04825507849455,21.09837341308594,-0.02384238317609,-0.33620354533195,9.77742481231689,-5.40971374511719,0.10081764310598,-0.40694618225098
7,2042711294,-1.50244855880737,0.04719106480479,21.09855270385742,-0.02681264840066,-0.37442120909691,9.81309032440186,-5.45149135589600,-0.03461764007807,-0.33742913603783
8,2042719627,-1.50179600715637,0.04622539505363,21.09904098510742,-0.00435348972678,-0.33643707633018,9.78838825225830,-5.34718942642212,-0.02316807769239,-0.33033397793770
9,2042727960,-1.50212264060974,0.04557417333126,21.09889793395996,0.00352417328395,-0.33234879374504,9.78913593292236,-5.43781232833862,0.01687978208065,-0.40412864089012
10,2042736293,-1.50252485275269,0.04581787809730,21.09839630126953,-0.00698858033866,-0.35280930995941,9.76170539855957,-5.47322368621826,0.12431867420673,-0.44627681374550
11,2042744626,-1.50224244594574,0.04637789726257,21.09775733947754,0.00311708543450,-0.34771451354027,9.80335521697998,-5.36506795883179,0.16344441473484,-0.46519294381142
12,2042752959,-1.50299775600433,0.04702660813928,21.09790802001953,0.00337947835214,-0.35623523592949,9.78152561187744,-5.51583337783813,0.17189711332321,-0.36578404903412
13,2042761292,-1.50326526165009,0.04626936465502,21.09729194641113,-0.00187358411495,-0.35755282640457,9.78814697265625,-5.43257522583008,0.00541741121560,-0.45934009552002
14,2042769625,-1.50262248516083,0.04596992954612,21.09717750549316,-0.00623990921304,-0.33888468146324,9.81135559082031,-5.34798288345337,0.05837484076619,-0.39977416396141
15,2042777958,-1.50229382514954,0.04699189588428,21.09744644165039,-0.01599928736687,-0.34874513745308,9.78671646118164,-5.36073970794678,0.21582555770874,-0.33735233545303
16,2042786291,-1.50162196159363,0.04812721163034,21.09740638732910,-0.01092270016670,-0.33691814541817,9.78310871124268,-5.34506368637085,0.22940108180046,-0.38809409737587
17,2042794624,-1.50162839889526,0.04798984527588,21.09746742248535,0.01190088409930,-0.35407447814941,9.79928398132324,-5.39916133880615,0.07837956398726,-0.38110142946243
18,2042802957,-1.50060367584229,0.04875587299466,21.09672927856445,-0.02976941503584,-0.36199977993965,9.77090454101562,-5.30249261856079,0.18862323462963,-0.47331270575523
19,2042811290,-1.50062263011932,0.04823271930218,21.09714317321777,-0.00195162009913,-0.34278589487076,9.78589153289795,-5.40117168426514,0.03103164769709,-0.33716017007828
20,2042819623,-1.50023317337036,0.04777462780476,21.09678268432617,0.00649981759489,-0.35008421540260,9.79682540893555,-5.37930965423584,0.03906171023846,-0.43043443560600
21,2042827956,-1.50033593177795,0.04865094646811,21.09681892395020,-0.01946130208671,-0.33328530192375,9.78683948516846,-5.41235256195068,0.19997034966946,-0.38443127274513
22,2042836289,-1.50019001960754,0.04880684241652,21.09692764282227,0.01142670121044,-0.34356999397278,9.76371765136719,-5.40661430358887,0.11277946829796,-0.37226450443268
23,2042844622,-1.50051510334015,0.04927375167608,21.09744644165039,0.01530760526657,-0.33515426516533,9.78315544128418,-5.43834972381592,0.14810150861740,-0.32551848888397
24,2042852955,-1.50132501125336,0.04983476549387,21.09685707092285,-0.00964482687414,-0.35573652386665,9.78203392028809,-5.52295398712158,0.16326512396336,-0.45533147454262
25,2042861288,-1.50134825706482,0.05040125176311,21.09651756286621,0.00372509169392,-0.34501305222511,9.80315685272217,-5.40251636505127,0.16303461790085,-0.40881597995758
26,2042869621,-1.50148510932922,0.05001276358962,21.09674453735352,0.01846004091203,-0.35227245092392,9.79369926452637,-5.44116783142090,0.04684843122959,-0.36053311824799
27,2042877954,-1.50136220455170,0.05057629942894,21.09648704528809,0.01262225769460,-0.33421954512596,9.77334117889404,-5.38571310043335,0.16347007453442,-0.40597280859947
28,2042886287,-1.50174081325531,0.05107954517007,21.09598159790039,-0.01032814010978,-0.36438515782356,9.76584243774414,-5.47026586532593,0.15578578412533,-0.44582855701447
29,2042894620,-1.50235617160797,0.05114396661520,21.09624481201172,0.00342404213734,-0.35421857237816,9.78021526336670,-5.47396707534790,0.10252097994089,-0.36694952845573
30,2042902953,-1.50271666049957,0.05122122168541,21.09705162048340,-0.01508103217930,-0.33453699946404,9.77932167053223,-5.46811437606812,0.09974183142185,-0.28924876451492
31,2042911286,-1.50300276279449,0.05104665830731,21.09714698791504,-0.00863104220480,-0.36402940750122,9.79771423339844,-5.43461084365845,0.07371777296066,-0.37521013617516
32,2042919619,-1.50267362594604,0.05131923034787,21.09700584411621,-0.01175740826875,-0.35638296604156,9.79628562927246,-5.38594341278076,0.12620134651661,-0.40102928876877
33,2042927952,-1.50275123119354,0.05058623850346,21.09698677062988,-0.02499401010573,-0.36348357796669,9.78202152252197,-5.40912437438965,0.00632671592757,-0.37802764773369
34,2042936285,-1.50185227394104,0.04983563348651,21.09692382812500,-0.01326935086399,-0.34302791953087,9.79489517211914,-5.31737422943115,0.00484109017998,-0.39590641856194
35,2042944618,-1.50229978561401,0.05061373487115,21.09689331054688,-0.01380693260580,-0.34832379221916,9.75602626800537,-5.45389747619629,0.18834146857262,-0.39372918009758
36,2042952951,-1.50202596187592,0.05018715932965,21.09740257263184,-0.01283798180521,-0.34917062520981,9.79599571228027,-5.39147663116455,0.04075225070119,-0.32577463984489
37,2042961284,-1.50230467319489,0.04984095320106,21.09769630432129,-0.00665075518191,-0.34542942047119,9.78267097473145,-5.43420124053955,0.05250918492675,-0.34665027260780
38,2042969617,-1.50218939781189,0.04926617443562,21.09807205200195,-0.00082303141244,-0.35017243027687,9.81586551666260,-5.41017532348633,0.02325772866607,-0.34201410412788
39,2042977950,-1.50175714492798,0.04929294809699,21.09768867492676,-0.00551638519391,-0.34160646796227,9.81634712219238,-5.34908485412598,0.09915270656347,-0.43460956215858
40,2042986283,-1.50207221508026,0.04854002222419,21.09856796264648,0.00288858613931,-0.34916612505913,9.78845691680908,-5.46204376220703,0.00112702627666,-0.28343433141708
41,2042994616,-1.50177526473999,0.04908121377230,21.09923934936523,0.00227311160415,-0.34547761082649,9.76351547241211,-5.36294269561768,0.15770687162876,-0.31186613440514
42,2043002949,-1.50214588642120,0.04780876636505,21.09924316406250,0.00418984005228,-0.34819626808167,9.79784297943115,-5.47057294845581,-0.05864379927516,-0.39004078507423
43,2043011282,-1.50195646286011,0.04741160571575,21.09910774230957,-0.00435697240755,-0.34712025523186,9.80030250549316,-5.37728643417358,0.04705335199833,-0.41637223958969
44,2043019615,-1.50192332267761,0.04706206545234,21.09834480285645,-0.01752161607146,-0.33861869573593,9.78963375091553,-5.42049694061279,0.05448147654533,-0.47802561521530
45,2043027948,-1.50187325477600,0.04792493209243,21.09745597839355,-0.03332207351923,-0.33670628070831,9.78728771209717,-5.39296150207520,0.20094364881516,-0.49216464161873
46,2043036281,-1.50194811820984,0.04759019985795,21.09745788574219,-0.03152775764465,-0.34583890438080,9.77839374542236,-5.43540477752686,0.05309830978513,-0.38701829314232
47,2043044614,-1.50172388553619,0.04813082516193,21.09773445129395,0.00479728262872,-0.33514764904976,9.80735206604004,-5.37293195724487,0.15998652577400,-0.35566648840904
48,2043052947,-1.50121533870697,0.04827134311199,21.09806442260742,-0.01219213753939,-0.32651656866074,9.78967285156250,-5.36409425735474,0.10950084030628,-0.34585615992546
49,2043061280,-1.50178408622742,0.04863488674164,21.09810066223145,-0.02015386894345,-0.32928261160851,9.80781459808350,-5.46734571456909,0.13678002357483,-0.37946206331253
50,2043069613,-1.50168502330780,0.04924282804132,21.09823226928711,0.00513729499653,-0.33341243863106,9.79718208312988,-5.41360664367676,0.16764515638351,-0.36701351404190
51,2043077946,-1.50224149227142,0.04913177713752,21.09805107116699,-0.01098202355206,-0.33701655268669,9.79728984832764,-5.46575832366943,0.08219608664513,-0.41888239979744
52,2043086279,-1.50239837169647,0.04910872131586,21.09835433959961,-0.00667598797008,-0.34289804100990,9.78526973724365,-5.44385814666748,0.09008526802063,-0.35031312704086
53,2043094612,-1.50225186347961,0.04904098063707,21.09843063354492,-0.01125894486904,-0.35581979155540,9.80190086364746,-5.38187122344971,0.08639682084322,-0.36975425481796
54,2043102945,-1.50260841846466,0.04861873015761,21.09853172302246,-0.00393215892836,-0.36470264196396,9.79962539672852,-5.46705102920532,0.04314718022943,-0.37535101175308
55,2043111278,-1.50276815891266,0.04898781701922,21.09830093383789,0.00488676223904,-0.35520958900452,9.78614521026611,-5.41970348358154,0.13952073454857,-0.41506588459015
56,2043119611,-1.50205194950104,0.04898501560092,21.09895324707031,-0.00429845973849,-0.34429076313972,9.77071666717529,-5.33886480331421,0.09203194826841,-0.30771660804749
57,2043127944,-1.50102758407593,0.04802898690104,21.09846878051758,0.01862324215472,-0.36518502235413,9.79173088073730,-5.27644252777100,-0.01904418319464,-0.46040305495262
58,2043136277,-1.50030875205994,0.04774075746536,21.09909248352051,-0.01171323657036,-0.34795963764191,9.78762531280518,-5.33940267562866,0.05760641023517,-0.31199422478676
59,2043144610,-1.49998557567596,0.04703644663095,21.09956359863281,-0.02542587742209,-0.35861364006996,9.78395843505859,-5.36094427108765,0.00893936771899,-0.34132251143456
60,2043152943,-1.50000095367432,0.04667866602540,21.09946632385254,-0.01347952429205,-0.33791515231133,9.80675697326660,-5.42520999908447,0.05058810859919,-0.39854466915131
61,2043161276,-1.50084781646729,0.04617086052895,21.09971427917480,-0.00916218757629,-0.34682121872902,9.79991149902344,-5.50056743621826,0.03358026593924,-0.36478516459465
62,2043169609,-1.50006687641144,0.04662327840924,21.09912300109863,-0.00974969472736,-0.34408941864967,9.79784870147705,-5.33192300796509,0.14910045266151,-0.45528018474579
63,2043177942,-1.49995326995850,0.04650820419192,21.09922027587891,-0.01800812035799,-0.33757817745209,9.76720905303955,-5.38573884963989,0.08183749020100,-0.37661889195442
64,2043186275,-1.49934339523315,0.04687167331576,21.09946250915527,-0.00004994363553,-0.36135548353195,9.80529594421387,-5.35261964797974,0.13593474030495,-0.35702404379845
65,2043194608,-1.49904251098633,0.04594105854630,21.09989547729492,-0.01839767955244,-0.34643122553825,9.80205345153809,-5.36304473876953,-0.01835259795189,-0.33199894428253
66,2043202941,-1.49846315383911,0.04546988382936,21.09943199157715,-0.00271202879958,-0.35915431380272,9.77589797973633,-5.35536050796509,0.03837012499571,-0.44185838103294
67,2043211274,-1.49833106994629,0.04593262821436,21.09957504272461,-0.01133096124977,-0.34991526603699,9.80057239532471,-5.38335657119751,0.14930538833141,-0.36977988481522
68,2043219607,-1.49798715114594,0.04688821360469,21.09930801391602,0.00895687472075,-0.33766821026802,9.78179454803467,-5.38456058502197,0.21006233990192,-0.41414374113083
69,2043227940,-1.49826610088348,0.04578388482332,21.09960174560547,-0.00653839437291,-0.35005050897598,9.80122470855713,-5.43189573287964,-0.03889521583915,-0.35989281535149
70,2043236273,-1.49857783317566,0.04541580751538,21.09960174560547,0.00024824199500,-0.36486613750458,9.79192161560059,-5.46240139007568,0.04956354200840,-0.38668528199196
71,2043244606,-1.49772608280182,0.04511156678200,21.09947776794434,0.00800134986639,-0.33975866436958,9.80164813995361,-5.29862451553345,0.05783694237471,-0.40289908647537
72,2043252939,-1.49748313426971,0.04541615396738,21.09914779663086,0.00864675454795,-0.36163946986198,9.80137062072754,-5.39577913284302,0.13193891942501,-0.42474803328514
73,2043261272,-1.49773132801056,0.04616063833237,21.09950065612793,-0.02130986377597,-0.35950422286987,9.81225109100342,-5.42895030975342,0.18301372230053,-0.33333086967468
74,2043269605,-1.49715638160706,0.04681193083525,21.09877395629883,0.01062688045204,-0.34624120593071,9.81075954437256,-5.35638475418091,0.17425362765789,-0.47126346826553
75,2043277938,-1.49759364128113,0.04672845453024,21.09855651855469,-0.01805133931339,-0.34213015437126,9.76516342163086,-5.45118331909180,0.08519294857979,-0.40310403704643
76,2043286271,-1.49751734733582,0.04639478400350,21.09879302978516,-0.03098496422172,-0.33272320032120,9.78038692474365,-5.41498994827271,0.05248356610537,-0.36009770631790
77,2043294604,-1.49860942363739,0.04566054046154,21.09895706176758,-0.02312841638923,-0.35226491093636,9.77976036071777,-5.53161191940308,0.00747935753316,-0.37659329175949
78,2043302937,-1.49846136569977,0.04560936242342,21.09910011291504,-0.02144398912787,-0.35929173231125,9.79520511627197,-5.40605020523071,0.08637120574713,-0.36852478981018
79,2043311270,-1.49821710586548,0.04475015401840,21.09943389892578,-0.03152202814817,-0.35290500521660,9.79605770111084,-5.37060022354126,-0.00977183133364,-0.32651746273041
80,2043319603,-1.49790155887604,0.04521090164781,21.10008811950684,-0.01310465484858,-0.36330810189247,9.79880809783936,-5.38649463653564,0.14714097976685,-0.30624383687973
81,2043327936,-1.49758112430573,0.04553210362792,21.09946823120117,-0.00357949454337,-0.35301452875137,9.77344036102295,-5.36064958572388,0.13512788712978,-0.46863800287247
82,2043336269,-1.49769043922424,0.04576235637069,21.10000991821289,-0.00236162706278,-0.38014045357704,9.80328083038330,-5.43852949142456,0.11990022659302,-0.32139462232590
83,2043344602,-1.49730861186981,0.04685339704156,21.10023117065430,0.00554629554972,-0.35593935847282,9.79031944274902,-5.35331106185913,0.22391964495182,-0.33584105968475
84,2043352935,-1.49735140800476,0.04761737585068,21.10002136230469,0.00442540645599,-0.34093931317329,9.78828239440918,-5.43015432357788,0.18685585260391,-0.40950760245323
85,2043361268,-1.49822282791138,0.04748428240418,21.10002136230469,-0.00005647409125,-0.34855327010155,9.76227951049805,-5.50434589385986,0.07839236408472,-0.39906978607178
86,2043369601,-1.49750232696533,0.04862664639950,21.09968376159668,0.00483431760222,-0.33531022071838,9.76798915863037,-5.33865976333618,0.23155270516872,-0.42369785904884
87,2043377934,-1.49736523628235,0.04819118976593,21.10040473937988,0.01016449648887,-0.32548531889915,9.81222629547119,-5.38361263275146,0.04085470363498,-0.31245523691177
88,2043386267,-1.49732065200806,0.04823925718665,21.10021209716797,0.00639405008405,-0.34255963563919,9.78921699523926,-5.41883230209351,0.09940885007381,-0.40968686342239
89,2043394600,-1.49751007556915,0.04849976301193,21.10057830810547,-0.00182232924271,-0.34709504246712,9.76581954956055,-5.42318677902222,0.12615010142326,-0.35049235820770
90,2043402933,-1.49736237525940,0.04814333841205,21.10095214843750,-0.02430228143930,-0.33661067485809,9.79052066802979,-5.40704965591431,0.04905125871301,-0.34170669317245
91,2043411266,-1.49761307239532,0.04790293797851,21.10124206542969,-0.02365495450795,-0.34673020243645,9.79923057556152,-5.42933416366577,0.06708367913961,-0.38706949353218
92,2043419599,-1.49695694446564,0.04739667847753,21.10152244567871,-0.01632906123996,-0.34975272417068,9.80153656005859,-5.34590864181519,0.03171042352915,-0.35254150629044
93,2043427932,-1.49707531929016,0.04801419377327,21.10245704650879,-0.01255251467228,-0.36892977356911,9.78435707092285,-5.41432380676270,0.16610831022263,-0.26071450114250
94,2043436265,-1.49609458446503,0.04830727726221,21.10158538818359,-0.01779808849096,-0.33884644508362,9.80116844177246,-5.30833244323730,0.13086311519146,-0.48878365755081
95,2043444598,-1.49626600742340,0.04893095046282,21.10142326354980,-0.00642178719863,-0.36240839958191,9.79633522033691,-5.41931962966919,0.17123116552830,-0.41644904017448
96,2043452931,-1.49644243717194,0.04864977300167,21.10186958312988,-0.01843513362110,-0.35971507430077,9.80283737182617,-5.44536876678467,0.05786256119609,-0.33335649967194
97,2043461264,-1.49663257598877,0.04834716767073,21.10253524780273,0.01114076189697,-0.33830684423447,9.79780960083008,-5.42298173904419,0.05752956867218,-0.30802398920059
98,2043469597,-1.49709427356720,0.04783255234361,21.10339164733887,-0.00711497897282,-0.34688884019852,9.79276466369629,-5.47928237915039,0.02835495956242,-0.28494560718536
99,2043477930,-1.49759483337402,0.04731787741184,21.10287284851074,-0.00035544903949,-0.35752195119858,9.81059360504150,-5.45943069458008,0.03468167409301,-0.45761114358902
100,2043486263,-1.49768936634064,0.04686436429620,21.10303497314453,0.02179813943803,-0.33833390474319,9.81272315979004,-5.43668508529663,0.03916416689754,-0.36719283461571
101,2043494596,-1.49742555618286,0.04719410464168,21.10320091247559,0.01247690897435,-0.34704345464706,9.78113174438477,-5.36786031723022,0.13352701067924,-0.36481079459190
102,2043502929,-1.49764990806580,0.04769608378410,21.10326004028320,0.01035550609231,-0.33856403827667,9.77767562866211,-5.45297574996948,0.15447944402695,-0.37746417522430
103,2043511262,-1.49846732616425,0.04763379693031,21.10380172729492,0.00729671586305,-0.33734709024429,9.81270408630371,-5.49598217010498,0.08509048074484,-0.31688648462296
104,2043519595,-1.49844217300415,0.04743230715394,21.10437011718750,-0.01134696323425,-0.34976980090141,9.78716850280762,-5.42090702056885,0.06769841909409,-0.31762930750847
105,2043527928,-1.49812066555023,0.04753357917070,21.10391807556152,-0.00304003129713,-0.35555794835091,9.79165077209473,-5.36299324035645,0.10829699039459,-0.42326244711876
106,2043536261,-1.49804580211639,0.04778244718909,21.10395431518555,-0.01304955314845,-0.35410290956497,9.77337741851807,-5.41609144210815,0.12315323203802,-0.38092210888863
107,2043544594,-1.49796450138092,0.04816228523850,21.10354614257812,-0.02242502383888,-0.34550285339355,9.79606914520264,-5.39004230499268,0.14197972416878,-0.44547000527382
108,2043552927,-1.49768376350403,0.04748694971204,21.10408592224121,-0.00448437547311,-0.35120108723640,9.79269695281982,-5.39119434356689,0.01091166213155,-0.32428899407387
109,2043561260,-1.49711215496063,0.04696676135063,21.10402870178223,-0.00947558972985,-0.35788226127625,9.78037548065186,-5.33102655410767,0.03245323523879,-0.40622895956039
110,2043569593,-1.49742519855499,0.04658413678408,21.10291481018066,-0.01377728860825,-0.34424790740013,9.81984710693359,-5.46232604980469,0.05151023343205,-0.51967442035675
111,2043577926,-1.49707829952240,0.04543000087142,21.10247230529785,-0.00285696261562,-0.35637572407722,9.78937625885010,-5.35723018646240,-0.04161032661796,-0.44134604930878
112,2043586259,-1.49671328067780,0.04487800598145,21.10252380371094,-0.01694762706757,-0.34329178929329,9.79506778717041,-5.38281917572021,0.02730477787554,-0.38130632042885
113,2043594592,-1.49697101116180,0.04517717659473,21.10194396972656,-0.00112942059059,-0.35260298848152,9.78780555725098,-5.43061494827271,0.13165718317032,-0.45118197798729
114,2043602925,-1.49618792533875,0.04605690762401,21.10189628601074,-0.01302769593894,-0.34197226166725,9.80206203460693,-5.33120584487915,0.20017525553703,-0.38763302564621
115,2043611258,-1.49576532840729,0.04668958112597,21.10241127014160,-0.01254855748266,-0.35011079907417,9.77194595336914,-5.34744596481323,0.16918203234673,-0.32779818773270
116,2043619591,-1.49596953392029,0.04692847281694,21.10301017761230,0.01936767622828,-0.32496386766434,9.74828910827637,-5.45000457763672,0.12046375125647,-0.31314682960510
117,2043627924,-1.49602746963501,0.04598665609956,21.10276222229004,0.01136601902544,-0.34740072488785,9.79952239990234,-5.40451383590698,-0.01668767444789,-0.42551645636559
118,2043636257,-1.49603617191315,0.04598180204630,21.10262870788574,-0.00444502756000,-0.35595709085464,9.78034973144531,-5.42613220214844,0.09313335269690,-0.40174645185471
119,2043644590,-1.49546170234680,0.04547193646431,21.10242271423340,-0.00644463906065,-0.34057286381721,9.79944419860840,-5.33038663864136,0.03437430411577,-0.40620335936546
120,2043652923,-1.49502229690552,0.04543255642056,21.10259437561035,-0.01294869836420,-0.35100653767586,9.78570842742920,-5.37267494201660,0.08834350854158,-0.36434966325760
121,2043661256,-1.49582481384277,0.04618318006396,21.10294914245605,-0.01991921104491,-0.35186189413071,9.79472255706787,-5.49672555923462,0.18365406990051,-0.35282331705093
122,2043669589,-1.49573898315430,0.04541644454002,21.10302734375000,-0.02007046900690,-0.32938352227211,9.78731250762939,-5.41534852981567,0.00158808252309,-0.37928274273872
123,2043677922,-1.49546849727631,0.04566544666886,21.10267066955566,-0.01834559440613,-0.34264084696770,9.78187751770020,-5.36565732955933,0.12658554315567,-0.42899999022484
124,2043686255,-1.49609458446503,0.04496685042977,21.10289382934570,-0.03076900914311,-0.33392310142517,9.83258342742920,-5.50090026855469,0.00835024099797,-0.36163458228111
125,2043694588,-1.49600195884705,0.04500452429056,21.10288429260254,-0.02470104023814,-0.34001475572586,9.78649902343750,-5.38858222961426,0.09986990690231,-0.38174179196358
126,2043702921,-1.49596822261810,0.04572523385286,21.10296630859375,-0.00582843972370,-0.34602522850037,9.76262855529785,-5.42147064208984,0.18068280816078,-0.37293049693108
127,2043711254,-1.49643433094025,0.04607408493757,21.10353660583496,0.00387986446731,-0.34091946482658,9.79101467132568,-5.45562696456909,0.13430823385715,-0.31664317846298
128,2043719587,-1.49664413928986,0.04562654718757,21.10394859313965,0.00762809626758,-0.34218990802765,9.75552082061768,-5.45093965530396,0.03902328759432,-0.33767244219780
129,2043727920,-1.49579370021820,0.04556078463793,21.10524368286133,-0.00003800968261,-0.36535975337029,9.79975605010986,-5.29639625549316,0.08173502236605,-0.22897846996784
130,2043736253,-1.49568915367126,0.04474527016282,21.10508346557617,0.00152160192374,-0.34906443953514,9.80206871032715,-5.41352987289429,-0.00375248538330,-0.40745839476585
131,2043744586,-1.49489665031433,0.04087500274181,21.09600067138672,0.00809071399271,-0.34344911575317,9.78423690795898,-5.38614845275879,0.14920291304588,-0.42579820752144
132,2043752919,-1.49468767642975,0.04068527743220,21.09615898132324,0.01563261821866,-0.36519667506218,9.78017425537109,-5.40185070037842,0.07107950747013,-0.36701357364655
133,2043761252,-1.49522805213928,0.04026842117310,21.09638977050781,0.00064463820308,-0.33776503801346,9.77075195312500,-5.46340131759644,0.04321121424437,-0.36053317785263
134,2043769585,-1.49599623680115,0.03995701298118,21.09710121154785,0.01054256781936,-0.34802144765854,9.79453182220459,-5.51744747161865,0.05517306178808,-0.29982742667198
135,2043777918,-1.49500346183777,0.04029960930347,21.09729385375977,0.00265894317999,-0.33360022306442,9.78030586242676,-5.28054094314575,0.13488455116749,-0.35804855823517
136,2043786251,-1.49525022506714,0.03960774093866,21.09719085693359,-0.02303703501821,-0.36258113384247,9.75015640258789,-5.45402669906616,0.01139833498746,-0.39985099434853
137,2043794584,-1.49548375606537,0.03958618268371,21.09714317321777,-0.02114591933787,-0.37130552530289,9.75731945037842,-5.42884731292725,0.09208317101002,-0.38916987180710
138,2043802917,-1.49574017524719,0.03931569680572,21.09644699096680,-0.02244931459427,-0.32751935720444,9.79654884338379,-5.45546054840088,0.06377944350243,-0.46931686997414
139,2043811250,-1.49628305435181,0.04024374112487,21.09571647644043,-0.02115033753216,-0.33785170316696,9.75914287567139,-5.46491193771362,0.20921707153320,-0.46947050094604
140,2043819583,-1.49561011791229,0.04113103076816,21.09598922729492,-0.00694722356275,-0.36315724253654,9.77299976348877,-5.34341096878052,0.20008561015129,-0.34968554973602
141,2043827916,-1.49581778049469,0.04071102663875,21.09653282165527,-0.01163055188954,-0.34654048085213,9.78254318237305,-5.42499208450317,0.04245559126139,-0.30798557400703
142,2043836249,-1.49544334411621,0.04063661023974,21.09653472900391,0.00495061092079,-0.34258854389191,9.80652618408203,-5.37946319580078,0.08465504646301,-0.38496911525726
143,2043844582,-1.49615311622620,0.04037890583277,21.09655570983887,0.00729853939265,-0.34994488954544,9.79216289520264,-5.48599243164062,0.06324154138565,-0.37456974387169
144,2043852915,-1.49599123001099,0.03958962857723,21.09604835510254,0.00470215314999,-0.34709781408310,9.78186893463135,-5.40546131134033,0.00140878290404,-0.44869732856750
145,2043861248,-1.49607014656067,0.03989730775356,21.09614562988281,0.01125610154122,-0.35028401017189,9.81423473358154,-5.40699911117554,0.13145226240158,-0.36411917209625
146,2043869581,-1.49538004398346,0.04009308293462,21.09566879272461,0.00991988461465,-0.35626268386841,9.81046867370605,-5.34309101104736,0.11992583423853,-0.44106429815292
147,2043877914,-1.49445390701294,0.04094426333904,21.09516143798828,0.00300947087817,-0.33160692453384,9.80969047546387,-5.28894233703613,0.19761382043362,-0.42777055501938
148,2043886247,-1.49420869350433,0.04108703136444,21.09506034851074,0.00669982470572,-0.35349497199059,9.79695320129395,-5.39485740661621,0.11160121858120,-0.39662358164787
149,2043894580,-1.49338924884796,0.04126163199544,21.09402275085449,-0.01725997589529,-0.34762150049210,9.78856945037842,-5.30244112014771,0.11895250529051,-0.49782544374466
150,2043902913,-1.49276292324066,0.04079455882311,21.09452438354492,-0.00404436793178,-0.36485368013382,9.78752613067627,-5.34944391250610,0.03691011667252,-0.32623574137688
151,2043911246,-1.49269747734070,0.04049923643470,21.09413528442383,-0.00142492400482,-0.35124823451042,9.77605915069580,-5.39022159576416,0.05968116596341,-0.43906638026237
152,2043919579,-1.49294769763947,0.04053477197886,21.09381675720215,-0.01364014111459,-0.34774309396744,9.79133319854736,-5.45446205139160,0.09979306161404,-0.42354416847229
153,2043927912,-1.49283266067505,0.04032984003425,21.09294891357422,-0.01620319113135,-0.34369507431984,9.78260707855225,-5.38497018814087,0.07225775718689,-0.49085837602615
154,2043936245,-1.49242448806763,0.04084434732795,21.09205245971680,-0.01567668654025,-0.35460850596428,9.80735206604004,-5.37659454345703,0.15952545404434,-0.49021804332733
155,2043944578,-1.49237489700317,0.04174734652042,21.09307098388672,-0.01162574440241,-0.33245837688446,9.79410552978516,-5.39367866516113,0.20004716515541,-0.27316296100616
156,2043952911,-1.49211883544922,0.04131589829922,21.09243202209473,-0.01417388021946,-0.36200219392776,9.78044033050537,-5.39526700973511,0.04400525614619,-0.46347680687904
157,2043961244,-1.49192142486572,0.04229566082358,21.09224891662598,0.00866002403200,-0.34391805529594,9.81176948547363,-5.37454557418823,0.21349467337132,-0.39767384529114
158,2043969577,-1.49216473102570,0.04240483790636,21.09186935424805,-0.01780145615339,-0.34763064980507,9.81754207611084,-5.45423126220703,0.10806646943092,-0.43061369657516
159,2043977910,-1.49295401573181,0.04248698428273,21.09238624572754,0.00786473229527,-0.34149295091629,9.76668739318848,-5.49406147003174,0.10312291979790,-0.32767012715340
160,2043986243,-1.49268352985382,0.04341394454241,21.09296607971191,0.02573239617050,-0.33105149865150,9.76986694335938,-5.39242458343506,0.20355634391308,-0.31153315305710
161,2043994576,-1.49305093288422,0.04351893067360,21.09215354919434,0.01354270055890,-0.36392816901207,9.78648567199707,-5.44388341903687,0.11003876477480,-0.47723168134689
162,2044002909,-1.49274587631226,0.04294479638338,21.09197425842285,0.01785277761519,-0.34109964966774,9.82485961914062,-5.38822364807129,0.02563985250890,-0.40963566303253
163,2044011242,-1.49270045757294,0.04285253584385,21.09204864501953,-0.00732983928174,-0.35626816749573,9.76642227172852,-5.39557456970215,0.08429645001888,-0.37874493002892
164,2044019575,-1.49294316768646,0.04298108071089,21.09197235107422,-0.01950586959720,-0.32696744799614,9.77222919464111,-5.45361709594727,0.10932156443596,-0.39470258355141
165,2044027908,-1.49274218082428,0.04249795153737,21.09144401550293,-0.01245467271656,-0.34466233849525,9.79427242279053,-5.37528800964355,0.03890802338719,-0.45146366953850
166,2044036241,-1.49273717403412,0.04291646182537,21.09162139892578,-0.01413024775684,-0.34483942389488,9.80233478546143,-5.42392969131470,0.14405445754528,-0.36301773786545
167,2044044574,-1.49256229400635,0.04336386546493,21.09242630004883,-0.01169609278440,-0.35050782561302,9.80710315704346,-5.37802886962891,0.14618043601513,-0.28658488392830
168,2044052907,-1.49174153804779,0.04321250692010,21.09185028076172,-0.02098642103374,-0.35693484544754,9.75933837890625,-5.32610893249512,0.07794411480427,-0.45497283339500
169,2044061240,-1.49107134342194,0.04365083947778,21.09138107299805,-0.02258972078562,-0.35291466116905,9.78020572662354,-5.31934690475464,0.14892114698887,-0.42528593540192
170,2044069573,-1.49073970317841,0.04332154989243,21.09013557434082,0.01133884675801,-0.33671474456787,9.78293800354004,-5.38476562500000,0.05791378766298,-0.53568333387375
171,2044077906,-1.49129354953766,0.04372020810843,21.08978080749512,-0.02029955759645,-0.33841195702553,9.76745414733887,-5.46603918075562,0.14338847994804,-0.42859014868736
172,2044086239,-1.49127137660980,0.04288703203201,21.08946990966797,-0.00145284889732,-0.34869644045830,9.81465053558350,-5.42267465591431,-0.00480266939849,-0.42518347501755
173,2044094572,-1.49073255062103,0.04294946417212,21.08948516845703,0.00704029761255,-0.36609682440758,9.80926322937012,-5.33374261856079,0.10291800647974,-0.37887296080589
174,2044102905,-1.49011981487274,0.04307574033737,21.08932876586914,-0.00610299315304,-0.34829324483871,9.79208183288574,-5.35190248489380,0.10914225876331,-0.40553736686707
175,2044111238,-1.48939990997314,0.04343910142779,21.09010887145996,0.01900894381106,-0.36250856518745,9.77875041961670,-5.31283998489380,0.13667756319046,-0.28848031163216
176,2044119571,-1.48975944519043,0.04372071474791,21.09021377563477,0.00108906754758,-0.33472692966461,9.77527427673340,-5.46977901458740,0.12804557383060,-0.37203398346901
177,2044127904,-1.49028205871582,0.04392359405756,21.09053421020508,-0.01134364027530,-0.34906351566315,9.81640434265137,-5.46168518066406,0.11756932735443,-0.34398636221886
178,2044136237,-1.48949718475342,0.04406393691897,21.09082984924316,-0.01532617677003,-0.34449133276939,9.78530216217041,-5.33066844940186,0.11067911237478,-0.34980082511902
179,2044144570,-1.48925995826721,0.04408826306462,21.09030342102051,-0.03219579905272,-0.32941913604736,9.76603126525879,-5.37124109268188,0.09920394420624,-0.44534191489220
180,2044152903,-1.48947536945343,0.04395939782262,21.09027481079102,-0.01518669631332,-0.34346979856491,9.78462600708008,-5.45058155059814,0.07927606254816,-0.38782513141632
181,2044161236,-1.48982059955597,0.04359779879451,21.08973312377930,-0.03134683147073,-0.35174682736397,9.80606651306152,-5.44124507904053,0.05253479257226,-0.45433250069618
182,2044169569,-1.48970532417297,0.04336261004210,21.08963775634766,-0.01552147697657,-0.34508451819420,9.78780746459961,-5.41127634048462,0.06616156548262,-0.39728960394859
183,2044177902,-1.49021255970001,0.04363422095776,21.08972930908203,-0.00645709782839,-0.33738657832146,9.79178810119629,-5.45986652374268,0.12730276584625,-0.36970305442810
184,2044186235,-1.48982965946198,0.04414042457938,21.08955574035645,-0.01716401241720,-0.36048555374146,9.79845142364502,-5.37918186187744,0.15604193508625,-0.40584474802017
185,2044194568,-1.48982083797455,0.04392074048519,21.08949279785156,-0.00866318214685,-0.34789395332336,9.77902221679688,-5.39744472503662,0.06810825318098,-0.39992785453796
186,2044202901,-1.49000322818756,0.04370940476656,21.08966827392578,-0.00250518997200,-0.35171443223953,9.78454971313477,-5.44680309295654,0.06874860078096,-0.36347877979279
187,2044211234,-1.49058163166046,0.04328590631485,21.08939170837402,0.00929341465235,-0.36073112487793,9.79316711425781,-5.46954870223999,0.04487613961101,-0.42082911729813
188,2044219567,-1.49002194404602,0.04360951110721,21.08868408203125,-0.00751468772069,-0.33392959833145,9.83710861206055,-5.35597467422485,0.13467964529991,-0.46854835748672
189,2044227900,-1.49028241634369,0.04348398372531,21.08922767639160,-0.00936485920101,-0.35999628901482,9.80290222167969,-5.43184423446655,0.07771359384060,-0.32298269867897
190,2044236233,-1.48937880992889,0.04379939660430,21.08988189697266,-0.00022006851214,-0.34791678190231,9.78601551055908,-5.31581258773804,0.12981295585632,-0.30515521764755
191,2044244566,-1.48927950859070,0.04389053583145,21.08991050720215,0.00798283237964,-0.33508867025375,9.79118728637695,-5.38655853271484,0.10619661957026,-0.38097330927849
192,2044252899,-1.48873090744019,0.04455429315567,21.08972167968750,0.01584616303444,-0.33554345369339,9.82538414001465,-5.36035537719727,0.17443296313286,-0.40661320090294
193,2044261232,-1.48851644992828,0.04477619379759,21.08955764770508,-0.03232714906335,-0.34016883373260,9.79335880279541,-5.37377691268921,0.12217990309000,-0.39480504393578
194,2044269565,-1.48759055137634,0.04395104572177,21.08925437927246,-0.00765458634123,-0.34986996650696,9.79035663604736,-5.31491565704346,-0.00377809978090,-0.42392840981483
195,2044277898,-1.48742067813873,0.04386404156685,21.08966445922852,-0.01234520878643,-0.33744287490845,9.80571269989014,-5.37823343276978,0.08342555910349,-0.34895554184914
196,2044286231,-1.48693037033081,0.04405723884702,21.09064674377441,-0.01914211176336,-0.34277462959290,9.77773475646973,-5.36688661575317,0.11406018584967,-0.26760470867157
197,2044294564,-1.48749744892120,0.04403786361217,21.09088706970215,-0.02060402929783,-0.33159565925598,9.80696964263916,-5.46811437606812,0.09241615980864,-0.35389909148216
198,2044302897,-1.48710072040558,0.04417017474771,21.09050178527832,-0.00754110421985,-0.34075993299484,9.80438137054443,-5.37770843505859,0.11110173910856,-0.43054965138435
199,2044311230,-1.48767113685608,0.04421502724290,21.09058952331543,0.00335387536325,-0.32797288894653,9.78727817535400,-5.46831893920898,0.09963937848806,-0.38007685542107
200,2044319563,-1.48730123043060,0.04460293427110,21.09076499938965,0.00185014202725,-0.33587631583214,9.79821681976318,-5.38005256652832,0.14031478762627,-0.36140406131744
201,2044327896,-1.48749744892120,0.04499078169465,21.09078407287598,-0.01030784007162,-0.35906442999840,9.78057765960693,-5.42295598983765,0.14144180715084,-0.38071721792221
202,2044336229,-1.48737978935242,0.04566515609622,21.09180259704590,-0.00511789694428,-0.35526090860367,9.79865455627441,-5.41089200973511,0.17164099216461,-0.26012536883354
203,2044344562,-1.48830986022949,0.04606106504798,21.09216308593750,-0.00139352853876,-0.35430988669395,9.78125381469727,-5.51229858398438,0.14087830483913,-0.33645579218864
204,2044352895,-1.48755049705505,0.04601214826107,21.09198951721191,-0.00081046117702,-0.35238078236580,9.78532028198242,-5.33353710174561,0.08913753926754,-0.40581917762756
205,2044361228,-1.48758208751678,0.04549078643322,21.09165763854980,0.00782770197839,-0.36179745197296,9.78787231445312,-5.40261888504028,0.03247885033488,-0.41460481286049
206,2044369561,-1.48747789859772,0.04585404321551,21.09247970581055,0.00785423349589,-0.35536184906960,9.78474235534668,-5.41160869598389,0.13552491366863,-0.28581643104553
207,2044377894,-1.48676919937134,0.04514038190246,21.09169197082520,-0.00759255839512,-0.35970568656921,9.78774261474609,-5.31417226791382,0.01198746170849,-0.47559225559235
208,2044386227,-1.48652732372284,0.04506473988295,21.09110260009766,0.00806339271367,-0.35444876551628,9.78442001342773,-5.39665031433105,0.08660172671080,-0.45653527975082
209,2044394560,-1.48729252815247,0.04576120898128,21.09051322937012,-0.00108188856393,-0.33153510093689,9.80856513977051,-5.49116706848145,0.17919717729092,-0.42702770233154
210,2044402893,-1.48720765113831,0.04480607435107,21.09158897399902,-0.01732360199094,-0.34312489628792,9.80091953277588,-5.41450309753418,-0.02321930415928,-0.25920322537422
211,2044411226,-1.48682153224945,0.04524752870202,21.09140205383301,-0.01121520716697,-0.36565002799034,9.77037429809570,-5.35322141647339,0.14842168986797,-0.40549898147583
212,2044419559,-1.48676884174347,0.04472923651338,21.09130287170410,0.00750553887337,-0.35456684231758,9.79594421386719,-5.41885757446289,0.03214586153626,-0.39833974838257
213,2044427892,-1.48745870590210,0.04460421577096,21.09170150756836,-0.02325466088951,-0.35819789767265,9.79085731506348,-5.48150968551636,0.07812342047691,-0.34147617220879
214,2044436225,-1.48775959014893,0.04454170167446,21.09166717529297,-0.02833162620664,-0.34548425674438,9.79719257354736,-5.46153116226196,0.08737015724182,-0.38996392488480
215,2044444558,-1.48809432983398,0.04534539580345,21.09211921691895,-0.01417595241219,-0.33404013514519,9.79417133331299,-5.43932342529297,0.19003200531006,-0.33407369256020
216,2044452891,-1.48900628089905,0.04553642496467,21.09193229675293,0.00893838889897,-0.35019055008888,9.77800273895264,-5.53378868103027,0.11739005148411,-0.40635704994202
217,2044461224,-1.48919951915741,0.04582615941763,21.09257698059082,0.00856823660433,-0.33516773581505,9.79994964599609,-5.42154741287231,0.12699538469315,-0.29800882935524
218,2044469557,-1.48945045471191,0.04584387689829,21.09253501892090,0.00303417141549,-0.35151535272598,9.79259109497070,-5.45548629760742,0.09728285670280,-0.38965657353401
219,2044477890,-1.48973095417023,0.04540796205401,21.09192657470703,0.00967292860150,-0.36094737052917,9.80385303497314,-5.43349599838257,0.04540122672915,-0.46441167593002
220,2044486223,-1.48994338512421,0.04454794153571,21.09176445007324,-0.01034149713814,-0.35765519738197,9.81097888946533,-5.45058155059814,-0.00876006856561,-0.40844461321831
221,2044494556,-1.49049234390259,0.04414587095380,21.09183311462402,0.00716714095324,-0.34046047925949,9.77562808990479,-5.46557855606079,0.04526035487652,-0.37597855925560
222,2044502889,-1.49064886569977,0.04441672563553,21.09206199645996,0.00084564980352,-0.35338187217712,9.80322647094727,-5.44385766983032,0.12707221508026,-0.35751071572304
223,2044511222,-1.49031937122345,0.04448921978474,21.09166908264160,-0.00913891755044,-0.35344204306602,9.79206657409668,-5.36003541946411,0.10490311682224,-0.43344414234161
224,2044519555,-1.48941826820374,0.04499129205942,21.09224128723145,-0.00989205949008,-0.34771361947060,9.80281734466553,-5.31684875488281,0.15221257507801,-0.31525999307632
225,2044527888,-1.49025630950928,0.04573722183704,21.09132957458496,-0.00639110337943,-0.36142629384995,9.78667259216309,-5.50154066085815,0.18706077337265,-0.49134501814842
226,2044536221,-1.49030447006226,0.04648124426603,21.09082794189453,-0.01083679683506,-0.34449225664139,9.79250717163086,-5.43110179901123,0.18531899154186,-0.44267803430557
227,2044544554,-1.49093663692474,0.04590960219502,21.09065246582031,-0.00227601709776,-0.34093728661537,9.79087162017822,-5.47414588928223,0.02693336643279,-0.40606245398521
228,2044552887,-1.49106156826019,0.04629467055202,21.09149551391602,-0.00852688960731,-0.34209740161896,9.78675746917725,-5.43931102752686,0.13786861300468,-0.28121867775917
229,2044561220,-1.49153733253479,0.04591176658869,21.09148025512695,-0.02270427346230,-0.36325204372406,9.78740787506104,-5.45702314376831,0.04805230721831,-0.38735130429268
230,2044569553,-1.49081444740295,0.04523592442274,21.09175491333008,-0.01847552508116,-0.35663968324661,9.78624916076660,-5.33927440643311,0.01247413270175,-0.35436010360718
231,2044577886,-1.49098944664001,0.04467336460948,21.09170722961426,-0.01099612098187,-0.35902649164200,9.80826663970947,-5.42057418823242,0.02848302945495,-0.40433350205421
232,2044586219,-1.49025177955627,0.04513354972005,21.09125900268555,0.00666459230706,-0.34635877609253,9.78710460662842,-5.33566331863403,0.15099592506886,-0.43768322467804
233,2044594552,-1.49078893661499,0.04486575722694,21.09132385253906,0.00918749812990,-0.34813311696053,9.78733444213867,-5.46358060836792,0.06224259361625,-0.38238215446472
234,2044602885,-1.49082064628601,0.04532901197672,21.09083366394043,0.00900684297085,-0.34661006927490,9.78764247894287,-5.42874526977539,0.15122646093369,-0.44242191314697
235,2044611218,-1.49166679382324,0.04488264769316,21.09076881408691,0.01385077834129,-0.34326025843620,9.79521369934082,-5.50197601318359,0.04190488904715,-0.39383167028427
236,2044619551,-1.49119317531586,0.04555227234960,21.09055709838867,0.00632644537836,-0.34204119443893,9.77011203765869,-5.36727142333984,0.17512454092503,-0.40802195668221
237,2044627884,-1.49166619777679,0.04490535333753,21.09056854248047,0.01372410636395,-0.35140529274940,9.80301284790039,-5.45645952224731,0.01708469539881,-0.38709512352943
238,2044636217,-1.49092614650726,0.04481994733214,21.09087562561035,0.00426358543336,-0.34313207864761,9.77582454681396,-5.33661031723022,0.08301573991776,-0.34795656800270
239,2044644550,-1.49084830284119,0.04424546658993,21.09070587158203,-0.02825406566262,-0.35772129893303,9.78667926788330,-5.38978624343872,0.02640827745199,-0.42579826712608
240,2044652883,-1.49106824398041,0.04455656185746,21.09062767028809,-0.00007259269478,-0.32963725924492,9.77703475952148,-5.45187520980835,0.13222068548203,-0.39424151182175
241,2044661216,-1.49111366271973,0.04482299461961,21.09066772460938,-0.01319575868547,-0.33870089054108,9.80450344085693,-5.40500068664551,0.12617573142052,-0.37684944272041
242,2044669549,-1.49084222316742,0.04426945373416,21.09092521667480,0.00928055215627,-0.33292415738106,9.79848957061768,-5.39193773269653,0.02804758772254,-0.35500052571297
243,2044677882,-1.49049818515778,0.04396262764931,21.09081077575684,-0.03203295543790,-0.33592304587364,9.78955459594727,-5.35834455490112,0.05838764458895,-0.39932590723038
244,2044686215,-1.49098527431488,0.04371345788240,21.09100532531738,0.01181847322732,-0.35121625661850,9.78018856048584,-5.48357200622559,0.06384348124266,-0.36162176728249
245,2044694548,-1.49050819873810,0.04311632364988,21.09143066406250,0.00666657695547,-0.34422942996025,9.80774116516113,-5.34165668487549,0.02192578837276,-0.34093829989433
246,2044702881,-1.49009144306183,0.04314927756786,21.09174346923828,-0.00066686852369,-0.33970794081688,9.81339359283447,-5.37492942810059,0.09684743732214,-0.34659904241562
247,2044711214,-1.48947584629059,0.04327619075775,21.09180068969727,0.00224241497926,-0.35680663585663,9.79932403564453,-5.32649326324463,0.11014120280743,-0.37707996368408
248,2044719547,-1.49004471302032,0.04272900521755,21.09219169616699,-0.00302871037275,-0.35066217184067,9.78014659881592,-5.49270391464233,0.02750968746841,-0.33858177065849
249,2044727880,-1.49031293392181,0.04281091317534,21.09235954284668,-0.00963962823153,-0.34993213415146,9.79442310333252,-5.43171644210815,0.10445484519005,-0.36491319537163
250,2044736213,-1.49014484882355,0.04324860498309,21.09223937988281,-0.00293720304035,-0.35469123721123,9.80258846282959,-5.40425777435303,0.14653904736042,-0.39967176318169
251,2044744546,-1.49002599716187,0.04220182076097,21.09259033203125,0.00113160815090,-0.33166813850403,9.79163169860840,-5.38545703887939,-0.03200498968363,-0.34539514780045
252,2044752879,-1.48984980583191,0.04209787398577,21.09234237670898,-0.01862977258861,-0.33590131998062,9.80143737792969,-5.40374612808228,0.08245222270489,-0.41519394516945
253,2044761212,-1.48956453800201,0.04262401163578,21.09302520751953,-0.00515815382823,-0.36914649605751,9.82885360717773,-5.36616992950439,0.15742509067059,-0.32702976465225
254,2044769545,-1.48983001708984,0.04194875434041,21.09216117858887,-0.00499864807352,-0.35361859202385,9.81863403320312,-5.45566558837891,0.01577836833894,-0.48970580101013
255,2044777878,-1.48970603942871,0.04231382906437,21.09119606018066,0.00363444304094,-0.34149992465973,9.79041194915771,-5.38489341735840,0.14087828993797,-0.48850190639496
256,2044786211,-1.48950469493866,0.04231123998761,21.09129905700684,-0.01736547797918,-0.34045940637589,9.80994033813477,-5.40115880966187,0.09395302087069,-0.37234136462212
257,2044794544,-1.48928749561310,0.04179481044412,21.09123420715332,-0.01106390822679,-0.35689812898636,9.77584266662598,-5.37295722961426,0.03411816433072,-0.42746320366859
258,2044802877,-1.48769974708557,0.04184195771813,21.09159660339355,-0.01495535857975,-0.34247085452080,9.78163051605225,-5.23415327072144,0.09858918935061,-0.34116876125336
259,2044811210,-1.48743665218353,0.04186228662729,21.09155464172363,-0.00065082404763,-0.35379984974861,9.79998493194580,-5.36906433105469,0.09694989025593,-0.40190014243126
260,2044819543,-1.48766994476318,0.04174676164985,21.09112358093262,-0.00298467441462,-0.33900010585785,9.78621578216553,-5.45289945602417,0.08201678097248,-0.43706849217415
261,2044827876,-1.48682177066803,0.04155724868178,21.09106063842773,-0.02370354905725,-0.34487870335579,9.79047203063965,-5.29701089859009,0.07269320636988,-0.39239728450775
262,2044836209,-1.48648500442505,0.04065219312906,21.09055519104004,-0.00028722782736,-0.35697025060654,9.78708744049072,-5.38527774810791,-0.01335782464594,-0.44800576567650
263,2044844542,-1.48717796802521,0.04000495746732,21.09029388427734,0.00075571238995,-0.34580633044243,9.80323791503906,-5.48378992080688,0.01808365061879,-0.40848302841187
264,2044852875,-1.48646724224091,0.04031850025058,21.09043121337891,-0.00074077711906,-0.34870654344559,9.77429199218750,-5.33819866180420,0.13142664730549,-0.36755147576332
265,2044861208,-1.48580324649811,0.03977206349373,21.09041213989258,0.00581099931151,-0.32066094875336,9.76276493072510,-5.32075548171997,0.02891847491264,-0.38601934909821
266,2044869541,-1.48610329627991,0.04050454124808,21.09049224853516,-0.00559978745878,-0.34021013975143,9.83268642425537,-5.46025037765503,0.18196351826191,-0.37439045310020
267,2044877874,-1.48556363582611,0.04019062593579,21.08985137939453,-0.00827756244689,-0.35865285992622,9.78115558624268,-5.33556079864502,0.06014223024249,-0.45840516686440
268,2044886207,-1.48476815223694,0.03991171345115,21.09013938903809,0.00832069944590,-0.32481536269188,9.75056838989258,-5.33060455322266,0.05995011702180,-0.35104310512543
269,2044894540,-1.48510491847992,0.04025630652905,21.08964729309082,-0.01845017075539,-0.35598501563072,9.79843330383301,-5.44004106521606,0.13742037117481,-0.44485521316528
270,2044902873,-1.48455309867859,0.03956841304898,21.09018516540527,0.00643116841093,-0.34630855917931,9.79021549224854,-5.35833072662354,0.01032253541052,-0.32277777791023
271,2044911206,-1.48450183868408,0.03936254605651,21.09063529968262,-0.00308613665402,-0.34389171004295,9.80171203613281,-5.39319276809692,0.06831316649914,-0.33151224255562
272,2044919539,-1.48367786407471,0.03886679932475,21.09079742431641,-0.01390641555190,-0.33424863219261,9.81531143188477,-5.32610893249512,0.03455360606313,-0.36742344498634
273,2044927872,-1.48332524299622,0.03890441730618,21.09059906005859,-0.01098896935582,-0.35901126265526,9.81013202667236,-5.35874080657959,0.09997234493494,-0.40023517608643
274,2044936205,-1.48292410373688,0.03832646459341,21.09101295471191,-0.01766114123166,-0.33385506272316,9.80575656890869,-5.37687635421753,0.02292474545538,-0.33714738488197
275,2044944538,-1.48221743106842,0.03812076151371,21.09089088439941,-0.01793679594994,-0.34960913658142,9.79535007476807,-5.31517124176025,0.07141248881817,-0.40082436800003
276,2044952871,-1.48197662830353,0.03791011869907,21.09150123596191,-0.03020190447569,-0.34975653886795,9.80008697509766,-5.39617586135864,0.06694279611111,-0.31298032402992
277,2044961204,-1.48163914680481,0.03676336258650,21.09081077575684,-0.00362932705320,-0.34741678833961,9.82826137542725,-5.35926628112793,-0.04126453027129,-0.46410432457924
278,2044969537,-1.48075711727142,0.03627886995673,21.09068870544434,-0.00809797178954,-0.35304883122444,9.79939746856689,-5.31896305084229,0.03598800301552,-0.40059384703636
279,2044977870,-1.48026859760284,0.03572738915682,21.09113502502441,0.02283491194248,-0.35381308197975,9.78022766113281,-5.33937692642212,0.02794513292611,-0.32910451292992
280,2044986203,-1.48058795928955,0.03658745437860,21.09162139892578,-0.00619565322995,-0.34754347801208,9.79510974884033,-5.46368360519409,0.19515487551689,-0.32434025406837
281,2044994536,-1.48093473911285,0.03676571324468,21.09135818481445,0.01071673072875,-0.32835558056831,9.79697036743164,-5.44052791595459,0.11736443638802,-0.41585990786552
282,2045002869,-1.48063230514526,0.03675079345703,21.09187507629395,0.01574604585767,-0.36454316973686,9.81722640991211,-5.38947868347168,0.09095614403486,-0.32170200347900
283,2045011202,-1.48105430603027,0.03685474395752,21.09180831909180,-0.00212998106144,-0.34735968708992,9.80576705932617,-5.44938993453979,0.10775909572840,-0.40599846839905
284,2045019535,-1.48041152954102,0.03692643344402,21.09118843078613,-0.01451765839010,-0.35601839423180,9.81953907012939,-5.34808588027954,0.10504398494959,-0.46109464764595
285,2045027868,-1.48028957843781,0.03740806877613,21.09108352661133,0.00888928398490,-0.35797658562660,9.79102134704590,-5.38427877426147,0.15194363892078,-0.39265340566635
286,2045036201,-1.47962093353271,0.03728104382753,21.09064102172852,-0.01283439341933,-0.35051748156548,9.76854801177979,-5.34560108184814,0.08047992736101,-0.43965557217598
287,2045044534,-1.47976601123810,0.03648332506418,21.09118080139160,-0.01864516735077,-0.34555795788765,9.78261470794678,-5.41783332824707,-0.00272791576572,-0.31721949577332
288,2045052867,-1.47954297065735,0.03619944676757,21.09118080139160,-0.03159121796489,-0.32995477318764,9.79302024841309,-5.39757299423218,0.06093626841903,-0.38645479083061
289,2045061200,-1.47910535335541,0.03742732852697,21.09232711791992,-0.01880763657391,-0.34059682488441,9.78720664978027,-5.34736871719360,0.23890398442745,-0.27367529273033
290,2045069533,-1.47963774204254,0.03759773820639,21.09160423278809,-0.01150332391262,-0.34796336293221,9.78636360168457,-5.48881006240845,0.11651914566755,-0.47195509076118
291,2045077866,-1.47866225242615,0.03730655089021,21.09150505065918,-0.01282175257802,-0.35789075493813,9.78728485107422,-5.28235960006714,0.06001415103674,-0.40026083588600
292,2045086199,-1.47930979728699,0.03811475634575,21.09224319458008,-0.00893761217594,-0.33828818798065,9.78179645538330,-5.50276994705200,0.18928918242455,-0.29426911473274
293,2045094532,-1.47908997535706,0.03893398120999,21.09176445007324,-0.00113855942618,-0.35701501369476,9.80835247039795,-5.37149715423584,0.19525732100010,-0.47853794693947
294,2045102865,-1.47822082042694,0.03909432888031,21.09144401550293,-0.00883332081139,-0.34786179661751,9.84752368927002,-5.32080650329590,0.11531528830528,-0.42374911904335
295,2045111198,-1.47795498371124,0.03940641507506,21.09039115905762,0.00582109438255,-0.35840883851051,9.78457546234131,-5.36829566955566,0.13450033962727,-0.50730270147324
296,2045119531,-1.47724378108978,0.03885092213750,21.08981132507324,0.00758014619350,-0.35869088768959,9.79262828826904,-5.33876132965088,0.02948198467493,-0.45658650994301
297,2045127864,-1.47712719440460,0.03886524960399,21.09018707275391,0.00892577599734,-0.33826780319214,9.82272911071777,-5.38509845733643,0.09559233486652,-0.33276736736298
298,2045136197,-1.47723972797394,0.03885431215167,21.08933639526367,-0.00092477467842,-0.35483571887016,9.79232501983643,-5.43747949600220,0.09505443274975,-0.48814326524734
299,2045144530,-1.47676253318787,0.03915705531836,21.08886528015137,-0.00842940621078,-0.34695401787758,9.82158851623535,-5.34334659576416,0.13265612721443,-0.44037270545959
300,2045152863,-1.47648060321808,0.03910596296191,21.08835792541504,-0.02002898603678,-0.34763646125793,9.80128955841064,-5.39183521270752,0.09026457369328,-0.44690439105034
301,2045161196,-1.47623336315155,0.03969602659345,21.08848571777344,0.01184704247862,-0.35068684816360,9.81311130523682,-5.36942243576050,0.16487881541252,-0.36650127172470
302,2045169529,-1.47626936435699,0.03978505730629,21.08797264099121,-0.01401647180319,-0.36008635163307,9.82607746124268,-5.43066549301147,0.10673449933529,-0.44792887568474
303,2045177862,-1.47637367248535,0.04003537446260,21.08791923522949,-0.03045354411006,-0.35306772589684,9.79118061065674,-5.41166019439697,0.12476692348719,-0.39134705066681
304,2045186195,-1.47588670253754,0.04056028276682,21.08814048767090,-0.00930453278124,-0.36098986864090,9.77272987365723,-5.36614370346069,0.15601631999016,-0.35797172784805
305,2045194528,-1.47571325302124,0.04112115874887,21.08797645568848,-0.01908636651933,-0.34916302561760,9.81476402282715,-5.37782430648804,0.16272725164890,-0.39913386106491
306,2045202861,-1.47466278076172,0.04193413257599,21.08784675598145,-0.00962564162910,-0.35275870561600,9.81992530822754,-5.29900836944580,0.19208115339279,-0.39785307645798
307,2045211194,-1.47434771060944,0.04189705103636,21.08795356750488,-0.00535302562639,-0.34813261032104,9.77052402496338,-5.36081600189209,0.08929122984409,-0.37113749980927
308,2045219527,-1.47405791282654,0.04124462977052,21.08839797973633,0.00095579354092,-0.34323039650917,9.76915264129639,-5.39083576202393,0.01552222575992,-0.33351013064384
309,2045227860,-1.47409522533417,0.04075707495213,21.08888626098633,-0.00027303938987,-0.35285636782646,9.77005863189697,-5.40541028976440,0.03442553430796,-0.32457074522972
310,2045236193,-1.47325479984283,0.04051975533366,21.08810615539551,0.00202360167168,-0.33686369657516,9.80049800872803,-5.32349586486816,0.06813386827707,-0.47930639982224
311,2045244526,-1.47320735454559,0.04086902365088,21.08734893798828,-0.00318084214814,-0.35257539153099,9.78413486480713,-5.39252567291260,0.13888037204742,-0.46388655900955
312,2045252859,-1.47316217422485,0.04099202156067,21.08712577819824,-0.00332642183639,-0.32797986268997,9.80372142791748,-5.41931962966919,0.10893735289574,-0.41242760419846
313,2045261192,-1.47276139259338,0.04010546207428,21.08799743652344,0.00042457217933,-0.34838652610779,9.79761123657227,-5.35144138336182,-0.01404940895736,-0.28445887565613
314,2045269525,-1.47275578975677,0.03991878405213,21.08764266967773,-0.00262843235396,-0.35504543781281,9.79284667968750,-5.42387866973877,0.07312864065170,-0.42777055501938
315,2045277858,-1.47292864322662,0.04021991789341,21.08763504028320,0.00243062176742,-0.35376858711243,9.81030654907227,-5.42083024978638,0.13175962865353,-0.39106532931328
316,2045286191,-1.47259354591370,0.03968754038215,21.08795547485352,-0.01229328569025,-0.34839215874672,9.79118824005127,-5.38448333740234,0.02950760163367,-0.34749549627304
317,2045294524,-1.47220790386200,0.03983468562365,21.08786582946777,-0.02435969933867,-0.35310274362564,9.79215145111084,-5.35213279724121,0.11219034343958,-0.38043543696404
318,2045302857,-1.47203052043915,0.03967801854014,21.08786392211914,-0.01234460435808,-0.35840550065041,9.81702899932861,-5.40430974960327,0.07487041503191,-0.38491794466972
319,2045311190,-1.47228026390076,0.04076470807195,21.08698081970215,-0.01236691791564,-0.34668281674385,9.81238460540771,-5.42828369140625,0.22842772305012,-0.48975697159767
320,2045319523,-1.47272372245789,0.04078746214509,21.08703231811523,0.00120398937725,-0.35882437229156,9.76972866058350,-5.47861576080322,0.09659127146006,-0.37877047061920
321,2045327856,-1.47230243682861,0.03991093859076,21.08778953552246,-0.01540558133274,-0.35124292969704,9.80177307128906,-5.34877777099609,-0.01200026925653,-0.30244007706642
322,2045336189,-1.47143995761871,0.03947265818715,21.08762931823730,-0.00858916528523,-0.33444854617119,9.79820251464844,-5.32167768478394,0.04216102883220,-0.40520438551903
323,2045344522,-1.47115528583527,0.03973876684904,21.08731460571289,-0.01020557433367,-0.36256727576256,9.81338500976562,-5.36545228958130,0.12658554315567,-0.41885676980019
324,2045352855,-1.47141957283020,0.03947289660573,21.08606529235840,-0.00350819597952,-0.33991336822510,9.75871372222900,-5.45625495910645,0.06654577702284,-0.53576016426086
325,2045361188,-1.47111546993256,0.03898533806205,21.08682441711426,-0.02939321473241,-0.33299291133881,9.76255321502686,-5.36358261108398,0.03378517925739,-0.29611337184906
326,2045369521,-1.47082591056824,0.03814584016800,21.08651161193848,0.00385515508242,-0.35603541135788,9.81435394287109,-5.39027261734009,-0.00518688280135,-0.42510667443275
327,2045377854,-1.47092473506927,0.03762738406658,21.08677482604980,-0.00766635406762,-0.34883633255959,9.78385734558105,-5.41040563583374,0.03119814023376,-0.34980082511902
328,2045386187,-1.47065281867981,0.03650867193937,21.08734893798828,0.00447086663917,-0.33839544653893,9.78969764709473,-5.39260339736938,-0.04155909642577,-0.31873074173927
329,2045394520,-1.47087907791138,0.03603514656425,21.08671951293945,0.01883896254003,-0.35355621576309,9.82377719879150,-5.42577362060547,0.04013750702143,-0.46747261285782
330,2045402853,-1.47078299522400,0.03715703263879,21.08636093139648,0.00607023062184,-0.35334971547127,9.78881263732910,-5.41342782974243,0.22970846295357,-0.42602878808975
331,2045411186,-1.47087371349335,0.03691450506449,21.08647537231445,-0.01737511530519,-0.32878294587135,9.77899360656738,-5.41178846359253,0.06587981432676,-0.36191633343697
332,2045419519,-1.47066402435303,0.03659909218550,21.08673667907715,-0.00942797865719,-0.35648286342621,9.78473281860352,-5.39939117431641,0.05542920902371,-0.35325872898102
333,2045427852,-1.47054374217987,0.03666715323925,21.08680343627930,-0.01026856899261,-0.35438320040703,9.81255245208740,-5.38450908660889,0.10263624042273,-0.37687507271767
334,2045436185,-1.46979355812073,0.03777562081814,21.08631324768066,-0.00912642013282,-0.34064176678658,9.80699157714844,-5.33370351791382,0.22869668900967,-0.44051358103752
335,2045444518,-1.46988773345947,0.03805867582560,21.08566856384277,0.00277616363019,-0.34178951382637,9.79838848114014,-5.41091728210449,0.13037645816803,-0.46119710803032
336,2045452851,-1.47096848487854,0.03864596411586,21.08510780334473,-0.01348526030779,-0.35499215126038,9.80792999267578,-5.55504894256592,0.16649253666401,-0.45110511779785
337,2045461184,-1.47029149532318,0.03915193304420,21.08497428894043,-0.00191641855054,-0.35083803534508,9.78421974182129,-5.31673431396484,0.15573455393314,-0.40300157666206
338,2045469517,-1.47035467624664,0.03950336575508,21.08491516113281,0.01895813085139,-0.36264955997467,9.80768585205078,-5.43340682983398,0.13670317828655,-0.39098849892616
339,2045477850,-1.47091913223267,0.03939173743129,21.08548164367676,0.00938138272613,-0.35377392172813,9.77021694183350,-5.46609115600586,0.08042870461941,-0.31739884614944
340,2045486183,-1.47016346454620,0.03959061577916,21.08516883850098,0.01656398177147,-0.33320778608322,9.80426120758057,-5.33411312103271,0.11917021870613,-0.42155912518501
341,2045494516,-1.46967315673828,0.03979130089283,21.08466720581055,-0.02505817450583,-0.32302606105804,9.79109668731689,-5.34075975418091,0.11946478486061,-0.43968114256859
342,2045502849,-1.46950697898865,0.03980749845505,21.08427047729492,-0.02437655068934,-0.33424913883209,9.82997703552246,-5.40574312210083,0.09769269078970,-0.43394353985786
343,2045511182,-1.46959614753723,0.03997755795717,21.08486557006836,0.00525197898969,-0.35590323805809,9.77714538574219,-5.41045665740967,0.11303562670946,-0.29780390858650
344,2045519515,-1.46982324123383,0.04063754528761,21.08514785766602,-0.00105138786603,-0.34997022151947,9.78257083892822,-5.45200300216675,0.17223012447357,-0.34949344396591
345,2045527848,-1.47012972831726,0.03987336903811,21.08520317077637,-0.00635920139030,-0.34660395979881,9.79956626892090,-5.43601894378662,0.00366283534095,-0.39103969931602
346,2045536181,-1.46961569786072,0.03867141902447,21.08522796630859,-0.01956912688911,-0.34574201703072,9.79149723052979,-5.36363315582275,-0.04978126287460,-0.38681334257126
347,2045544514,-1.47010064125061,0.03841701894999,21.08510589599609,-0.01631963439286,-0.35645744204521,9.77405643463135,-5.45715141296387,0.06329277157784,-0.39864712953568
348,2045552847,-1.46975004673004,0.03780998289585,21.08494186401367,-0.01788771897554,-0.35544016957283,9.82711410522461,-5.38263940811157,0.02269421331584,-0.40482023358345
349,2045561180,-1.46894764900208,0.03830661624670,21.08427429199219,-0.01032042782754,-0.35303196310997,9.79013442993164,-5.30377388000488,0.15647736191750,-0.45901992917061
350,2045569513,-1.46870827674866,0.03892216086388,21.08434867858887,-0.02244405075908,-0.34094369411469,9.80322265625000,-5.39680385589600,0.16715848445892,-0.37523570656776
351,2045577846,-1.46890461444855,0.03938784077764,21.08422851562500,0.00010701148858,-0.32628440856934,9.81063270568848,-5.42326307296753,0.15053483843803,-0.39997905492783
352,2045586179,-1.46840000152588,0.04045502468944,21.08373832702637,-0.01709681376815,-0.34861746430397,9.82304763793945,-5.36381292343140,0.22397089004517,-0.44080820679665
353,2045594512,-1.46846401691437,0.04061780124903,21.08368873596191,-0.00466851983219,-0.34923246502876,9.79775428771973,-5.40681934356689,0.11513599008322,-0.38591688871384
354,2045602845,-1.46879303455353,0.04106248915195,21.08347129821777,0.01180636230856,-0.35550874471664,9.80603122711182,-5.46516847610474,0.14756360650063,-0.40968692302704
355,2045611178,-1.46907126903534,0.04069893807173,21.08294105529785,-0.00137682235800,-0.35295265913010,9.80125999450684,-5.43199825286865,0.05291901156306,-0.44739106297493
356,2045619511,-1.46888351440430,0.04121552780271,21.08304786682129,0.01241979375482,-0.35579922795296,9.80995559692383,-5.40172195434570,0.15599070489407,-0.37159854173660
357,2045627844,-1.46894454956055,0.04064074531198,21.08335685729980,-0.01618117652833,-0.34816941618919,9.79129695892334,-5.40710115432739,0.02489703521132,-0.34795656800270
358,2045636177,-1.46875989437103,0.04038178548217,21.08324623107910,0.01676083728671,-0.34484213590622,9.77717113494873,-5.40251636505127,0.06383068114519,-0.39974856376648
359,2045644510,-1.46846938133240,0.03995362669230,21.08362007141113,0.00485788099468,-0.37178513407707,9.82030582427979,-5.36476039886475,0.04208419099450,-0.34088709950447
360,2045652843,-1.46783292293549,0.03999402374029,21.08389854431152,-0.00516686681658,-0.35848069190979,9.79561901092529,-5.34900712966919,0.09825620055199,-0.35051798820496
361,2045661176,-1.46726167201996,0.04004805162549,21.08455848693848,-0.02403836324811,-0.35464903712273,9.79275798797607,-5.33005380630493,0.09905025362968,-0.30272185802460
362,2045669509,-1.46682405471802,0.03913234919310,21.08441925048828,-0.01945677213371,-0.35227212309837,9.80978393554688,-5.37234258651733,-0.01504836417735,-0.40382125973701
363,2045677842,-1.46579122543335,0.03899424895644,21.08487701416016,-0.01241428032517,-0.33301880955696,9.81189155578613,-5.27603292465210,0.07668902724981,-0.33658388257027
364,2045686175,-1.46586704254150,0.03925433009863,21.08460044860840,-0.02360790781677,-0.35060983896255,9.74971580505371,-5.43366289138794,0.12661115825176,-0.41667956113815
365,2045694508,-1.46613895893097,0.03902045264840,21.08431625366211,-0.01189499720931,-0.33630079030991,9.76024436950684,-5.43217706680298,0.06787771731615,-0.43827235698700
366,2045702841,-1.46551799774170,0.03947289660573,21.08511924743652,-0.03064476698637,-0.34496077895164,9.80258274078369,-5.35013484954834,0.14589866995811,-0.28745573759079
367,2045711174,-1.46600103378296,0.03974792361259,21.08515357971191,-0.00773052778095,-0.36563879251480,9.78488922119141,-5.45768928527832,0.12889082729816,-0.37433925271034
368,2045719507,-1.46553981304169,0.04052345827222,21.08493804931641,-0.00238605751656,-0.36968436837196,9.78851222991943,-5.37008857727051,0.18718884885311,-0.40953323245049
369,2045727840,-1.46557736396790,0.04130956158042,21.08478736877441,0.00661808159202,-0.35228058695793,9.78952121734619,-5.40371990203857,0.19026252627373,-0.40587034821510
370,2045736173,-1.46485948562622,0.04055630415678,21.08469581604004,0.00223221257329,-0.35429513454437,9.76414775848389,-5.33827543258667,0.00338107906282,-0.39985102415085
371,2045744506,-1.47651326656342,0.04007112607360,21.09716224670410,0.00733967497945,-0.36026018857956,9.80370140075684,-5.39992904663086,0.12043814361095,-0.46404033899307
372,2045752839,-1.47581529617310,0.04063079506159,21.09725952148438,0.01026165299118,-0.35159164667130,9.79102897644043,-5.34132337570190,0.16031949222088,-0.37144482135773
373,2045761172,-1.47617650032043,0.04056825488806,21.09728050231934,0.00454953452572,-0.34851035475731,9.78586196899414,-5.44162893295288,0.08788243681192,-0.39559906721115
374,2045769505,-1.47593438625336,0.04043952375650,21.09717559814453,-0.00053905078676,-0.32080039381981,9.79702186584473,-5.39431953430176,0.07927606254816,-0.39938998222351
375,2045777838,-1.47579276561737,0.04150781035423,21.09748458862305,-0.01833445765078,-0.34691414237022,9.81099605560303,-5.38179445266724,0.22233156859875,-0.35492366552353
376,2045786171,-1.47534430027008,0.04215123876929,21.09689903259277,-0.00394969619811,-0.34627923369408,9.77714157104492,-5.36955070495605,0.17353644967079,-0.45435813069344
377,2045794504,-1.47496807575226,0.04268988966942,21.09687995910645,-0.01502948533744,-0.34458866715431,9.81379222869873,-5.35318279266357,0.15906441211700,-0.38742813467979
378,2045802837,-1.47458934783936,0.04243530705571,21.09667205810547,-0.01248730346560,-0.35094594955444,9.77804088592529,-5.37772178649902,0.06436856836081,-0.41158235073090
379,2045811170,-1.47452342510223,0.04233466833830,21.09666252136230,-0.01129135023803,-0.34136143326759,9.77745723724365,-5.39119482040405,0.08201678842306,-0.38261267542839
380,2045819503,-1.47465205192566,0.04259306564927,21.09712600708008,0.00262001901865,-0.34586328268051,9.80538845062256,-5.43945169448853,0.12489501386881,-0.32941189408302
381,2045827836,-1.47510635852814,0.04279655963182,21.09688377380371,-0.00152238667943,-0.33213752508163,9.81328392028809,-5.45289945602417,0.11872199177742,-0.41660276055336
382,2045836169,-1.47543537616730,0.04210065305233,21.09654808044434,0.00729730958119,-0.34117904305458,9.77638721466064,-5.46445083618164,0.01275588758290,-0.42823156714439
383,2045844502,-1.47514367103577,0.04180951416492,21.09680938720703,-0.00277910777368,-0.35850334167480,9.78131294250488,-5.36198186874390,0.05920730903745,-0.34446027874947
384,2045852835,-1.47463798522949,0.04105978831649,21.09662055969238,0.00131632131524,-0.35912516713142,9.76111316680908,-5.36348009109497,0.00440564891323,-0.41063463687897
385,2045861168,-1.47440254688263,0.04113604128361,21.09604263305664,-0.00241539301351,-0.34982320666313,9.79565811157227,-5.37193298339844,0.10519766062498,-0.43046000599861
386,2045869501,-1.47353100776672,0.04154388234019,21.09744453430176,0.01597247458994,-0.35621339082718,9.79361629486084,-5.31864213943481,0.13894441723824,-0.21685013175011
387,2045877834,-1.47327852249146,0.04054195061326,21.09801864624023,0.00424680812284,-0.33335933089256,9.80387592315674,-5.36835956573486,-0.02707424759865,-0.33326682448387
388,2045886167,-1.47301924228668,0.04085619002581,21.09823417663574,-0.00104746990837,-0.33096054196358,9.77878475189209,-5.39380741119385,0.13150349259377,-0.35899633169174
389,2045894500,-1.47237980365753,0.04083735868335,21.09812545776367,-0.01790798269212,-0.37388074398041,9.77401065826416,-5.32139539718628,0.09251861274242,-0.39475378394127
390,2045902833,-1.47187232971191,0.04108126834035,21.09866714477539,-0.02823004871607,-0.35996338725090,9.80066108703613,-5.36268615722656,0.12166763097048,-0.32088238000870
391,2045911166,-1.47192955017090,0.04043128341436,21.09825515747070,-0.00309223867953,-0.34350982308388,9.78333759307861,-5.40482044219971,0.01836540363729,-0.43491682410240
392,2045919499,-1.47052454948425,0.03965833038092,21.09891891479492,-0.00799602270126,-0.34587249159813,9.78484249114990,-5.25565624237061,-0.00023052810866,-0.30939429998398
393,2045927832,-1.47074162960052,0.03920751065016,21.09925079345703,-0.04445877671242,-0.33343359827995,9.78143882751465,-5.42515897750854,0.03857503831387,-0.34767481684685
394,2045936165,-1.47059357166290,0.03960643336177,21.09894180297852,-0.01972880773246,-0.35498470067978,9.79230213165283,-5.40622997283936,0.14297865331173,-0.42254525423050
395,2045944498,-1.47071051597595,0.03924934566021,21.09881401062012,-0.01310873497277,-0.35248282551765,9.79085159301758,-5.41189050674438,0.05215057730675,-0.38315051794052
396,2045952831,-1.47073483467102,0.03869479149580,21.09946823120117,-0.00200538407080,-0.34937885403633,9.78277778625488,-5.42679834365845,0.02535809390247,-0.30950963497162
397,2045961164,-1.47097671031952,0.03907877579331,21.09954452514648,0.00888246856630,-0.33426997065544,9.80150222778320,-5.42738771438599,0.14154425263405,-0.37964135408401
398,2045969497,-1.47069668769836,0.03933594748378,21.09897804260254,0.00900793354958,-0.34415453672409,9.81031703948975,-5.39068269729614,0.12679046392441,-0.45351287722588
399,2045977830,-1.47029197216034,0.03983484581113,21.09856796264648,0.00646873144433,-0.36144700646400,9.80455970764160,-5.35069847106934,0.15629805624485,-0.44098746776581
400,2045986163,-1.47025990486145,0.03999684751034,21.09877967834473,0.00886625796556,-0.36515983939171,9.79218387603760,-5.42047166824341,0.11290753632784,-0.36043068766594
401,2045994496,-1.47058355808258,0.04097425565124,21.09956169128418,0.00942079350352,-0.34058344364166,9.82129192352295,-5.43678808212280,0.21029287576675,-0.30290114879608
402,2046002829,-1.47073197364807,0.04204870387912,21.09974861145020,-0.01771609298885,-0.34714162349701,9.80184841156006,-5.44162845611572,0.22261330485344,-0.36086609959602
403,2046011162,-1.47038769721985,0.04207383841276,21.10004043579102,-0.01807696186006,-0.35029652714729,9.80748939514160,-5.35674285888672,0.09735970199108,-0.35950854420662
404,2046019495,-1.47063207626343,0.04252556711435,21.09942245483398,-0.00201291963458,-0.36874005198479,9.77490997314453,-5.45297622680664,0.15015065670013,-0.46022379398346
405,2046027828,-1.47023141384125,0.04358892887831,21.09981346130371,-0.01990236341953,-0.33877113461494,9.81676959991455,-5.34980201721191,0.22092279791832,-0.34060531854630
406,2046036161,-1.47011280059814,0.04425915330648,21.10041999816895,-0.00086173939053,-0.34772345423698,9.79376506805420,-5.41055822372437,0.17320345342159,-0.31235274672508
407,2046044494,-1.47002208232880,0.04369351267815,21.10027694702148,-0.01982921920717,-0.35911303758621,9.79024028778076,-5.38748073577881,0.02763776294887,-0.41237634420395
408,2046052827,-1.46974790096283,0.04329002648592,21.10012626647949,-0.02189577929676,-0.34182518720627,9.81493854522705,-5.39068222045898,0.04659229144454,-0.40576791763306
409,2046061160,-1.46931266784668,0.04383778944612,21.10052680969238,-0.01858565397561,-0.35482499003410,9.80476093292236,-5.34519195556641,0.15842404961586,-0.32618448138237
410,2046069493,-1.46810793876648,0.04411769285798,21.10055160522461,0.00564026786014,-0.35349375009537,9.82513141632080,-5.27926015853882,0.12799432873726,-0.38368839025497
411,2046077826,-1.46827781200409,0.04370058327913,21.09999656677246,0.00366995856166,-0.33846470713615,9.77235984802246,-5.41970396041870,0.04654106497765,-0.45423004031181
412,2046086159,-1.46781039237976,0.04361771419644,21.10074996948242,0.01009274367243,-0.34399008750916,9.80091667175293,-5.36724567413330,0.08237538486719,-0.29731726646423
413,2046094492,-1.46835696697235,0.04336061328650,21.10133171081543,-0.00009818217950,-0.34841847419739,9.79175567626953,-5.46460533142090,0.06190960109234,-0.32236796617508
414,2046102825,-1.46812462806702,0.04247608780861,21.10106277465820,0.00189134490211,-0.35062596201897,9.77874279022217,-5.39498567581177,-0.01023288816214,-0.42170000076294
415,2046111158,-1.46834218502045,0.04187055677176,21.10104751586914,0.00645360117778,-0.34165287017822,9.77466964721680,-5.42513370513916,0.02118297293782,-0.37907791137695
416,2046119491,-1.46848988533020,0.04231205582619,21.10059547424316,0.00367973581888,-0.35166043043137,9.80982971191406,-5.44129610061646,0.14886993169785,-0.44006535410881
417,2046127824,-1.46832847595215,0.04225706681609,21.10101127624512,-0.00519466586411,-0.35725662112236,9.80704307556152,-5.37827301025391,0.08738296478987,-0.34725219011307
418,2046136157,-1.46737849712372,0.04174725338817,21.10153007507324,0.00562979746610,-0.34110778570175,9.79535961151123,-5.31043291091919,0.03068585321307,-0.32546728849411
419,2046144490,-1.46791601181030,0.04219245910645,21.10171699523926,-0.00901647098362,-0.35222312808037,9.78352165222168,-5.46296548843384,0.14740991592407,-0.36862725019455
420,2046152823,-1.46747398376465,0.04252828285098,21.10200691223145,-0.00700759934261,-0.34538638591766,9.75240707397461,-5.37190723419189,0.13375754654408,-0.35118398070335
421,2046161156,-1.46725964546204,0.04222331568599,21.10182380676270,-0.01817070320249,-0.34788253903389,9.81678867340088,-5.37221384048462,0.05911764875054,-0.40402609109879
422,2046169489,-1.46737670898438,0.04244668036699,21.10165023803711,-0.03225187212229,-0.37670359015465,9.79267406463623,-5.43829917907715,0.12118095159531,-0.40635707974434
423,2046177822,-1.46774065494537,0.04234027117491,21.10177421569824,-0.01858611404896,-0.35954189300537,9.76640796661377,-5.44244909286499,0.08214484900236,-0.37664452195168
424,2046186155,-1.46754395961761,0.04191350936890,21.10237121582031,0.00727521535009,-0.34361478686333,9.79620361328125,-5.39990329742432,0.04118768870831,-0.31465807557106
425,2046194488,-1.46780300140381,0.04217251762748,21.10315322875977,0.01256994344294,-0.34992605447769,9.78498077392578,-5.42956447601318,0.12374236434698,-0.31483739614487
426,2046202821,-1.46656560897827,0.04111477732658,21.10373687744141,-0.02328579686582,-0.34185916185379,9.80179595947266,-5.27462387084961,-0.03402851149440,-0.32019072771072
427,2046211154,-1.46710252761841,0.04038888588548,21.10295486450195,-0.01340013742447,-0.33192247152328,9.78530311584473,-5.46342706680298,0.00960533879697,-0.47784638404846
428,2046219487,-1.46663880348206,0.03950504586101,21.10352516174316,0.00359350745566,-0.34646880626678,9.79499435424805,-5.36765527725220,-0.01335782371461,-0.31970408558846
429,2046227820,-1.46670746803284,0.03937986120582,21.10403823852539,-0.00056797737489,-0.36325997114182,9.80100440979004,-5.40633249282837,0.07881499826908,-0.32346937060356
430,2046236153,-1.46742594242096,0.03955603763461,21.10455513000488,-0.00563864875585,-0.35328888893127,9.77724838256836,-5.51009559631348,0.11293316632509,-0.32375109195709
431,2046244486,-1.46683120727539,0.03876802697778,21.10513114929199,0.00718307727948,-0.35285308957100,9.78655052185059,-5.32631397247314,-0.00103737658355,-0.31965285539627
432,2046252819,-1.46657836437225,0.03807793930173,21.10460090637207,0.01405747886747,-0.34338423609734,9.79647064208984,-5.39309072494507,0.01260220445693,-0.45302617549896
433,2046261152,-1.46696102619171,0.03779323026538,21.10401535034180,-0.00677743507549,-0.33618262410164,9.79891300201416,-5.44511175155640,0.06372821331024,-0.45940402150154
434,2046269485,-1.46649003028870,0.03775670751929,21.10311698913574,-0.00477978726849,-0.34343162178993,9.77827262878418,-5.36815500259399,0.09232650697231,-0.49535369873047
435,2046277818,-1.46660935878754,0.03725983202457,21.10335159301758,-0.00708211911842,-0.34250968694687,9.80041885375977,-5.41336393356323,0.03448956832290,-0.35667824745178
436,2046286151,-1.46527612209320,0.03737901151180,21.10379028320312,-0.02372225373983,-0.34274658560753,9.77183246612549,-5.26407146453857,0.10594048351049,-0.33489331603050
437,2046294484,-1.46516048908234,0.03743093460798,21.10411262512207,-0.01580419763923,-0.34028592705727,9.78881645202637,-5.38461160659790,0.10027973353863,-0.34723937511444
438,2046302817,-1.46503305435181,0.03812956064939,21.10362052917480,-0.02465991303325,-0.36927962303162,9.79426479339600,-5.40751075744629,0.18004246056080,-0.44257554411888
439,2046311150,-1.46498334407806,0.03867267072201,21.10390090942383,-0.00977150630206,-0.35216486454010,9.78639507293701,-5.39370489120483,0.15944862365723,-0.34613797068596
440,2046319483,-1.46489655971527,0.03808265551925,21.10339164733887,-0.03076275624335,-0.35354158282280,9.80857658386230,-5.41255712509155,0.02417983859777,-0.44984996318817
441,2046327816,-1.46459877490997,0.03753693401814,21.10354614257812,-0.02417354285717,-0.33932286500931,9.78052616119385,-5.36350536346436,0.02932829968631,-0.37976947426796
442,2046336149,-1.46440863609314,0.03677558153868,21.10238456726074,-0.00622283574194,-0.32809787988663,9.79111099243164,-5.39959573745728,0.00694145727903,-0.52899795770645
443,2046344482,-1.46425664424896,0.03675282374024,21.10275077819824,0.01773510500789,-0.34725096821785,9.77840709686279,-5.38141012191772,0.09046947956085,-0.34142497181892
444,2046352815,-1.46409499645233,0.03787030652165,21.10354042053223,-0.01375272031873,-0.34886449575424,9.82918453216553,-5.40277242660522,0.22568704187870,-0.28855717182159
445,2046361148,-1.46441090106964,0.03858523815870,21.10227012634277,-0.00573994964361,-0.35505518317223,9.78994369506836,-5.43678760528564,0.18421757221222,-0.53709208965302
446,2046369481,-1.46453011035919,0.03836123272777,21.10336685180664,-0.01106736063957,-0.36165463924408,9.81735038757324,-5.43855524063110,0.06482963263988,-0.25497689843178
447,2046377814,-1.46484398841858,0.03803757205606,21.10309219360352,0.01399868633598,-0.34122222661972,9.78376770019531,-5.43640375137329,0.05612079054117,-0.41890805959702
448,2046386147,-1.46468007564545,0.03745228052139,21.10357475280762,0.00067226530518,-0.35700425505638,9.80555629730225,-5.40451383590698,0.02256613969803,-0.33059012889862
449,2046394480,-1.46510732173920,0.03769915550947,21.10362434387207,-0.00391603214666,-0.33981105685234,9.77315425872803,-5.44851875305176,0.12484377622604,-0.37969258427620
450,2046402813,-1.46568489074707,0.03801513090730,21.10393905639648,-0.00964172556996,-0.34928384423256,9.79382991790771,-5.49342107772827,0.13068382441998,-0.34652212262154
451,2046411146,-1.46668803691864,0.03776790946722,21.10420989990234,-0.02360250055790,-0.34502905607224,9.79921913146973,-5.51762676239014,0.06424050778151,-0.36086615920067
452,2046419479,-1.46677124500275,0.03852616995573,21.10426902770996,0.00041368749226,-0.36873993277550,9.78032493591309,-5.43445730209351,0.18547268211842,-0.37669575214386
453,2046427812,-1.46630954742432,0.03914496675134,21.10465812683105,-0.01289012376219,-0.37274470925331,9.81097698211670,-5.34316778182983,0.16710728406906,-0.34280809760094
454,2046436145,-1.46556413173676,0.03959005326033,21.10507202148438,-0.01015144493431,-0.35461941361427,9.78984737396240,-5.33353710174561,0.14682079851627,-0.33599475026131
455,2046444478,-1.46576571464539,0.04080093652010,21.10552406311035,-0.02165539935231,-0.34451475739479,9.79676914215088,-5.42272567749023,0.23839166760445,-0.33015468716621
456,2046452811,-1.46569001674652,0.04015026241541,21.10519409179688,-0.00798385497183,-0.34104639291763,9.77121448516846,-5.41417074203491,0.01677732355893,-0.42866703867912
457,2046461144,-1.46598315238953,0.04039512574673,21.10503959655762,-0.01141191925853,-0.33734375238419,9.79220962524414,-5.43504619598389,0.12420341372490,-0.39616256952286
458,2046469477,-1.46545732021332,0.03988100215793,21.10456848144531,0.01221817918122,-0.34455364942551,9.76257801055908,-5.35971498489380,0.03463044762611,-0.44534191489220
459,2046477810,-1.46625041961670,0.03985501453280,21.10512351989746,-0.01193315256387,-0.34035748243332,9.78661632537842,-5.49395942687988,0.08995719999075,-0.31750127673149
460,2046486143,-1.46594810485840,0.03966611996293,21.10536956787109,-0.00493294605985,-0.34915822744370,9.80414867401123,-5.38809537887573,0.07141249626875,-0.35833033919334
461,2046494476,-1.46662080287933,0.03883344680071,21.10527801513672,0.00024177139858,-0.34716308116913,9.78179264068604,-5.47723293304443,-0.00549425370991,-0.39511239528656
462,2046502809,-1.46721601486206,0.03913245722651,21.10497474670410,-0.00386038282886,-0.35427802801132,9.78146934509277,-5.49523973464966,0.13117049634457,-0.42182806134224
463,2046511142,-1.46740102767944,0.03915881738067,21.10432243347168,-0.01175198145211,-0.34715837240219,9.80520343780518,-5.42008781433105,0.10048464685678,-0.46698597073555
464,2046519475,-1.46752667427063,0.03941084071994,21.10350227355957,0.00918196234852,-0.35093671083450,9.83382701873779,-5.43957996368408,0.12650869786739,-0.48220080137253
465,2046527808,-1.46839451789856,0.03974466398358,21.10448646545410,-0.01111102662981,-0.34169399738312,9.80994129180908,-5.50195074081421,0.13193891942501,-0.26248186826706
466,2046536141,-1.46797537803650,0.03893243148923,21.10414505004883,-0.00544502260163,-0.35665103793144,9.78647232055664,-5.37364816665649,-0.00270230160095,-0.43069055676460
467,2046544474,-1.46847343444824,0.03841603174806,21.10352325439453,-0.01295128744096,-0.35877001285553,9.79626560211182,-5.45786857604980,0.03424623608589,-0.45599740743637
468,2046552807,-1.46837067604065,0.03851675242186,21.10362243652344,-0.00569240096956,-0.34321010112762,9.78612041473389,-5.41232633590698,0.10578680038452,-0.37572240829468
469,2046561140,-1.46838819980621,0.03828353807330,21.10379981994629,-0.01058672647923,-0.35103702545166,9.76836967468262,-5.40120983123779,0.06654577702284,-0.37643960118294
470,2046569473,-1.46872937679291,0.03840970993042,21.10281753540039,-0.00611447729170,-0.35280084609985,9.81685352325439,-5.46399068832397,0.11265141516924,-0.50486940145493
471,2046577806,-1.46906042098999,0.03831248730421,21.10244560241699,-0.00548314070329,-0.34453290700912,9.76661396026611,-5.43832492828369,0.08478312194347,-0.42490172386169
472,2046586139,-1.46927714347839,0.03766255080700,21.10217094421387,-0.01441374886781,-0.36438301205635,9.78551959991455,-5.44987678527832,0.01672609709203,-0.42031678557396
473,2046594472,-1.46977758407593,0.03675802424550,21.10186004638672,0.00071281037526,-0.34975886344910,9.80900096893311,-5.45709991455078,-0.01333221048117,-0.42170000076294
474,2046602805,-1.46985101699829,0.03673686832190,21.10214042663574,0.00418119644746,-0.35560783743858,9.82157230377197,-5.43271493911743,0.09118667244911,-0.35220852494240
475,2046611138,-1.46960115432739,0.03676987439394,21.10121726989746,0.03001952543855,-0.33874487876892,9.79819488525391,-5.36714315414429,0.10161168128252,-0.50494623184204
476,2046619471,-1.46924364566803,0.03751585632563,21.10028266906738,0.02534696459770,-0.33302062749863,9.80471420288086,-5.38148641586304,0.18721441924572,-0.49657034873962
477,2046627804,-1.46826756000519,0.03842998668551,21.10050010681152,-0.01541497930884,-0.35548135638237,9.79082584381104,-5.28151416778564,0.20386368036270,-0.35881698131561
478,2046636137,-1.46830523014069,0.03940566629171,21.10021972656250,-0.00430305395275,-0.34481468796730,9.78475379943848,-5.42756700515747,0.21144552528858,-0.41811400651932
479,2046644470,-1.46807658672333,0.03918784856796,21.09964561462402,0.00001943820098,-0.34990561008453,9.79302692413330,-5.37249612808228,0.07092581689358,-0.45494726300240
480,2046652803,-1.46782493591309,0.03830578923225,21.09953117370605,-0.01475988328457,-0.36555406451225,9.80656147003174,-5.39278268814087,-0.01107815653086,-0.40310403704643
481,2046661136,-1.46808850765228,0.03699686750770,21.10021972656250,-0.00515634333715,-0.34120878577232,9.80105590820312,-5.42973136901855,-0.06472717225552,-0.29476860165596
482,2046669469,-1.46779608726501,0.03800131008029,21.09964752197266,-0.03276919573545,-0.34455242753029,9.80453014373779,-5.38808250427246,0.21678610146046,-0.45088741183281
483,2046677802,-1.46730041503906,0.03830960392952,21.09961318969727,-0.01952323317528,-0.35174450278282,9.79345417022705,-5.33994054794312,0.13060697913170,-0.38320177793503
484,2046686135,-1.46748542785645,0.03870468959212,21.09985160827637,-0.02714638225734,-0.32964819669724,9.78598976135254,-5.44616270065308,0.14154425263405,-0.35681912302971
485,2046694468,-1.46849107742310,0.03932325169444,21.10015106201172,0.00104211468715,-0.35559076070786,9.79911518096924,-5.51852273941040,0.16856727004051,-0.34864816069603
486,2046702801,-1.46831786632538,0.04000733792782,21.09985160827637,0.00336521025747,-0.32780209183693,9.80450153350830,-5.40249061584473,0.17648208141327,-0.42013749480247
487,2046711134,-1.46781933307648,0.04029112681746,21.10025596618652,0.00136379315518,-0.36040005087852,9.82181167602539,-5.33927440643311,0.12778940796852,-0.33976000547409
488,2046719467,-1.46767854690552,0.04083709046245,21.10044288635254,-0.00649472000077,-0.35166561603546,9.77831268310547,-5.40584611892700,0.15965352952480,-0.36245420575142
489,2046727800,-1.46748435497284,0.04056395962834,21.10084152221680,0.00899968668818,-0.33334970474243,9.81233787536621,-5.37513399124146,0.06103872135282,-0.33937579393387
490,2046736133,-1.46702289581299,0.04058218374848,21.10081863403320,0.00180287577678,-0.35001993179321,9.78841972351074,-5.36929416656494,0.09600215405226,-0.38824778795242
491,2046744466,-1.46692931652069,0.04062361642718,21.10107994079590,0.01408976968378,-0.36800807714462,9.78751182556152,-5.38699436187744,0.09787200391293,-0.34139937162399
492,2046752799,-1.46732175350189,0.04000789299607,21.10139846801758,0.00980851426721,-0.35482758283615,9.80894851684570,-5.47095727920532,0.02038893289864,-0.34923726320267
493,2046761132,-1.46766757965088,0.03918552398682,21.10174369812012,-0.01976590417325,-0.34092143177986,9.80591297149658,-5.44011831283569,-0.00531495455652,-0.34680396318436
494,2046769465,-1.46700000762939,0.03868310526013,21.10212135314941,-0.00043651118176,-0.35873705148697,9.77698516845703,-5.34291172027588,0.03324728086591,-0.34247514605522
495,2046777798,-1.46695566177368,0.03833295032382,21.10246467590332,-0.00818102806807,-0.34730392694473,9.78560352325439,-5.39306402206421,0.05122846364975,-0.34572812914848
496,2046786131,-1.46650755405426,0.03733159974217,21.10240554809570,-0.01166010089219,-0.36072772741318,9.78964614868164,-5.37090826034546,-0.02542212791741,-0.39662361145020
497,2046794464,-1.46676814556122,0.03753245249391,21.10187339782715,-0.02026258595288,-0.36544141173363,9.77699279785156,-5.42923164367676,0.12025882303715,-0.44016781449318
498,2046802797,-1.46677267551422,0.03754304349422,21.10120773315430,-0.02230790257454,-0.34812286496162,9.80850696563721,-5.42449283599854,0.09817936271429,-0.46544906497002
499,2046811130,-1.46689772605896,0.03737837076187,21.10101318359375,-0.01616376452148,-0.35834306478500,9.80685806274414,-5.41309499740601,0.07551077008247,-0.41224831342697
500,2046819463,-1.46585869789124,0.03721569851041,21.10076332092285,-0.00675210310146,-0.34981563687325,9.78622245788574,-5.29839372634888,0.07502409815788,-0.41632094979286
501,2046827796,-1.46548247337341,0.03772260993719,21.10021018981934,0.00120329693891,-0.34766784310341,9.80538749694824,-5.35313129425049,0.15768122673035,-0.45443496108055
502,2046836129,-1.46475124359131,0.03729892149568,21.10036659240723,-0.00225996738300,-0.34615424275398,9.78817749023438,-5.33673858642578,0.04308314248919,-0.36755144596100
503,2046844462,-1.46426045894623,0.03799367696047,21.10103607177734,0.01414732914418,-0.36344665288925,9.80235481262207,-5.34019660949707,0.17602103948593,-0.30881801247597
504,2046852795,-1.46328914165497,0.03771239146590,21.10115623474121,-0.00520442426205,-0.36755296587944,9.78419780731201,-5.30666780471802,0.06037275493145,-0.37167537212372
505,2046861128,-1.46320509910583,0.03703792765737,21.10166740417480,0.00750259868801,-0.35277733206749,9.79452037811279,-5.38750553131104,0.01283273100853,-0.32825919985771
506,2046869461,-1.46240997314453,0.03777327388525,21.10141563415527,0.00130548304878,-0.35740882158279,9.78561210632324,-5.32792758941650,0.18319301307201,-0.41524520516396
507,2046877794,-1.46235322952271,0.03823545947671,21.10099792480469,-0.00238180370070,-0.35982626676559,9.80902385711670,-5.39188623428345,0.15138013660908,-0.43883585929871
508,2046886127,-1.46194660663605,0.03681008145213,21.10134315490723,-0.01077405456454,-0.36266118288040,9.81325626373291,-5.37608194351196,-0.07749587297440,-0.34764918684959
509,2046894460,-1.46183395385742,0.03724131733179,21.10170173645020,-0.01213727612048,-0.34908467531204,9.79352092742920,-5.38507223129272,0.14541202783585,-0.33853054046631
510,2046902793,-1.46120786666870,0.03751911222935,21.10224723815918,-0.01360604353249,-0.34932854771614,9.79839038848877,-5.34844398498535,0.12586833536625,-0.31967845559120
511,2046911126,-1.46018230915070,0.03829511255026,21.10236740112305,-0.00485963327810,-0.33821669220924,9.79077529907227,-5.27513599395752,0.18706075847149,-0.38681337237358
512,2046919459,-1.45975494384766,0.03856733813882,21.10169601440430,-0.01505594421178,-0.35089010000229,9.79100799560547,-5.37170219421387,0.12963365018368,-0.46606376767159
513,2046927792,-1.45943009853363,0.03881933540106,21.10212898254395,-0.00773823587224,-0.36731866002083,9.82277488708496,-5.36112356185913,0.12297394126654,-0.31711700558662
514,2046936125,-1.45880746841431,0.03996990248561,21.10253143310547,0.00134878419340,-0.35427564382553,9.80861759185791,-5.34846973419189,0.23152706027031,-0.33540561795235
515,2046944458,-1.45886600017548,0.04057887569070,21.10279655456543,0.00845643598586,-0.34288775920868,9.79133415222168,-5.40466690063477,0.16669744253159,-0.35392466187477
516,2046952791,-1.45939254760742,0.04067603498697,21.10292816162109,0.01188412774354,-0.35264435410500,9.82281208038330,-5.48740196228027,0.10506958514452,-0.36919075250626
517,2046961124,-1.45945203304291,0.04045153409243,21.10227203369141,-0.00290459068492,-0.36997020244598,9.79749679565430,-5.40377140045166,0.07069528847933,-0.46542343497276
518,2046969457,-1.45923721790314,0.04138277098536,21.10184669494629,0.02446728385985,-0.33624070882797,9.80226707458496,-5.39839267730713,0.20691178739071,-0.43463516235352
519,2046977790,-1.45958137512207,0.04168172180653,21.10181808471680,-0.00333347776905,-0.36014899611473,9.80539894104004,-5.43927240371704,0.13129857182503,-0.39375481009483
520,2046986123,-1.45968329906464,0.04148073121905,21.10144424438477,0.00601376965642,-0.34590357542038,9.79478263854980,-5.43530178070068,0.07074651867151,-0.43289342522621
521,2046994456,-1.45947754383087,0.04172930866480,21.10171508789062,0.00307783088647,-0.36055955290794,9.80099773406982,-5.37382793426514,0.12387043237686,-0.36078932881355
522,2047002789,-1.45940935611725,0.04158305004239,21.10122680664062,-0.01277438551188,-0.35277077555656,9.80190277099609,-5.41604042053223,0.07807219028473,-0.44408681988716
523,2047011122,-1.46007490158081,0.04149124026299,21.10148811340332,-0.01447457447648,-0.33987230062485,9.80414104461670,-5.47692489624023,0.08291327953339,-0.34798222780228
524,2047019455,-1.46019792556763,0.04172541573644,21.10252952575684,-0.00341498502530,-0.35676670074463,9.75979328155518,-5.43957996368408,0.12010513991117,-0.25889590382576
525,2047027788,-1.45945560932159,0.04084119573236,21.10308265686035,-0.01974544860423,-0.34613198041916,9.80051517486572,-5.30874252319336,-0.01338343881071,-0.33648139238358
526,2047036121,-1.45907700061798,0.04100050777197,21.10342025756836,-0.03254259377718,-0.36606711149216,9.78197669982910,-5.37779855728149,0.11239527165890,-0.34475484490395
527,2047044454,-1.45912051200867,0.04031832516193,21.10349464416504,-0.00743765803054,-0.37116533517838,9.81250286102295,-5.40377092361450,0.01267904601991,-0.38532772660255
528,2047052787,-1.45898199081421,0.04084477573633,21.10323524475098,-0.00583470892161,-0.33891585469246,9.78451251983643,-5.40676784515381,0.15837283432484,-0.41575747728348
529,2047061120,-1.45872831344604,0.04142928496003,21.10302734375000,0.00262740044855,-0.32915768027306,9.78543758392334,-5.36867904663086,0.16544233262539,-0.40259167551994
530,2047069453,-1.45794093608856,0.04220062121749,21.10286712646484,0.00985619612038,-0.34154927730560,9.80002403259277,-5.32905435562134,0.18770112097263,-0.40377002954483
531,2047077786,-1.45763289928436,0.04176182299852,21.10290527343750,-0.00899639818817,-0.35685595870018,9.80148506164551,-5.36145639419556,0.04200734943151,-0.38186982274055
532,2047086119,-1.45737385749817,0.04144508391619,21.10301399230957,0.00761766638607,-0.35981911420822,9.76766586303711,-5.39241075515747,0.05567253753543,-0.37465941905975
533,2047094452,-1.45797729492188,0.04105098918080,21.10259246826172,0.02189430035651,-0.36029449105263,9.79907608032227,-5.47121334075928,0.04876950383186,-0.43043443560600
534,2047102785,-1.45806539058685,0.04065726324916,21.10190963745117,0.00169532606378,-0.35444763302803,9.79319000244141,-5.43455934524536,0.04853897169232,-0.46839469671249
535,2047111118,-1.45781075954437,0.04142706096172,21.10159683227539,-0.00219426746480,-0.35908490419388,9.82498931884766,-5.36714315414429,0.18790601193905,-0.41393882036209
536,2047119451,-1.45774149894714,0.04086282104254,21.10170936584473,0.00464733364061,-0.34496599435806,9.79747772216797,-5.41524600982666,0.02658757567406,-0.37480029463768
537,2047127784,-1.45680487155914,0.04101663827896,21.10132026672363,0.01331882551312,-0.33501583337784,9.78678512573242,-5.28563833236694,0.11454686522484,-0.42459440231323
538,2047136117,-1.45688092708588,0.04202273115516,21.10090065002441,-0.02725921757519,-0.34495994448662,9.82050418853760,-5.43181848526001,0.21562062203884,-0.43399477005005
539,2047144450,-1.45706546306610,0.04279206320643,21.10106277465820,-0.03184093162417,-0.35414543747902,9.80157279968262,-5.42126655578613,0.18683025240898,-0.36353006958961
540,2047152783,-1.45725142955780,0.04280917346478,21.10107421875000,-0.02051337063313,-0.34751603007317,9.79000282287598,-5.44644498825073,0.09715479612350,-0.38371405005455
541,2047161116,-1.45684349536896,0.04282834753394,21.10129165649414,-0.03211059048772,-0.33454930782318,9.76583671569824,-5.34894418716431,0.09686023741961,-0.36874258518219
542,2047169449,-1.45677196979523,0.04279314354062,21.10115814208984,-0.01055859960616,-0.36655977368355,9.78626918792725,-5.41579675674438,0.09014929831028,-0.40265578031540
543,2047177782,-1.45619177818298,0.04315580055118,21.10131645202637,-0.00265510799363,-0.38576948642731,9.80487823486328,-5.32750511169434,0.13856020569801,-0.37353241443634
544,2047186115,-1.45657217502594,0.04367281123996,21.10067367553711,-0.00718909874558,-0.35917782783508,9.78947734832764,-5.46980476379395,0.15742510557175,-0.46263155341148
545,2047194448,-1.45637667179108,0.04430852457881,21.10134315490723,-0.00156215729658,-0.33635860681534,9.78438377380371,-5.37339210510254,0.16966868937016,-0.30551379919052
546,2047202781,-1.45654010772705,0.04464984685183,21.10059165954590,0.00635647261515,-0.34969756007195,9.81462287902832,-5.44301223754883,0.13721545040607,-0.47559225559235
547,2047211114,-1.45684993267059,0.04405039548874,21.10054397583008,0.00644539482892,-0.34168496727943,9.76846790313721,-5.43568611145020,0.02330895140767,-0.39388287067413
548,2047219447,-1.45701801776886,0.04411491751671,21.10029220581055,0.01549845840782,-0.35418891906738,9.79443645477295,-5.44360160827637,0.10258501768112,-0.41598799824715
549,2047227780,-1.45743465423584,0.04371160268784,21.10117340087891,0.00775920879096,-0.35283428430557,9.79924964904785,-5.44736719131470,0.04456877335906,-0.29042699933052
550,2047236113,-1.45704019069672,0.04403294250369,21.10090637207031,0.01238589547575,-0.35216140747070,9.78239727020264,-5.37637710571289,0.13328367471695,-0.41769134998322
551,2047244446,-1.45704472064972,0.04353068768978,21.10095405578613,0.00010767988715,-0.34325182437897,9.75797271728516,-5.39851999282837,0.03396447002888,-0.38586559891701
552,2047252779,-1.45662093162537,0.04396800696850,21.10122489929199,-0.02940472029150,-0.34280890226364,9.77005386352539,-5.37464761734009,0.14630852639675,-0.35377100110054
553,2047261112,-1.45663285255432,0.04365177452564,21.10101318359375,-0.00231809588149,-0.36155307292938,9.77589130401611,-5.39811038970947,0.05786255374551,-0.41165915131569
554,2047269445,-1.45587968826294,0.04368121922016,21.10168457031250,-0.01395725458860,-0.35346248745918,9.78065586090088,-5.33179521560669,0.09543864428997,-0.30707627534866
555,2047277778,-1.45494174957275,0.04348571226001,21.10111236572266,-0.01587692461908,-0.36214151978493,9.77890682220459,-5.28668832778931,0.07356408238411,-0.45228335261345
556,2047286111,-1.45416772365570,0.04398166760802,21.10092735290527,-0.02252170629799,-0.35329964756966,9.79290866851807,-5.33069324493408,0.15373662114143,-0.40712541341782
557,2047294444,-1.45431923866272,0.04386385530233,21.10097122192383,-0.01421663351357,-0.31887528300285,9.81518459320068,-5.41668033599854,0.08170940726995,-0.40136224031448
558,2047302777,-1.45346415042877,0.04449343308806,21.10195159912109,-0.00585443619639,-0.34573534131050,9.80911254882812,-5.32019186019897,0.16582655906677,-0.26770719885826
559,2047311110,-1.45363330841064,0.04502269253135,21.10204696655273,-0.01723736152053,-0.33529418706894,9.80745983123779,-5.41903781890869,0.15839843451977,-0.37351959943771
560,2047319443,-1.45352256298065,0.04584012925625,21.10174942016602,-0.00079424126307,-0.35777717828751,9.81302356719971,-5.40994453430176,0.19392538070679,-0.42000943422318
561,2047327776,-1.45320522785187,0.04590118676424,21.10095024108887,-0.00041850635898,-0.35171529650688,9.81788253784180,-5.36058568954468,0.10445486009121,-0.47564354538918
562,2047336109,-1.45283234119415,0.04563000053167,21.10121345520020,-0.00574084278196,-0.36108642816544,9.77799415588379,-5.37848949432373,0.06070573627949,-0.35446256399155
563,2047344442,-1.45308876037598,0.04630601778626,21.10079574584961,0.00857414677739,-0.35628128051758,9.79609489440918,-5.42859125137329,0.17837755382061,-0.45674026012421
564,2047352775,-1.45288920402527,0.04666808620095,21.10090827941895,-0.01683729887009,-0.33526435494423,9.78599452972412,-5.39981412887573,0.13738195598125,-0.37048432230949
565,2047361108,-1.45252704620361,0.04630027338862,21.10104751586914,-0.02669854089618,-0.34159213304520,9.80116844177246,-5.35354137420654,0.04923055693507,-0.36335074901581
566,2047369441,-1.45215535163879,0.04670414701104,21.10157394409180,-0.00054770789575,-0.35102957487106,9.77897071838379,-5.37979602813721,0.14192846417427,-0.32162511348724
567,2047377774,-1.45200443267822,0.04726619645953,21.10132408142090,0.02522640302777,-0.35707965493202,9.80187892913818,-5.37889957427979,0.16277845203876,-0.41657707095146
568,2047386107,-1.45169603824615,0.04712546616793,21.10109138488770,-0.00135314534418,-0.34860122203827,9.83821868896484,-5.38694286346436,0.07848201692104,-0.41332411766052
569,2047394440,-1.45203804969788,0.04650494828820,21.10173797607422,-0.00128477509134,-0.36069327592850,9.80279350280762,-5.43993902206421,0.01785312220454,-0.31071352958679
570,2047402773,-1.45198786258698,0.04610806331038,21.10184860229492,-0.01979310065508,-0.34423974156380,9.79007530212402,-5.41744899749756,0.04638738185167,-0.37444168329239
571,2047411106,-1.45190691947937,0.04580486938357,21.10181427001953,-0.00734127918258,-0.35668963193893,9.78680801391602,-5.38817214965820,0.05868221074343,-0.37321218848228
572,2047419439,-1.45170140266418,0.04655206575990,21.10229492187500,-0.01779168844223,-0.36137387156487,9.80147647857666,-5.39849472045898,0.18252703547478,-0.32631257176399
573,2047427772,-1.45170891284943,0.04759823158383,21.10170555114746,0.00247000623494,-0.34459325671196,9.76564884185791,-5.39869976043701,0.22276699542999,-0.45351281762123
574,2047436105,-1.45095610618591,0.04794909432530,21.10205078125000,-0.00546446302906,-0.37437176704407,9.80142021179199,-5.33448505401611,0.13485895097256,-0.34444743394852
575,2047444438,-1.45053613185883,0.04820442572236,21.10308265686035,0.01946224272251,-0.35493037104607,9.78953933715820,-5.34747123718262,0.12284586578608,-0.26153415441513
576,2047452771,-1.44989132881165,0.04730085656047,21.10240554809570,-0.00729767186567,-0.34808483719826,9.79382801055908,-5.34597301483154,-0.01170570496470,-0.46986749768257
577,2047461104,-1.44963300228119,0.04710067063570,21.10243988037109,-0.00119062769227,-0.34867987036705,9.79684638977051,-5.36834621429443,0.07000370323658,-0.38640353083611
578,2047469437,-1.44961941242218,0.04650199040771,21.10235214233398,-0.00424759555608,-0.34399792551994,9.78719329833984,-5.42070198059082,0.02271982468665,-0.39857023954391
579,2047477770,-1.44936740398407,0.04654010385275,21.10247802734375,0.00137855252251,-0.35254445672035,9.79838275909424,-5.36773157119751,0.09853796660900,-0.36860162019730
580,2047486103,-1.44936585426331,0.04669251292944,21.10214233398438,0.01581948250532,-0.35743117332458,9.82527732849121,-5.42357110977173,0.11395773291588,-0.42656663060188
581,2047494436,-1.44920969009399,0.04771820455790,21.10163688659668,0.00340129225515,-0.36326381564140,9.76943969726562,-5.38046216964722,0.21920661628246,-0.43481442332268
582,2047502769,-1.44909238815308,0.04779794812202,21.10080909729004,-0.00262143090367,-0.35047468543053,9.78432846069336,-5.40815162658691,0.10673452913761,-0.48622217774391
583,2047511102,-1.44977223873138,0.04754535481334,21.10133361816406,-0.00707193650305,-0.36977547407150,9.79736995697021,-5.48007631301880,0.06270365417004,-0.32866907119751
584,2047519435,-1.44944751262665,0.04772409796715,21.10140419006348,-0.00252400152385,-0.35351747274399,9.75699615478516,-5.38476514816284,0.11644230782986,-0.37551748752594
585,2047527768,-1.44878756999969,0.04824244230986,21.10182189941406,0.01001313608140,-0.35445550084114,9.76552772521973,-5.31839895248413,0.15542717278004,-0.33368945121765
586,2047536101,-1.44807136058807,0.04878864437342,21.10064315795898,-0.02098026685417,-0.32651367783546,9.77145481109619,-5.33673906326294,0.16290654242039,-0.52746117115021
587,2047544434,-1.44814264774323,0.04860385507345,21.09996414184570,-0.01136952918023,-0.35657340288162,9.82147216796875,-5.40548753738403,0.07463987171650,-0.46923997998238
588,2047552767,-1.44811582565308,0.04956758767366,21.10040473937988,-0.01529080793262,-0.35150012373924,9.82138729095459,-5.42170143127441,0.20849987864494,-0.33135858178139
589,2047561100,-1.44772970676422,0.04957415163517,21.10028076171875,-0.01034954190254,-0.35783684253693,9.79172134399414,-5.35041618347168,0.09579724073410,-0.40207943320274
590,2047569433,-1.44739794731140,0.04994683340192,21.09986686706543,-0.00005769459676,-0.33112916350365,9.77307701110840,-5.38345909118652,0.14044286310673,-0.43440464138985
591,2047577766,-1.44710755348206,0.05014438927174,21.10004234313965,-0.01107473857701,-0.32426157593727,9.80920124053955,-5.36273717880249,0.11826092749834,-0.37569680809975
592,2047586099,-1.44680273532867,0.05072671175003,21.10012435913086,0.00141949905083,-0.34562152624130,9.78752040863037,-5.38742971420288,0.16464830935001,-0.37531256675720
593,2047594432,-1.44793093204498,0.05081827938557,21.10032653808594,0.01478203944862,-0.33098778128624,9.79341697692871,-5.53273868560791,0.10448046773672,-0.37134236097336
594,2047602765,-1.44827830791473,0.05091258138418,21.10054206848145,-0.00134238647297,-0.35065230727196,9.79163932800293,-5.46596288681030,0.10570995509624,-0.36055877804756
595,2047611098,-1.44827055931091,0.04971414059401,21.10073661804199,-0.00051503459690,-0.34802263975143,9.79207611083984,-5.39672708511353,-0.04898722469807,-0.38399580121040
596,2047619431,-1.44772481918335,0.04982451722026,21.10170936584473,0.01437593717128,-0.35101962089539,9.81260204315186,-5.35758876800537,0.10360959172249,-0.27008932828903
597,2047627764,-1.44799804687500,0.04957967251539,21.10135269165039,-0.00477688480169,-0.36347267031670,9.80322837829590,-5.42964172363281,0.06652017682791,-0.41824203729630
598,2047636097,-1.44795823097229,0.04994719475508,21.10128021240234,0.00104522332549,-0.33901154994965,9.78948402404785,-5.42031812667847,0.13867548108101,-0.39342188835144
599,2047644430,-1.44800162315369,0.04934492334723,21.10141563415527,-0.00205929903314,-0.34996464848518,9.78839206695557,-5.40231180191040,0.02251491509378,-0.37018978595734
600,2047652763,-1.44733548164368,0.04933457076550,21.10161399841309,-0.01266651134938,-0.34563812613487,9.77943611145020,-5.34373140335083,0.09297966957092,-0.36163452267647
601,2047661096,-1.44719648361206,0.04854883998632,21.10181427001953,-0.00802310835570,-0.35503455996513,9.78135776519775,-5.38018035888672,-0.00055070605595,-0.36765387654305
602,2047669429,-1.44702029228210,0.04803134873509,21.10194396972656,-0.01983389258385,-0.34337833523750,9.79328727722168,-5.40310525894165,0.03253007680178,-0.37246936559677
603,2047677762,-1.44679450988770,0.04847135022283,21.10245704650879,-0.00304699270055,-0.34894114732742,9.78012180328369,-5.37016439437866,0.14548884332180,-0.31642541289330
604,2047686095,-1.44729113578796,0.04831869900227,21.10261344909668,-0.00227310904302,-0.35617557168007,9.78733921051025,-5.48348283767700,0.07569006830454,-0.36719289422035
605,2047694428,-1.44760298728943,0.04955486208200,21.10192108154297,-0.03473065048456,-0.34807705879211,9.79745578765869,-5.43461084365845,0.24502578377724,-0.46975228190422
606,2047702761,-1.44761192798615,0.04968053475022,21.10173225402832,-0.01128782983869,-0.34310853481293,9.81526756286621,-5.42610692977905,0.10996190458536,-0.40835493803024
607,2047711094,-1.44736528396606,0.04973462969065,21.10150337219238,-0.01266346592456,-0.35278695821762,9.78700923919678,-5.36670780181885,0.10179097205400,-0.41393887996674
608,2047719427,-1.44668149948120,0.04963311180472,21.10203742980957,0.01475062966347,-0.34896486997604,9.78785419464111,-5.34142589569092,0.08088975399733,-0.32359743118286
609,2047727760,-1.44677579402924,0.04887853190303,21.10080337524414,0.03410471975803,-0.33356505632401,9.78209686279297,-5.41009807586670,0.00745374150574,-0.52902358770370
610,2047736093,-1.44716453552246,0.04874853044748,21.09992980957031,0.00476412707940,-0.36433020234108,9.79925346374512,-5.46949720382690,0.08206801116467,-0.49149870872498
611,2047744426,-1.45885109901428,0.04524835571647,21.09998130798340,0.03046831674874,-0.35557061433792,9.79877758026123,-5.47559309005737,0.15839843451977,-0.40123417973518
612,2047752759,-1.45836019515991,0.04521821066737,21.10031318664551,-0.01254927460104,-0.36055251955986,9.75792980194092,-5.36401796340942,0.08977789431810,-0.34647095203400
613,2047761092,-1.45836687088013,0.04614412412047,21.10063934326172,-0.00302935694344,-0.35456579923630,9.77432727813721,-5.39900732040405,0.20591284334660,-0.33563613891602
614,2047769425,-1.45745825767517,0.04546005651355,21.10073280334473,-0.01235167123377,-0.35302647948265,9.79855251312256,-5.31350708007812,0.01160324923694,-0.37595295906067
615,2047777758,-1.45786762237549,0.04663759097457,21.10060882568359,-0.01371205598116,-0.36417913436890,9.83928775787354,-5.44629096984863,0.23723907768726,-0.39752012491226
616,2047786091,-1.45803546905518,0.04688673093915,21.10061836242676,-0.01287793368101,-0.36416071653366,9.80637645721436,-5.44334554672241,0.12443394958973,-0.38440561294556
617,2047794424,-1.45864403247833,0.04712140187621,21.10120010375977,0.00066292326665,-0.34781226515770,9.78930950164795,-5.46947145462036,0.12184692174196,-0.32039567828178
618,2047802757,-1.45880651473999,0.04738053679466,21.10112953186035,-0.03144085407257,-0.34192267060280,9.76784515380859,-5.44229555130005,0.12627817690372,-0.39357557892799
619,2047811090,-1.45850026607513,0.04685989022255,21.10146522521973,-0.00137214013375,-0.35884070396423,9.78567600250244,-5.36258363723755,0.03153112158179,-0.34849444031715
620,2047819423,-1.45828008651733,0.04695567488670,21.10174179077148,0.00321317045018,-0.35303199291229,9.79292583465576,-5.39618921279907,0.10427554696798,-0.35330995917320
621,2047827756,-1.45809137821198,0.04650221765041,21.10153579711914,-0.02380912750959,-0.35873520374298,9.81239986419678,-5.37446832656860,0.04264769703150,-0.42812916636467
622,2047836089,-1.45711863040924,0.04624292254448,21.10219383239746,0.00286784418859,-0.35358834266663,9.78075599670410,-5.30566883087158,0.06214013323188,-0.30848503112793
623,2047844422,-1.45643055438995,0.04694325849414,21.10255241394043,0.02980423159897,-0.35256600379944,9.78635025024414,-5.31491518020630,0.17766033113003,-0.36491319537163
624,2047852755,-1.45656573772430,0.04715262725949,21.10272407531738,0.00348291918635,-0.35265865921974,9.79487991333008,-5.43960523605347,0.11982338130474,-0.36516934633255
625,2047861088,-1.45635104179382,0.04729295894504,21.10272026062012,-0.00745725212619,-0.33513638377190,9.81490421295166,-5.37147188186646,0.11178051680326,-0.38532772660255
626,2047869421,-1.45589709281921,0.04740649089217,21.10305404663086,0.01291644386947,-0.33267104625702,9.78816890716553,-5.36860322952271,0.10688821226358,-0.34493410587311
627,2047877754,-1.45643043518066,0.04667044803500,21.10360527038574,-0.00593287823722,-0.35363689064980,9.77530956268311,-5.45991754531860,0.00594250205904,-0.33184522390366
628,2047886087,-1.45649266242981,0.04707060009241,21.10400772094727,0.00075596256647,-0.34068858623505,9.80144214630127,-5.42982053756714,0.14146740734577,-0.33540558815002
629,2047894420,-1.45666110515594,0.04734517261386,21.10369300842285,-0.02240843884647,-0.34127187728882,9.78901767730713,-5.41719341278076,0.12842978537083,-0.42213544249535
630,2047902753,-1.45651733875275,0.04727630689740,21.10376930236816,-0.00782565493137,-0.33564347028732,9.81485557556152,-5.40615320205688,0.08662734180689,-0.37743857502937
631,2047911086,-1.45732796192169,0.04774880409241,21.10372543334961,-0.03670651465654,-0.33403247594833,9.76237010955811,-5.49440765380859,0.15144416689873,-0.38677492737770
632,2047919419,-1.45691978931427,0.04674722254276,21.10414505004883,-0.00874924659729,-0.34912738204002,9.78347015380859,-5.37303400039673,-0.02749688364565,-0.33827441930771
633,2047927752,-1.45694565773010,0.04681016132236,21.10374641418457,-0.00344401225448,-0.34978264570236,9.79628181457520,-5.39998102188110,0.10422433167696,-0.43399479985237
634,2047936085,-1.45716595649719,0.04658380523324,21.10317039489746,-0.00919750519097,-0.36132580041885,9.78781700134277,-5.44918537139893,0.06844123452902,-0.45407637953758
635,2047944418,-1.45729386806488,0.04653013870120,21.10261726379395,-0.02570801414549,-0.33567842841148,9.76829051971436,-5.41235208511353,0.09044386446476,-0.45620238780975
636,2047952751,-1.45635104179382,0.04591808840632,21.10282516479492,-0.01134337950498,-0.34722998738289,9.78155994415283,-5.30981779098511,0.02146472781897,-0.36253103613853
637,2047961084,-1.45650851726532,0.04554567113519,21.10310554504395,0.00458805216476,-0.33223319053650,9.77852725982666,-5.41616868972778,0.05012705922127,-0.37364766001701
638,2047969417,-1.45656442642212,0.04576846584678,21.10219383239746,0.00075134751387,-0.35309627652168,9.77804183959961,-5.42889881134033,0.12348623573780,-0.49490547180176
639,2047977750,-1.45536649227142,0.04532500728965,21.10201644897461,-0.00553424283862,-0.35824334621429,9.78113937377930,-5.25313377380371,0.04213541373610,-0.41824203729630
640,2047986083,-1.45493316650391,0.04548290371895,21.10170936584473,0.00732661411166,-0.33633041381836,9.78601455688477,-5.37080621719360,0.11490546166897,-0.42239156365395
641,2047994416,-1.45418202877045,0.04499894753098,21.10220718383789,-0.00413012551144,-0.33805623650551,9.80180549621582,-5.30597639083862,0.03655151277781,-0.35920119285583
642,2048002749,-1.45440053939819,0.04508084431291,21.10218811035156,-0.01611189916730,-0.35459172725677,9.83845329284668,-5.44869804382324,0.10414747148752,-0.38883689045906
643,2048011082,-1.45437538623810,0.04480911791325,21.10271072387695,-0.04061969369650,-0.33638095855713,9.79871845245361,-5.39419126510620,0.06116679310799,-0.32475006580353
644,2048019415,-1.45392978191376,0.04439379647374,21.10249900817871,0.00058726459974,-0.36480253934860,9.76956653594971,-5.37039613723755,0.04538842663169,-0.41288867592812
645,2048027748,-1.45481419563293,0.04479388147593,21.10281753540039,-0.02395441569388,-0.35463318228722,9.78679656982422,-5.50174570083618,0.14197970926762,-0.34708568453789
646,2048036081,-1.45490634441376,0.04596121609211,21.10287666320801,-0.02153673954308,-0.34630739688873,9.80121898651123,-5.43445730209351,0.23485693335533,-0.37554311752319
647,2048044414,-1.45595359802246,0.04698518663645,21.10338973999023,-0.00994744431227,-0.34643748402596,9.79093456268311,-5.52113580703735,0.21572311222553,-0.32513430714607
648,2048052747,-1.45556437969208,0.04706576094031,21.10405921936035,-0.00991256255656,-0.35308620333672,9.79597949981689,-5.37718439102173,0.10220080614090,-0.30620539188385
649,2048061080,-1.45608317852020,0.04780655726790,21.10382461547852,0.00341909076087,-0.34304490685463,9.79259395599365,-5.45978927612305,0.18572883307934,-0.41803711652756
650,2048069413,-1.45594155788422,0.04806472361088,21.10272979736328,0.00395227782428,-0.36247989535332,9.80080509185791,-5.40626859664917,0.12890362739563,-0.51686966419220
651,2048077746,-1.45493984222412,0.04800358787179,21.10302734375000,0.01104737352580,-0.33660867810249,9.83342075347900,-5.27552032470703,0.08670417964458,-0.35348924994469
652,2048086079,-1.45469033718109,0.04817993193865,21.10314369201660,0.01176063064486,-0.34743401408195,9.79998016357422,-5.39280843734741,0.11528968811035,-0.37231570482254
653,2048094412,-1.45471882820129,0.04730994999409,21.10299682617188,0.00889924634248,-0.33402374386787,9.76638793945312,-5.40090274810791,-0.00872164685279,-0.40978938341141
654,2048102745,-1.45501470565796,0.04788244888186,21.10219383239746,-0.00194506812841,-0.33892711997032,9.81124401092529,-5.45791959762573,0.16536551713943,-0.48122748732567
655,2048111078,-1.45531773567200,0.04785543307662,21.10171318054199,0.00086338992696,-0.34825709462166,9.79988861083984,-5.43266439437866,0.09356880187988,-0.46127393841743
656,2048119411,-1.45449268817902,0.04727733507752,21.10218429565430,0.00300936657004,-0.34685426950455,9.79350566864014,-5.32528972625732,0.02458966895938,-0.33148667216301
657,2048127744,-1.45446753501892,0.04734146222472,21.10241317749023,-0.01591140590608,-0.35711070895195,9.77403354644775,-5.39370489120483,0.10171413421631,-0.36048191785812
658,2048136077,-1.45413517951965,0.04791839793324,21.10305213928223,-0.00803729798645,-0.34626898169518,9.79155445098877,-5.38304901123047,0.16272723674774,-0.30556499958038
659,2048144410,-1.45407009124756,0.04817895591259,21.10277938842773,-0.01615672931075,-0.34096997976303,9.79043292999268,-5.38890218734741,0.12685450911522,-0.41735833883286
660,2048152743,-1.45350289344788,0.04795441403985,21.10247039794922,-0.02569434978068,-0.34581154584885,9.79934978485107,-5.35487413406372,0.06818509846926,-0.42318561673164
661,2048161076,-1.45421075820923,0.04741305485368,21.10319137573242,-0.01933845877647,-0.33403730392456,9.80549526214600,-5.48158693313599,0.02750968746841,-0.30364397168159
662,2048169409,-1.45433485507965,0.04778870195150,21.10314369201660,-0.01545642875135,-0.35377109050751,9.80785369873047,-5.43753051757812,0.13975125551224,-0.39060428738594
663,2048177742,-1.45403552055359,0.04835687577724,21.10446548461914,-0.03996783867478,-0.35523641109467,9.76577758789062,-5.36017608642578,0.15932054817677,-0.22388122975826
664,2048186075,-1.45354092121124,0.04843221977353,21.10480308532715,-0.00917642377317,-0.33679306507111,9.80122756958008,-5.36340332031250,0.10345589369535,-0.34521588683128
665,2048194408,-1.45354211330414,0.04883935302496,21.10477447509766,-0.00172675517388,-0.33167940378189,9.78445625305176,-5.39798259735107,0.14279936254025,-0.38543027639389
666,2048202741,-1.45355868339539,0.04843626543880,21.10508918762207,0.00374601548538,-0.33044606447220,9.78937911987305,-5.42392921447754,0.04641298949718,-0.35000568628311
667,2048211074,-1.45369100570679,0.04781092703342,21.10575866699219,-0.01021195203066,-0.35792970657349,9.78307437896729,-5.41338920593262,0.01791715808213,-0.29694581031799
668,2048219407,-1.45334136486053,0.04758244007826,21.10567665100098,0.00507736904547,-0.34346732497215,9.80702686309814,-5.38005208969116,0.06721174716949,-0.39631623029709
669,2048227740,-1.45367598533630,0.04701390862465,21.10633087158203,-0.00254167779349,-0.34984216094017,9.77860736846924,-5.43719768524170,0.02530686371028,-0.31283947825432
670,2048236073,-1.45407879352570,0.04735969752073,21.10706901550293,0.00871546380222,-0.33437711000443,9.80442905426025,-5.47218704223633,0.13355261087418,-0.29772707819939
671,2048244406,-1.45412051677704,0.04765247181058,21.10742187500000,0.00719429785386,-0.33439746499062,9.79679393768311,-5.40169668197632,0.12837855517864,-0.33345893025398
672,2048252739,-1.45411419868469,0.04808784648776,21.10766792297363,-0.00519137689844,-0.33605235815048,9.80700206756592,-5.42164945602417,0.14635974168777,-0.35382220149040
673,2048261072,-1.45353078842163,0.04822662100196,21.10677719116211,-0.01199933793396,-0.33690258860588,9.78479671478271,-5.32674932479858,0.11480300873518,-0.49736446142197
674,2048269405,-1.45262873172760,0.04801714047790,21.10722541809082,0.00107605650555,-0.33931642770767,9.77897357940674,-5.31471014022827,0.06780087947845,-0.33263924717903
675,2048277738,-1.45232188701630,0.04827120900154,21.10782814025879,-0.01741033233702,-0.33259370923042,9.79138755798340,-5.36176347732544,0.12430588155985,-0.31693771481514
676,2048286071,-1.45252060890198,0.04926370829344,21.10766029357910,-0.01426112651825,-0.34514215588570,9.79021167755127,-5.44629144668579,0.21403256058693,-0.40274548530579
677,2048294404,-1.45251226425171,0.04942996799946,21.10766220092773,-0.01441787928343,-0.34164822101593,9.78739356994629,-5.39434480667114,0.11444439738989,-0.38499471545219
678,2048302737,-1.45277607440948,0.04875595122576,21.10737037658691,-0.01267551444471,-0.34498456120491,9.81425189971924,-5.45469284057617,0.01580398343503,-0.42300632596016
679,2048311070,-1.45274114608765,0.04902631789446,21.10707664489746,-0.00436172075570,-0.35386937856674,9.76687431335449,-5.39242410659790,0.12776380777359,-0.41557815670967
680,2048319403,-1.45171964168549,0.04853524640203,21.10588455200195,0.00764597347006,-0.34925684332848,9.78770351409912,-5.30044317245483,0.03967645019293,-0.53056043386459
681,2048327736,-1.45202565193176,0.04865686967969,21.10585212707520,0.00573561899364,-0.33017158508301,9.77602577209473,-5.43432903289795,0.10996190458536,-0.39006638526917
682,2048336069,-1.45110285282135,0.04860601946712,21.10594367980957,-0.01137609407306,-0.34260630607605,9.80008792877197,-5.31079101562500,0.08803612738848,-0.37538942694664
683,2048344402,-1.45170819759369,0.04788500443101,21.10666275024414,0.00058858783450,-0.33051201701164,9.78933715820312,-5.47077798843384,0.00696707237512,-0.30054461956024
684,2048352735,-1.45094048976898,0.04733424633741,21.10676002502441,-0.00745691917837,-0.33796721696854,9.80436706542969,-5.33041143417358,0.02822688408196,-0.37490272521973
685,2048361068,-1.45140171051025,0.04769707098603,21.10666275024414,0.01887840591371,-0.34675085544586,9.81252861022949,-5.45353937149048,0.13862423598766,-0.39716148376465
686,2048369401,-1.45097672939301,0.04812067747116,21.10605430603027,0.02516667731106,-0.34133249521255,9.76969051361084,-5.37083148956299,0.14671833813190,-0.45950654149055
687,2048377734,-1.45030725002289,0.04867596179247,21.10620307922363,-0.01090574916452,-0.34318271279335,9.80920600891113,-5.31745100021362,0.16139531135559,-0.36896023154259
688,2048386067,-1.45033061504364,0.04849262535572,21.10552978515625,-0.01576870493591,-0.35313832759857,9.79468631744385,-5.42564582824707,0.07520338892937,-0.46701157093048
689,2048394400,-1.45079529285431,0.04821360111237,21.10528564453125,-0.00493868812919,-0.34437310695648,9.79973888397217,-5.45190000534058,0.06193522363901,-0.41555252671242
