sep=,
DeviceTag:,Xsens DOT
FirmwareVersion:,3.0.0
AppVersion:,2023.6.0
StartTime: ,2025-03-06_12:40:59_000 PST
© Movella Technologies B. V. 2005-2025

PacketCounter,SampleTimeFine,Euler_X,Euler_Y,Euler_Z,Acc_X,Acc_Y,Acc_Z,Gyr_X,Gyr_Y,Gyr_Z
0,1882959351,-1.42952358722687,-0.01496884040534,21.07141113281250,0.00000000000000,0.00000000000000,0.00000000000000,0.00000000000000,0.00000000000000,0.00000000000000
1,1882967684,-1.42948973178864,-0.01548158284277,21.07128906250000,0.01014438644052,-0.34911888837814,9.79065895080566,-5.37975740432739,0.03256849944592,-0.40245082974434
2,1882976017,-1.42924165725708,-0.01585276238620,21.07127380371094,0.01197748072445,-0.32838600873947,9.78476619720459,-5.38370275497437,0.04937144368887,-0.39087325334549
3,1882984350,-1.42881608009338,-0.01507238671184,21.07139587402344,-0.01536431815475,-0.33318042755127,9.76027870178223,-5.33252525329590,0.18686865270138,-0.37911632657051
4,1882992683,-1.42899727821350,-0.01488562580198,21.07209396362305,0.00131133710966,-0.34274587035179,9.79537582397461,-5.43557071685791,0.11274105310440,-0.30375918745995
5,1883001016,-1.42881107330322,-0.01455404143780,21.07198333740234,0.01319974474609,-0.35734114050865,9.79264354705811,-5.36159753799438,0.13443630933762,-0.40365475416183
6,1883009349,-1.42881453037262,-0.01442287862301,21.07257080078125,-0.00097307376564,-0.35663276910782,9.80552768707275,-5.41415834426880,0.10615820437670,-0.31669443845749
7,1883017682,-1.42882919311523,-0.01435135025531,21.07206726074219,0.01116142887622,-0.34149715304375,9.80618381500244,-5.38476562500000,0.10473661124706,-0.44979879260063
8,1883026015,-1.42854166030884,-0.01408475916833,21.07242584228516,0.00143880862743,-0.36020007729530,9.82071018218994,-5.37918138504028,0.12471570819616,-0.34431937336922
9,1883034348,-1.42862534523010,-0.01338463649154,21.07261657714844,0.00478759547696,-0.35045343637466,9.80739021301270,-5.39467811584473,0.17591856420040,-0.35702401399612
10,1883042681,-1.42810738086700,-0.01372441276908,21.07290649414062,0.00212582969107,-0.35789656639099,9.76716423034668,-5.35118484497070,0.05194566771388,-0.35338678956032
11,1883051014,-1.42820906639099,-0.01381667330861,21.07316398620605,0.00410058302805,-0.33563628792763,9.81390380859375,-5.39634275436401,0.08240099996328,-0.36619392037392
12,1883059347,-1.42748892307281,-0.01289553195238,21.07371139526367,0.00599610107020,-0.36000308394432,9.81252002716064,-5.32677459716797,0.20155841112137,-0.31962722539902
13,1883067680,-1.42679429054260,-0.01376555394381,21.07346534729004,0.00011803786765,-0.34732851386070,9.81781768798828,-5.30139112472534,-0.01015604473650,-0.42815473675728
14,1883076013,-1.42683792114258,-0.01346403826028,21.07264518737793,-0.00344723230228,-0.34114393591881,9.79441165924072,-5.41810226440430,0.13215665519238,-0.48505678772926
15,1883084346,-1.42633545398712,-0.01391285657883,21.07318878173828,0.00627601193264,-0.35510560870171,9.81930255889893,-5.32408571243286,0.03772976994514,-0.32321321964264
16,1883092679,-1.42596542835236,-0.01368135027587,21.07329177856445,-0.00698440568522,-0.34216955304146,9.81388664245605,-5.36916637420654,0.12069427222013,-0.37497964501381
17,1883101012,-1.42677783966064,-0.01357913762331,21.07276916503906,-0.00107768620364,-0.34959241747856,9.82221984863281,-5.48186874389648,0.10929593443871,-0.45407637953758
18,1883109345,-1.42644131183624,-0.01333733182400,21.07290649414062,-0.00383005314507,-0.33524623513222,9.78285980224609,-5.37259817123413,0.12092480808496,-0.36893466114998
19,1883117678,-1.42623531818390,-0.01326838973910,21.07338523864746,-0.00082680943888,-0.36347889900208,9.78773403167725,-5.35858774185181,0.10086885839701,-0.33963197469711
20,1883126011,-1.42598009109497,-0.01308536250144,21.07392692565918,0.01367124821991,-0.35693347454071,9.79019069671631,-5.38278055191040,0.11233124136925,-0.32222709059715
21,1883134344,-1.42551982402802,-0.01363919489086,21.07401275634766,-0.00158366921823,-0.35191905498505,9.77233791351318,-5.32929801940918,0.02726635150611,-0.36300492286682
22,1883142677,-1.42497646808624,-0.01327660772949,21.07410430908203,-0.01275343168527,-0.34258046746254,9.78662681579590,-5.34879016876221,0.13605001568794,-0.37604260444641
23,1883151010,-1.42463672161102,-0.01346969418228,21.07409667968750,0.00685568200424,-0.34336099028587,9.79849910736084,-5.34306526184082,0.07046476006508,-0.39270466566086
24,1883159343,-1.42434144020081,-0.01325635798275,21.07392692565918,0.01511935424060,-0.34113976359367,9.82104778289795,-5.37758016586304,0.11998988687992,-0.40775296092033
25,1883167676,-1.42438495159149,-0.01349760219455,21.07366752624512,0.00652499636635,-0.35579264163971,9.77694511413574,-5.38967084884644,0.06509858369827,-0.42122611403465
26,1883176009,-1.42431104183197,-0.01376571319997,21.07366180419922,-0.02083954960108,-0.36511746048927,9.80561065673828,-5.40466737747192,0.06111555919051,-0.38988706469536
27,1883184342,-1.42376196384430,-0.01387190166861,21.07397270202637,-0.00858087558299,-0.35718137025833,9.82064533233643,-5.31961584091187,0.07967307418585,-0.34466516971588
28,1883192675,-1.42336225509644,-0.01370341517031,21.07362365722656,0.00889398623258,-0.35470846295357,9.80361747741699,-5.36538839340210,0.11432915180922,-0.42924338579178
29,1883201008,-1.42267715930939,-0.01365771051496,21.07338333129883,-0.01375846471637,-0.34188762307167,9.80417919158936,-5.30168533325195,0.09993392974138,-0.41377234458923
30,1883209341,-1.42272722721100,-0.01367782708257,21.07368469238281,-0.00347910355777,-0.35335761308670,9.80444908142090,-5.41929388046265,0.09018772840500,-0.35085102915764
31,1883217674,-1.42246854305267,-0.01329093519598,21.07420158386230,-0.01230433583260,-0.37015786767006,9.79240226745605,-5.35395145416260,0.13744598627090,-0.32480132579803
32,1883226007,-1.42154061794281,-0.01247720886022,21.07375717163086,-0.00267945230007,-0.34623998403549,9.79201030731201,-5.30103302001953,0.19308011233807,-0.43786251544952
33,1883234340,-1.42114472389221,-0.01268435642123,21.07458496093750,0.00487477798015,-0.36502787470818,9.78324890136719,-5.33689212799072,0.06649455428123,-0.28648239374161
34,1883242673,-1.41999328136444,-0.01245362404734,21.07452201843262,-0.00646441662684,-0.33418777585030,9.79884529113770,-5.27493190765381,0.12064304947853,-0.39439520239830
35,1883251006,-1.41942512989044,-0.01272421609610,21.07460784912109,-0.01462567411363,-0.33023855090141,9.80887603759766,-5.31675910949707,0.06050082296133,-0.37825819849968
36,1883259339,-1.41918575763702,-0.01284836046398,21.07450294494629,0.02255226299167,-0.36414816975594,9.80356407165527,-5.38413763046265,0.07803376764059,-0.40035051107407
37,1883267672,-1.41945862770081,-0.01284451782703,21.07481384277344,-0.00240102363750,-0.36297976970673,9.78643417358398,-5.41756439208984,0.09358160942793,-0.34907081723213
38,1883276005,-1.41970479488373,-0.01322012487799,21.07523345947266,-0.02158905006945,-0.36123514175415,9.78903198242188,-5.44261503219604,0.04686124250293,-0.33823597431183
39,1883284338,-1.41885185241699,-0.01331062521785,21.07525444030762,0.02189568430185,-0.33706793189049,9.78184890747070,-5.28151416778564,0.08196554332972,-0.38115260004997
40,1883292671,-1.41815340518951,-0.01369522418827,21.07540893554688,-0.02281986922026,-0.36444902420044,9.78688240051270,-5.32922124862671,0.04752721637487,-0.36994642019272
41,1883301004,-1.41798830032349,-0.01392913144082,21.07582283020020,-0.00495011452585,-0.34896478056908,9.79854011535645,-5.36526060104370,0.06463751941919,-0.35470595955849
42,1883309337,-1.41749238967896,-0.01423617079854,21.07628059387207,0.00109330262057,-0.36643150448799,9.80797481536865,-5.35320854187012,0.05496815219522,-0.33351016044617
43,1883317670,-1.41768133640289,-0.01419398840517,21.07623672485352,-0.01184574048966,-0.36415478587151,9.78362274169922,-5.40697288513184,0.09948568046093,-0.39508673548698
44,1883326003,-1.41687166690826,-0.01458341628313,21.07654571533203,-0.01904199644923,-0.34888604283333,9.80007743835449,-5.31608057022095,0.04432543367147,-0.35145291686058
45,1883334336,-1.41735231876373,-0.01570543274283,21.07687377929688,0.00223948899657,-0.34336718916893,9.78918838500977,-5.44174432754517,-0.04210980609059,-0.34146338701248
46,1883342669,-1.41752350330353,-0.01574508100748,21.07623863220215,-0.00385394413024,-0.37297126650810,9.82388305664062,-5.43368864059448,0.08947052806616,-0.46370729804039
47,1883351002,-1.41706550121307,-0.01631950959563,21.07679176330566,-0.00214678444900,-0.35884213447571,9.79907226562500,-5.32950258255005,0.02339860424399,-0.32694011926651
48,1883359335,-1.41699850559235,-0.01660821773112,21.07679367065430,-0.00796312466264,-0.36300283670425,9.77677059173584,-5.40556430816650,0.05919450148940,-0.38855513930321
49,1883367668,-1.41730642318726,-0.01664095558226,21.07693862915039,0.00146440288518,-0.33860152959824,9.78791046142578,-5.42081785202026,0.08843314647675,-0.34620201587677
50,1883376001,-1.41620981693268,-0.01703990809619,21.07660865783691,0.00613561784849,-0.34748202562332,9.80923366546631,-5.28111791610718,0.04714300110936,-0.42855173349380
51,1883384334,-1.41563689708710,-0.01677216775715,21.07633781433105,-0.00293980003335,-0.35709634423256,9.81875801086426,-5.31512069702148,0.12625256180763,-0.41775536537170
52,1883392667,-1.41532516479492,-0.01632287167013,21.07636642456055,0.01521616149694,-0.36654713749886,9.79585266113281,-5.37585210800171,0.14584745466709,-0.38253581523895
53,1883401000,-1.41515088081360,-0.01632855273783,21.07608413696289,0.00064637069590,-0.36445352435112,9.80499362945557,-5.36459398269653,0.09424758702517,-0.41958683729172
54,1883409333,-1.41452229022980,-0.01695428974926,21.07616043090820,-0.01797782070935,-0.35149216651917,9.79730224609375,-5.33809614181519,0.01746890693903,-0.38023048639297
55,1883417666,-1.41458845138550,-0.01685487851501,21.07572174072266,0.00401447527111,-0.35972189903259,9.79554843902588,-5.39237260818481,0.10745170712471,-0.43942499160767
56,1883425999,-1.41473996639252,-0.01757914759219,21.07537078857422,-0.01391395647079,-0.35097575187683,9.78657531738281,-5.43148517608643,0.00722321355715,-0.43158698081970
57,1883434332,-1.41518878936768,-0.01666867733002,21.07514953613281,0.00166792504024,-0.35261499881744,9.79793357849121,-5.43714714050293,0.20476020872593,-0.43852853775024
58,1883442665,-1.41431915760040,-0.01630219444633,21.07468986511230,-0.02002087794244,-0.35859259963036,9.78041839599609,-5.30898571014404,0.13771493732929,-0.44184559583664
59,1883450998,-1.41503989696503,-0.01735740527511,21.07407760620117,-0.00441032880917,-0.35609510540962,9.78952121734619,-5.46989393234253,-0.03219709172845,-0.41971483826637
60,1883459331,-1.41531968116760,-0.01667139865458,21.07451057434082,0.00758049590513,-0.36644461750984,9.79359436035156,-5.44689226150513,0.17406152188778,-0.33380469679832
61,1883467664,-1.41439950466156,-0.01734371855855,21.07469940185547,0.00497190700844,-0.35577014088631,9.79103279113770,-5.27395772933960,0.01229483261704,-0.36606582999229
62,1883475997,-1.41426134109497,-0.01738771423697,21.07560920715332,-0.01065941713750,-0.34386205673218,9.77669143676758,-5.39708614349365,0.08516734093428,-0.27856761217117
63,1883484330,-1.41390347480774,-0.01736292801797,21.07584571838379,0.00056301901350,-0.33348479866982,9.81044197082520,-5.34145164489746,0.09646321088076,-0.35451379418373
64,1883492663,-1.41419756412506,-0.01804768294096,21.07637977600098,0.01438689231873,-0.36408513784409,9.80743503570557,-5.44882631301880,0.00829901173711,-0.32592833042145
65,1883500996,-1.41472303867340,-0.01761351153255,21.07656288146973,-0.01398719102144,-0.34937348961830,9.80169010162354,-5.44750785827637,0.14496375620365,-0.35247749090195
66,1883509329,-1.41450870037079,-0.01788930781186,21.07636260986328,-0.00630532857031,-0.33705744147301,9.78229522705078,-5.38703203201294,0.06112836673856,-0.41149270534515
67,1883517662,-1.41488456726074,-0.01873657107353,21.07746696472168,0.00658002635464,-0.33629095554352,9.76493644714355,-5.43003892898560,-0.01139833498746,-0.25855007767677
68,1883525995,-1.41449785232544,-0.01950008608401,21.07723045349121,0.01108846906573,-0.34691351652145,9.80314064025879,-5.36688709259033,0.00215159589425,-0.41803711652756
69,1883534328,-1.41450142860413,-0.01930785365403,21.07684135437012,0.00252507277764,-0.33969935774803,9.79436111450195,-5.38441944122314,0.11878602206707,-0.43221458792686
70,1883542661,-1.41484725475311,-0.01876930892467,21.07711982727051,0.00101857935078,-0.34058764576912,9.81192970275879,-5.45519208908081,0.15687438845634,-0.35298979282379
71,1883550994,-1.41461586952209,-0.01870548911393,21.07721519470215,-0.00588315539062,-0.35214126110077,9.79018497467041,-5.35655164718628,0.10052306950092,-0.37045869231224
72,1883559327,-1.41467750072479,-0.01906588859856,21.07739639282227,0.00934528745711,-0.35189020633698,9.78830623626709,-5.42081737518311,0.04985810816288,-0.36761549115181
73,1883567660,-1.41530096530914,-0.01910500228405,21.07699775695801,0.00823426712304,-0.36343759298325,9.76760864257812,-5.45786857604980,0.08934245258570,-0.43904078006744
74,1883575993,-1.41624259948730,-0.01914371550083,21.07707405090332,-0.00794531498104,-0.36281046271324,9.78231716156006,-5.52712965011597,0.08842033147812,-0.37994873523712
75,1883584326,-1.41651678085327,-0.01876429282129,21.07662200927734,-0.00061365420697,-0.37723082304001,9.80077075958252,-5.41601467132568,0.14118567109108,-0.44564929604530
76,1883592659,-1.41606473922729,-0.01852910406888,21.07667922973633,0.01396043878049,-0.35557532310486,9.78387546539307,-5.35945892333984,0.11956723779440,-0.38053789734840
77,1883600992,-1.41636455059052,-0.01901057921350,21.07670021057129,0.02034135349095,-0.34226953983307,9.77182865142822,-5.42034339904785,0.03626975417137,-0.38094770908356
78,1883609325,-1.41638171672821,-0.01929872855544,21.07621955871582,-0.00481501221657,-0.37734565138817,9.79349708557129,-5.41440105438232,0.06091065332294,-0.44669947028160
79,1883617658,-1.41656327247620,-0.01923752389848,21.07645034790039,0.01795236021280,-0.36858028173447,9.77175426483154,-5.40648651123047,0.09958816319704,-0.36519497632980
80,1883625991,-1.41656017303467,-0.01997094228864,21.07574653625488,-0.00378486514091,-0.33835250139236,9.79054260253906,-5.41313266754150,0.00718479277566,-0.47411945462227
81,1883634324,-1.41577732563019,-0.02008913643658,21.07628631591797,0.00040352839278,-0.36928290128708,9.79478359222412,-5.28895473480225,0.07813622057438,-0.32571056485176
82,1883642657,-1.41593658924103,-0.02139193937182,21.07667922973633,0.00296296016313,-0.35389292240143,9.82301807403564,-5.43271541595459,-0.06384348869324,-0.34462675452232
83,1883650990,-1.41551923751831,-0.02205814979970,21.07625579833984,0.00910691637546,-0.36790227890015,9.82994842529297,-5.33399772644043,0.01431835629046,-0.43563407659531
84,1883659323,-1.41560006141663,-0.02263959683478,21.07635498046875,-0.01923373341560,-0.36111360788345,9.78222942352295,-5.42312288284302,0.02403896115720,-0.37763071060181
85,1883667656,-1.41612458229065,-0.02277089282870,21.07634735107422,-0.02454738691449,-0.34530565142632,9.77355289459229,-5.44600868225098,0.07640726119280,-0.40474331378937
86,1883675989,-1.41580355167389,-0.02248308807611,21.07676696777344,0.01179438922554,-0.34922161698341,9.79649639129639,-5.37512159347534,0.12662398815155,-0.33644294738770
87,1883684322,-1.41549432277679,-0.02208114787936,21.07648468017578,-0.00548887019977,-0.35636374354362,9.77436828613281,-5.34587049484253,0.14227426052094,-0.41810119152069
88,1883692655,-1.41547167301178,-0.02236927114427,21.07674407958984,-0.02101117186248,-0.35600689053535,9.79492759704590,-5.41062355041504,0.05964275449514,-0.35747227072716
89,1883700988,-1.41570675373077,-0.02304668724537,21.07718658447266,-0.01929723657668,-0.33297228813171,9.80387687683105,-5.41198015213013,0.00961814448237,-0.33539277315140
90,1883709321,-1.41607749462128,-0.02243730612099,21.07836151123047,0.01084717083722,-0.36006420850754,9.79567813873291,-5.45822715759277,0.16354689002037,-0.24570453166962
91,1883717654,-1.41612768173218,-0.02239322848618,21.07827758789062,-0.00628852937371,-0.33587491512299,9.81979751586914,-5.39063119888306,0.09843551367521,-0.40151599049568
92,1883725987,-1.41628611087799,-0.02219398133457,21.07848358154297,0.00997168757021,-0.35180506110191,9.79329204559326,-5.43186998367310,0.11764618009329,-0.36214685440063
93,1883734320,-1.41589522361755,-0.02174433507025,21.07859992980957,0.00798922032118,-0.34126484394073,9.80629062652588,-5.33703327178955,0.14627009630203,-0.37506929039955
94,1883742653,-1.41604614257812,-0.02175586111844,21.07892036437988,0.00460348371416,-0.36325979232788,9.79525279998779,-5.43147277832031,0.09117386490107,-0.34807187318802
95,1883750986,-1.43180203437805,0.01302975974977,21.05075263977051,0.00057386828121,-0.34603342413902,9.80183315277100,-5.37946319580078,0.11195982247591,-0.30991944670677
96,1883759319,-1.43179094791412,0.01282936427742,21.05153083801270,-0.00095384445740,-0.34532079100609,9.80445861816406,-5.41173744201660,0.06628963351250,-0.29424351453781
97,1883767652,-1.43203234672546,0.01222190447152,21.05128860473633,-0.00408806419000,-0.34789118170738,9.79020214080811,-5.41183996200562,0.01887769252062,-0.37654203176498
98,1883775985,-1.43166625499725,0.01197937875986,21.05155944824219,0.00116898084525,-0.35368975996971,9.77770996093750,-5.36857748031616,0.06003976985812,-0.35371980071068
99,1883784318,-1.43249881267548,0.01122893858701,21.05123329162598,0.00788974855095,-0.35614493489265,9.82125949859619,-5.48284244537354,0.00274072284810,-0.38020488619804
100,1883792651,-1.43247866630554,0.01173130329698,21.05128479003906,0.00800301972777,-0.35809099674225,9.79262351989746,-5.40863752365112,0.15153381228447,-0.37715679407120
101,1883800984,-1.43330860137939,0.01115129794925,21.05175971984863,-0.00630711717531,-0.34860429167747,9.79607582092285,-5.48377752304077,0.02129823714495,-0.36933165788651
102,1883809317,-1.43283939361572,0.01183186285198,21.05245590209961,-0.01963758468628,-0.36918389797211,9.80723094940186,-5.35488653182983,0.16927166283131,-0.29904618859291
103,1883817650,-1.43312263488770,0.01198324747384,21.05273056030273,-0.02107433602214,-0.35660886764526,9.79238033294678,-5.41696310043335,0.11042297631502,-0.35356613993645
104,1883825983,-1.43342602252960,0.01188250165433,21.05286216735840,-0.00003664208634,-0.34284731745720,9.77786636352539,-5.44874954223633,0.07809780538082,-0.37129113078117
105,1883834316,-1.43369078636169,0.01142447907478,21.05352973937988,-0.00159633625299,-0.36202272772789,9.80226325988770,-5.41477251052856,0.03571905195713,-0.35124799609184
106,1883842649,-1.43462836742401,0.01091605704278,21.05287933349609,0.00974584557116,-0.33681330084801,9.80768394470215,-5.52372264862061,0.03204340487719,-0.46462938189507
107,1883850982,-1.43409693241119,0.01008485443890,21.05340194702148,0.00149484048598,-0.35725250840187,9.79542541503906,-5.31991004943848,-0.00828620512038,-0.32533922791481
108,1883859315,-1.43431067466736,0.00917281117290,21.05298233032227,0.00119558139704,-0.33136230707169,9.80057334899902,-5.43794059753418,-0.01853189989924,-0.43883585929871
109,1883867648,-1.43453180789948,0.00912131834775,21.05357742309570,-0.00494934106246,-0.36224448680878,9.79679870605469,-5.41094350814819,0.08557716012001,-0.34926289319992
110,1883875981,-1.43481338024139,0.00896136835217,21.05397987365723,0.00933134276420,-0.34558594226837,9.76233005523682,-5.44565010070801,0.06972193717957,-0.33809509873390
111,1883884314,-1.43490922451019,0.00940722599626,21.05330657958984,-0.01643384993076,-0.35578209161758,9.79476261138916,-5.39485740661621,0.14794780313969,-0.46652492880821
112,1883892647,-1.43505632877350,0.00937064643949,21.05356407165527,-0.00009911008237,-0.34226682782173,9.79260158538818,-5.42884731292725,0.08462943881750,-0.35307943820953
113,1883900980,-1.43529272079468,0.00948446523398,21.05292320251465,0.00148211664055,-0.35446119308472,9.78542995452881,-5.41087961196899,0.10882208496332,-0.45229619741440
114,1883909313,-1.43585145473480,0.01001057587564,21.05294799804688,-0.00678110262379,-0.34962370991707,9.80908012390137,-5.47964048385620,0.15345488488674,-0.38128072023392
115,1883917646,-1.43635010719299,0.01012682262808,21.05292701721191,-0.01626323908567,-0.36538672447205,9.79072570800781,-5.44211530685425,0.10624784231186,-0.38304805755615
116,1883925979,-1.43669521808624,0.01038180850446,21.05293083190918,-0.00668902508914,-0.34365043044090,9.79813098907471,-5.45382118225098,0.12166763097048,-0.38555824756622
117,1883934312,-1.43611717224121,0.00949785858393,21.05327987670898,-0.00907193217427,-0.35259932279587,9.79747295379639,-5.31380128860474,-0.01485625654459,-0.34743148088455
118,1883942645,-1.43588042259216,0.00960393995047,21.05365180969238,-0.00257207127288,-0.34868356585503,9.78664684295654,-5.38349771499634,0.10116341710091,-0.34028509259224
119,1883950978,-1.43565428256989,0.00974385160953,21.05360794067383,0.00255832518451,-0.34853589534760,9.78507328033447,-5.35596227645874,0.11110173910856,-0.42340329289436
120,1883959311,-1.43551743030548,0.01026788260788,21.05381965637207,0.00548383081332,-0.36150816082954,9.79868698120117,-5.39609956741333,0.15226382017136,-0.35975193977356
121,1883967644,-1.43578970432281,0.00927889253944,21.05383491516113,-0.01909914985299,-0.35990086197853,9.79901695251465,-5.41569471359253,-0.02630582265556,-0.38690304756165
122,1883975977,-1.43594264984131,0.01028650626540,21.05323410034180,-0.01732780225575,-0.35825759172440,9.78744602203369,-5.43035840988159,0.21285428106785,-0.45474231243134
123,1883984310,-1.43506407737732,0.00991354044527,21.05304336547852,0.00945315230638,-0.35471469163895,9.78413867950439,-5.27797937393188,0.04902563989162,-0.41450232267380
124,1883992643,-1.43452858924866,0.01000473368913,21.05340194702148,0.00526820821688,-0.35462737083435,9.77902603149414,-5.34802150726318,0.09929357469082,-0.34156578779221
125,1884000976,-1.43478441238403,0.01053169928491,21.05431365966797,0.00056704570306,-0.34330597519875,9.79755783081055,-5.41317224502563,0.15348051488400,-0.27836272120476
126,1884009309,-1.43538367748260,0.01072961464524,21.05508422851562,0.00079744681716,-0.32769501209259,9.80004596710205,-5.48417472839355,0.11201106011868,-0.29352635145187
127,1884017642,-1.43591022491455,0.01152952015400,21.05524635314941,-0.00450327713042,-0.33096700906754,9.77439403533936,-5.44525337219238,0.18776515126228,-0.33651980757713
128,1884025975,-1.43679261207581,0.01168904267251,21.05471420288086,0.01020929496735,-0.35102236270905,9.80538272857666,-5.51753711700439,0.11079436540604,-0.44894066452980
129,1884034308,-1.43710529804230,0.01124179828912,21.05521011352539,0.00514692161232,-0.33527278900146,9.79572200775146,-5.42127895355225,0.03689730539918,-0.33283138275146
130,1884042641,-1.43678665161133,0.01064220909029,21.05614471435547,-0.00782939884812,-0.34674412012100,9.82304000854492,-5.37308549880981,0.01559907011688,-0.27385458350182
131,1884050974,-1.43696343898773,0.01088164001703,21.05641174316406,0.00752989249304,-0.33582383394241,9.79131603240967,-5.40402746200562,0.11931111663580,-0.34365341067314
132,1884059307,-1.43682491779327,0.01081344485283,21.05665397644043,0.00595287000760,-0.33152750134468,9.80147361755371,-5.39515161514282,0.08241380006075,-0.35647329688072
133,1884067640,-1.43629777431488,0.01015587896109,21.05668830871582,-0.01129368413240,-0.35636460781097,9.80430221557617,-5.31880903244019,0.01293518859893,-0.38307371735573
134,1884075973,-1.43643712997437,0.00948072969913,21.05637359619141,0.01601136662066,-0.35590460896492,9.78266811370850,-5.42818117141724,0.01050183642656,-0.42497855424881
135,1884084306,-1.43626034259796,0.00966853275895,21.05631256103516,-0.00082108395873,-0.35781872272491,9.79770088195801,-5.36167383193970,0.11455967277288,-0.37778431177139
136,1884092639,-1.43513429164886,0.01026625558734,21.05599403381348,0.00563748832792,-0.33612716197968,9.78079795837402,-5.27681398391724,0.16312426328659,-0.42194327712059
137,1884100972,-1.43487739562988,0.00959630962461,21.05625343322754,-0.00743769016117,-0.34865939617157,9.78577327728271,-5.35277271270752,0.01157763414085,-0.37774592638016
138,1884109305,-1.43445146083832,0.00912491977215,21.05581092834473,0.00595906935632,-0.35775673389435,9.79548358917236,-5.35991907119751,0.03542448580265,-0.43914324045181
139,1884117638,-1.43455517292023,0.00937547534704,21.05523490905762,0.00642061885446,-0.35265228152275,9.81723117828369,-5.39584302902222,0.12406254559755,-0.44579011201859
140,1884125971,-1.43511736392975,0.01025230158120,21.05521965026855,-0.00498457858339,-0.34935903549194,9.79401588439941,-5.47884607315063,0.19520607590675,-0.38430318236351
141,1884134304,-1.43463873863220,0.01029656361789,21.05568122863770,-0.00897905044258,-0.34789693355560,9.79085159301758,-5.32527637481689,0.09596373885870,-0.32878437638283
142,1884142637,-1.43483483791351,0.01000257302076,21.05588912963867,0.00210326630622,-0.36272287368774,9.82083320617676,-5.43518733978271,0.05498095974326,-0.36121195554733
143,1884150970,-1.43459272384644,0.01003933884203,21.05531311035156,-0.01097314525396,-0.35085415840149,9.79331207275391,-5.35511732101440,0.09965217858553,-0.45634320378304
144,1884159303,-1.43417215347290,0.01019000262022,21.05469322204590,0.01762500964105,-0.35858595371246,9.76851749420166,-5.36084222793579,0.10929594933987,-0.45817464590073
145,1884167636,-1.43470227718353,0.01082158181816,21.05530929565430,-0.01194195821881,-0.36596152186394,9.79634761810303,-5.44643068313599,0.16627480089664,-0.31905087828636
146,1884175969,-1.43486201763153,0.01027215179056,21.05527496337891,0.00469861133024,-0.34784579277039,9.82262039184570,-5.43102455139160,0.02553739026189,-0.39193618297577
147,1884184302,-1.43462026119232,0.01024549826980,21.05604553222656,0.00880154408514,-0.34568011760712,9.77997970581055,-5.35466909408569,0.08688349276781,-0.28020694851875
148,1884192635,-1.43461310863495,0.01103742700070,21.05630493164062,-0.00732700899243,-0.35790777206421,9.80112075805664,-5.41118669509888,0.18423040211201,-0.35255432128906
149,1884200968,-1.43473064899445,0.01164878159761,21.05605697631836,0.00472448254004,-0.36001044511795,9.78991127014160,-5.39709854125977,0.16668462753296,-0.41443830728531
150,1884209301,-1.43491327762604,0.01153941918164,21.05648231506348,0.02559277787805,-0.33845156431198,9.79090023040771,-5.43375301361084,0.07506252080202,-0.33462435007095
151,1884217634,-1.43511617183685,0.01091269496828,21.05652809143066,0.01395328249782,-0.35692343115807,9.77757358551025,-5.40760040283203,0.01620100438595,-0.37038183212280
152,1884225967,-1.43502140045166,0.01138237770647,21.05627822875977,0.01213206537068,-0.33306357264519,9.78737545013428,-5.39959621429443,0.14886993169785,-0.41432309150696
153,1884234300,-1.43440961837769,0.01164197828621,21.05664443969727,-0.00289577897638,-0.35376971960068,9.80702877044678,-5.31050920486450,0.12159077823162,-0.34093827009201
154,1884242633,-1.43431913852692,0.01178773399442,21.05651855468750,-0.00262567494065,-0.34433487057686,9.77664852142334,-5.40056943893433,0.10909103602171,-0.40036332607269
155,1884250966,-1.43426418304443,0.01194880343974,21.05560874938965,-0.00537353940308,-0.35573500394821,9.79273796081543,-5.37640333175659,0.11366318166256,-0.48626065254211
156,1884259299,-1.43410778045654,0.01208900846541,21.05607795715332,0.00856239441782,-0.36643087863922,9.78580284118652,-5.39280891418457,0.10535135120153,-0.32854101061821
157,1884267632,-1.43429386615753,0.01211246103048,21.05612564086914,0.00114619825035,-0.35351964831352,9.78189659118652,-5.40546131134033,0.09508004039526,-0.38471302390099
158,1884275965,-1.43429410457611,0.01260962430388,21.05628204345703,0.01739553920925,-0.35973235964775,9.82373809814453,-5.41180133819580,0.14957430958748,-0.36523339152336
159,1884284298,-1.43558633327484,0.01327804848552,21.05655670166016,0.00116953428369,-0.34740260243416,9.78099250793457,-5.53764390945435,0.17185869812965,-0.35388624668121
160,1884292631,-1.43515515327454,0.01340907625854,21.05707740783691,-0.00774020142853,-0.32710099220276,9.78977298736572,-5.35975313186646,0.10446766763926,-0.32261130213737
161,1884300964,-1.43551981449127,0.01285489741713,21.05687141418457,-0.01137443073094,-0.34370473027229,9.80018997192383,-5.42683696746826,0.02685652486980,-0.40765053033829
162,1884309297,-1.43515062332153,0.01262445840985,21.05604553222656,-0.00297991046682,-0.35649514198303,9.79783058166504,-5.36760425567627,0.06521384418011,-0.48463416099548
163,1884317630,-1.43523728847504,0.01316703110933,21.05651092529297,-0.00268789287657,-0.37174510955811,9.79029273986816,-5.39294958114624,0.15620842576027,-0.33459877967834
164,1884325963,-1.43461966514587,0.01290073432028,21.05675697326660,0.01326567213982,-0.35814255475998,9.79080486297607,-5.33846759796143,0.05792659521103,-0.35775405168533
165,1884334296,-1.43429577350616,0.01236040145159,21.05717277526855,0.00503330631182,-0.35317909717560,9.79628467559814,-5.34371900558472,0.02572949975729,-0.33936300873756
166,1884342629,-1.43401813507080,0.01214445102960,21.05726242065430,0.02574315667152,-0.33976507186890,9.77163696289062,-5.37924575805664,0.06479120254517,-0.37624752521515
167,1884350962,-1.43403065204620,0.01280524488539,21.05717658996582,0.00033458677353,-0.35664567351341,9.79102134704590,-5.38388109207153,0.17260152101517,-0.39387005567551
168,1884359295,-1.43313193321228,0.01215333584696,21.05701255798340,0.01231286395341,-0.36775928735733,9.80418205261230,-5.30376100540161,0.01128307171166,-0.40670284628868
169,1884367628,-1.43319356441498,0.01172772888094,21.05662536621094,-0.00746474321932,-0.34828695654869,9.80554580688477,-5.39087438583374,0.04381314665079,-0.47332543134689
170,1884375961,-1.43258285522461,0.01189829688519,21.05713844299316,-0.00627715745941,-0.35205334424973,9.79615688323975,-5.33762216567993,0.10918067395687,-0.32358461618423
171,1884384294,-1.43160355091095,0.01295078638941,21.05711746215820,0.00726314866915,-0.34119924902916,9.76101112365723,-5.26600456237793,0.21906574070454,-0.38867038488388
172,1884392627,-1.43219637870789,0.01291335280985,21.05740547180176,0.01890704408288,-0.35600653290749,9.80955028533936,-5.48238134384155,0.08470626920462,-0.35000568628311
173,1884400960,-1.43233275413513,0.01274860184640,21.05816268920898,-0.00725807389244,-0.36449018120766,9.81935119628906,-5.40000629425049,0.07000371068716,-0.28863403201103
174,1884409293,-1.43202722072601,0.01190067175776,21.05763053894043,0.01272791624069,-0.34636867046356,9.78721237182617,-5.37519836425781,-0.00922112446278,-0.45132279396057
175,1884417626,-1.43178772926331,0.01190029829741,21.05787658691406,0.00561708305031,-0.34915930032730,9.81353282928467,-5.35386180877686,0.09304371476173,-0.39766100049019
176,1884425959,-1.43091332912445,0.01123352721334,21.05740928649902,0.00494594406337,-0.36137732863426,9.79640388488770,-5.30646276473999,0.01157763414085,-0.44326710700989
177,1884434292,-1.43037855625153,0.01135972607881,21.05749320983887,0.01592739485204,-0.34726902842522,9.76082420349121,-5.31877040863037,0.10784873366356,-0.38032016158104
178,1884442625,-1.43037986755371,0.01103537157178,21.05692100524902,-0.00408008554950,-0.34172180294991,9.76613521575928,-5.41235208511353,0.05194567516446,-0.45551070570946
179,1884450958,-1.43054389953613,0.01132280007005,21.05697441101074,0.00884171854705,-0.34777167439461,9.78503131866455,-5.40249013900757,0.12720027565956,-0.37582483887672
180,1884459291,-1.43013203144073,0.01192028168589,21.05674362182617,-0.00302028912120,-0.35625603795052,9.80308055877686,-5.36219882965088,0.16177952289581,-0.41158235073090
181,1884467624,-1.43007922172546,0.01120556611568,21.05640029907227,0.01008289773017,-0.35390788316727,9.78475666046143,-5.37719631195068,0.00892656017095,-0.43103632330894
182,1884475957,-1.43032693862915,0.01040523406118,21.05610084533691,0.00335469446145,-0.37925395369530,9.79439735412598,-5.44247484207153,-0.00482828356326,-0.42428702116013
183,1884484290,-1.43061351776123,0.01093884184957,21.05560874938965,-0.00754938507453,-0.35628575086594,9.77720928192139,-5.41729497909546,0.15757876634598,-0.43253475427628
184,1884492623,-1.43059718608856,0.01086915284395,21.05573081970215,0.00322219263762,-0.35635638237000,9.77709579467773,-5.40945768356323,0.08191432803869,-0.37029218673706
185,1884500956,-1.43033933639526,0.01049197185785,21.05633926391602,0.01225837320089,-0.34727254509926,9.79529476165771,-5.35155677795410,0.04468403756618,-0.33178117871284
186,1884509289,-1.42946147918701,0.00996935460716,21.05662918090820,-0.00383658986539,-0.37626460194588,9.79385185241699,-5.30580902099609,0.02721512503922,-0.35122236609459
187,1884517622,-1.43106615543365,0.00924623571336,21.05627822875977,-0.02060027979314,-0.35875344276428,9.79797935485840,-5.57601404190063,0.00695426436141,-0.44409960508347
188,1884525955,-1.43107652664185,0.00946853775531,21.05643272399902,-0.01513439510018,-0.35549467802048,9.81180858612061,-5.41264677047729,0.11645513027906,-0.36602744460106
189,1884534288,-1.43105125427246,0.00938796252012,21.05672454833984,0.01575268991292,-0.33683481812477,9.77457714080811,-5.37938690185547,0.08191432803869,-0.36109670996666
190,1884542621,-1.43045675754547,0.01001161709428,21.05641746520996,-0.00509836664423,-0.34624618291855,9.79654598236084,-5.34058094024658,0.16603146493435,-0.42075222730637
191,1884550954,-1.43090498447418,0.01019848696887,21.05566215515137,-0.00807218533009,-0.34596002101898,9.78463268280029,-5.43637847900391,0.11733882129192,-0.45809781551361
192,1884559287,-1.43141126632690,0.00981802400202,21.05574417114258,0.02242477610707,-0.34237149357796,9.79383277893066,-5.47318601608276,0.04441508650780,-0.37813019752502
193,1884567620,-1.43165099620819,0.00944505818188,21.05603981018066,0.01371010672301,-0.35177490115166,9.80497837066650,-5.41151952743530,0.04693809151649,-0.35711368918419
194,1884575953,-1.43107259273529,0.00941784400493,21.05610656738281,0.00062852673000,-0.36190792918205,9.77247142791748,-5.34169530868530,0.08687068521976,-0.37678545713425
195,1884584286,-1.43110239505768,0.00887094810605,21.05681800842285,0.01941040344536,-0.35601657629013,9.78512763977051,-5.38593101501465,0.02496107295156,-0.30591079592705
196,1884592619,-1.43067836761475,0.00870627723634,21.05690956115723,-0.00438759522513,-0.36346262693405,9.79534530639648,-5.36187934875488,0.06960668414831,-0.37573525309563
197,1884600952,-1.43115508556366,0.00886846799403,21.05642509460449,0.00431220326573,-0.35623297095299,9.78939914703369,-5.43964433670044,0.11286912858486,-0.43905362486839
198,1884609285,-1.43119573593140,0.00910085439682,21.05642127990723,-0.00985717587173,-0.34315049648285,9.79050445556641,-5.41661691665649,0.11937513947487,-0.38516125082970
199,1884617618,-1.43104481697083,0.00915416143835,21.05686187744141,-0.00926432572305,-0.35494887828827,9.78845310211182,-5.36351823806763,0.09706514328718,-0.35091507434845
200,1884625951,-1.43119990825653,0.00947323255241,21.05629539489746,-0.01899769343436,-0.32639911770821,9.79807186126709,-5.43075609207153,0.13108085095882,-0.45298776030540
201,1884634284,-1.43234229087830,0.00951709598303,21.05606079101562,-0.00262273149565,-0.34320825338364,9.78585147857666,-5.51894617080688,0.09801287204027,-0.40706148743629
202,1884642617,-1.43235039710999,0.00956357270479,21.05594253540039,-0.00707995332778,-0.35155445337296,9.78661823272705,-5.41386318206787,0.09646321833134,-0.40123417973518
203,1884650950,-1.43143761157990,0.00990892481059,21.05608749389648,-0.00179459119681,-0.36460417509079,9.77793979644775,-5.27308750152588,0.13237436115742,-0.36842232942581
204,1884659283,-1.43114411830902,0.01047588326037,21.05652236938477,0.00741742271930,-0.37358996272087,9.77750968933105,-5.37617206573486,0.15779650211334,-0.33142259716988
205,1884667616,-1.43052887916565,0.01076864730567,21.05612754821777,0.00902618002146,-0.36792057752609,9.81876850128174,-5.30906248092651,0.12821206450462,-0.43390515446663
206,1884675949,-1.43085730075836,0.01004800945520,21.05543518066406,0.00302564841695,-0.36035087704659,9.82884502410889,-5.45133733749390,0.00655724387616,-0.47093051671982
207,1884684282,-1.43093383312225,0.01018029078841,21.05606842041016,0.00213798158802,-0.35833677649498,9.78761577606201,-5.39137411117554,0.10617101192474,-0.31483742594719
208,1884692615,-1.43093264102936,0.01014115102589,21.05587768554688,0.01873504929245,-0.34455040097237,9.76293087005615,-5.41160917282104,0.08547470718622,-0.40794512629509
209,1884700948,-1.43029606342316,0.01009243167937,21.05635261535645,0.02370169386268,-0.35598894953728,9.78213596343994,-5.30628299713135,0.08652488142252,-0.33033397793770
210,1884709281,-1.42933058738708,0.01032297778875,21.05641555786133,0.01646265015006,-0.33793240785599,9.78855800628662,-5.29607582092285,0.11812003701925,-0.37788677215576
211,1884717614,-1.42873311042786,0.01031884271652,21.05647659301758,0.00437329104170,-0.35085368156433,9.81017684936523,-5.31102180480957,0.09110981971025,-0.40517872571945
212,1884725947,-1.42907857894897,0.00984582491219,21.05643844604492,0.00603795843199,-0.36148333549500,9.81573390960693,-5.45289945602417,0.03416939079762,-0.39114215970039
213,1884734280,-1.42974042892456,0.00974801369011,21.05578804016113,0.01853123120964,-0.33897915482521,9.77753162384033,-5.46172380447388,0.08348959684372,-0.47350478172302
214,1884742613,-1.42992258071899,0.00916979555041,21.05640602111816,-0.01627755537629,-0.34791499376297,9.80244064331055,-5.43417549133301,0.01821172237396,-0.31355670094490
215,1884750946,-1.42984867095947,0.00944014824927,21.05673599243164,-0.00923273805529,-0.36241427063942,9.80332088470459,-5.37339258193970,0.12438271939754,-0.35395029187202
216,1884759279,-1.42911982536316,0.00904429145157,21.05651664733887,0.00001545516716,-0.34827360510826,9.76436424255371,-5.32399559020996,0.04368507862091,-0.41323441267014
217,1884767612,-1.42962098121643,0.00898193940520,21.05690193176270,-0.00519128097221,-0.34896108508110,9.77450847625732,-5.44338417053223,0.08392505347729,-0.33759567141533
218,1884775945,-1.43003666400909,0.00864664651453,21.05777359008789,0.00466665020213,-0.33102881908417,9.77493858337402,-5.46144199371338,0.04778335988522,-0.28157728910446
219,1884784278,-1.43088638782501,0.00804566964507,21.05782127380371,-0.00489690341055,-0.34899124503136,9.79496765136719,-5.48492956161499,0.01889049820602,-0.34779003262520
220,1884792611,-1.43096196651459,0.00869715306908,21.05803298950195,-0.01527676265687,-0.36279889941216,9.79446029663086,-5.42076539993286,0.16855445504189,-0.35824066400528
221,1884800944,-1.43063557147980,0.00850553438067,21.05817413330078,0.00168459629640,-0.35508507490158,9.81085491180420,-5.34200239181519,0.06937616318464,-0.37186747789383
222,1884809277,-1.42927360534668,0.00808128807694,21.05811500549316,0.04560210928321,-0.35251063108444,9.79858016967773,-5.24879217147827,0.03997101634741,-0.39458727836609
223,1884817610,-1.42845439910889,0.00845462735742,21.05867958068848,0.01129202451557,-0.35418286919594,9.79028224945068,-5.28635549545288,0.13437229394913,-0.30909979343414
224,1884825943,-1.42856979370117,0.00818859692663,21.05793380737305,-0.00285503361374,-0.34335330128670,9.79732131958008,-5.42535114288330,0.06030872464180,-0.47499039769173
225,1884834276,-1.42845761775970,0.00852404907346,21.05816268920898,0.01130413543433,-0.34479710459709,9.79804897308350,-5.36835908889771,0.13254086673260,-0.35770279169083
226,1884842609,-1.42847001552582,0.00862540863454,21.05777931213379,-0.00348665728234,-0.35625293850899,9.79306030273438,-5.41360712051392,0.10450607538223,-0.43181756138802
227,1884850942,-1.42827332019806,0.00837101042271,21.05779838562012,0.01695544086397,-0.33427849411964,9.81069183349609,-5.35897159576416,0.05978361889720,-0.38409823179245
228,1884859275,-1.42838120460510,0.00805740896612,21.05757904052734,-0.01436836551875,-0.35153359174728,9.80799102783203,-5.42474937438965,0.05427657067776,-0.41229957342148
229,1884867608,-1.42791807651520,0.00784767419100,21.05729675292969,-0.02175381220877,-0.34134420752525,9.77534008026123,-5.32738971710205,0.06836439669132,-0.41708940267563
230,1884875941,-1.42710173130035,0.00747294723988,21.05808258056641,0.00769497267902,-0.35513713955879,9.82133293151855,-5.31423664093018,0.04286542162299,-0.29353913664818
231,1884884274,-1.42803096771240,0.00758559210226,21.05779075622559,0.00350812473334,-0.33704069256783,9.79892063140869,-5.49338245391846,0.10690100491047,-0.42176398634911
232,1884892607,-1.42907881736755,0.00833304412663,21.05822181701660,-0.00123183301184,-0.35311162471771,9.81797122955322,-5.53749036788940,0.17841595411301,-0.33057728409767
233,1884900940,-1.42905259132385,0.00814332067966,21.05811882019043,-0.00051746657118,-0.35164064168930,9.76417160034180,-5.37927103042603,0.07019581645727,-0.40690773725510
234,1884909273,-1.42902684211731,0.00852767843753,21.05823516845703,-0.00189466099255,-0.34702175855637,9.79958724975586,-5.40947008132935,0.13761247694492,-0.37158569693565
235,1884917606,-1.42907392978668,0.00845836289227,21.05753707885742,-0.00322975916788,-0.36228546500206,9.80061817169189,-5.38763427734375,0.08514172583818,-0.46573087573051
236,1884925939,-1.42873728275299,0.00874557811767,21.05737495422363,0.00274774851277,-0.33738332986832,9.80473232269287,-5.37113809585571,0.12597081065178,-0.40356507897377
237,1884934272,-1.42918503284454,0.00816517230123,21.05772018432617,-0.01116399094462,-0.37568622827530,9.79124450683594,-5.43713426589966,0.02201543562114,-0.36272320151329
238,1884942605,-1.42883765697479,0.00811378471553,21.05738067626953,0.00885057263076,-0.36544489860535,9.80851364135742,-5.36984539031982,0.08446294814348,-0.42545250058174
239,1884950938,-1.42838966846466,0.00861313566566,21.05779838562012,0.00925168301910,-0.36621958017349,9.79745388031006,-5.32891368865967,0.15052205324173,-0.33703210949898
240,1884959271,-1.42775988578796,0.00846399180591,21.05772590637207,-0.00703599909320,-0.36747732758522,9.77767562866211,-5.33625221252441,0.07261636108160,-0.39467692375183
241,1884967604,-1.42805349826813,0.00825513713062,21.05730628967285,-0.00011574508972,-0.33817514777184,9.81024169921875,-5.41744899749756,0.06926089525223,-0.43140777945518
242,1884975937,-1.42866134643555,0.00900520477444,21.05751419067383,0.01970272697508,-0.35850253701210,9.80376911163330,-5.48476266860962,0.17955577373505,-0.35845839977264
243,1884984270,-1.42782509326935,0.00860593188554,21.05778503417969,-0.01517903339118,-0.34798473119736,9.75687408447266,-5.28188562393188,0.04363384842873,-0.35409116744995
244,1884992603,-1.42719721794128,0.00841399282217,21.05742645263672,-0.00637424783781,-0.34787589311600,9.78100204467773,-5.33675146102905,0.06786491721869,-0.42888480424881
245,1885000936,-1.42750608921051,0.00844379514456,21.05714225769043,0.01336217951030,-0.32499814033508,9.79340171813965,-5.41939592361450,0.09764146804810,-0.43153586983681
246,1885009269,-1.42718195915222,0.00888410210609,21.05705261230469,0.00659866910428,-0.35627678036690,9.81310176849365,-5.37215042114258,0.14309392869473,-0.39394694566727
247,1885017602,-1.42702317237854,0.00909778568894,21.05754089355469,-0.02507212013006,-0.33946523070335,9.77277278900146,-5.36351823806763,0.11681371182203,-0.33662226796150
248,1885025935,-1.42698204517365,0.00880187284201,21.05806350708008,0.01512091420591,-0.33790445327759,9.76743125915527,-5.40675497055054,0.05334164202213,-0.32437863945961
249,1885034268,-1.42782175540924,0.00991124566644,21.05775260925293,0.00974440202117,-0.33595728874207,9.78535270690918,-5.48311138153076,0.22715982794762,-0.42158466577530
250,1885042601,-1.42763710021973,0.00986610259861,21.05773544311523,0.02431297674775,-0.33011361956596,9.78857135772705,-5.38974714279175,0.08525697886944,-0.38813245296478
251,1885050934,-1.42776226997375,0.00900661852211,21.05827903747559,0.00554581731558,-0.35684406757355,9.80803775787354,-5.39832735061646,-0.01201307494193,-0.33992648124695
252,1885059267,-1.42751967906952,0.00866614934057,21.05803298950195,0.03054597042501,-0.34022507071495,9.77458381652832,-5.38220405578613,0.05120285600424,-0.41626971960068
253,1885067600,-1.42843544483185,0.00916227325797,21.05821800231934,0.01483077276498,-0.37283229827881,9.78493022918701,-5.49230718612671,0.15024030208588,-0.37010014057159
254,1885075933,-1.42837750911713,0.00849152635783,21.05821418762207,-0.00207914621569,-0.36047148704529,9.81435298919678,-5.40483427047729,0.01077078655362,-0.38769704103470
255,1885084266,-1.42745709419250,0.00833992753178,21.05821418762207,0.00370572274551,-0.35626175999641,9.79532432556152,-5.27342033386230,0.07343601435423,-0.39746889472008
256,1885092599,-1.42672502994537,0.00905869901180,21.05825805664062,0.00925578363240,-0.36433127522469,9.78302001953125,-5.32390594482422,0.17684066295624,-0.37859117984772
257,1885100932,-1.42685091495514,0.00943569373339,21.05875778198242,0.00342017062940,-0.37425169348717,9.78713798522949,-5.39661169052124,0.13676720857620,-0.34551039338112
258,1885109265,-1.42621433734894,0.01011313591152,21.05844879150391,0.00234337383881,-0.35616365075111,9.81809425354004,-5.33613681793213,0.17208924889565,-0.42091876268387
259,1885117598,-1.42593991756439,0.00989550445229,21.05919075012207,-0.01165387500077,-0.35251775383949,9.77112960815430,-5.34932804107666,0.06479120254517,-0.30191498994827
260,1885125931,-1.42535877227783,0.00986642204225,21.05952262878418,0.00143004313577,-0.38533675670624,9.77548694610596,-5.34278345108032,0.08606383204460,-0.34608677029610
261,1885134264,-1.42573690414429,0.00984427798539,21.05972480773926,0.01202911790460,-0.34118545055389,9.78601360321045,-5.42641353607178,0.08895822614431,-0.35356605052948
262,1885142597,-1.42569768428802,0.01011364255100,21.05912971496582,0.01172923017293,-0.35862419009209,9.80001926422119,-5.40657567977905,0.12362710386515,-0.45611268281937
263,1885150930,-1.42551028728485,0.00984481163323,21.05975723266602,0.01387169584632,-0.36240264773369,9.80787754058838,-5.36006069183350,0.05872063711286,-0.29307809472084
264,1885159263,-1.42544150352478,0.00953419692814,21.05947113037109,0.01003785151988,-0.34649652242661,9.78975963592529,-5.40369462966919,0.05312392860651,-0.42090594768524
265,1885167596,-1.42479991912842,0.00891969352961,21.05917358398438,0.01304442435503,-0.37277981638908,9.78695678710938,-5.30373477935791,0.01919787004590,-0.41830611228943
266,1885175929,-1.42408919334412,0.00861793756485,21.05907440185547,0.02229571342468,-0.36036810278893,9.80279159545898,-5.32696723937988,0.05477604642510,-0.39942842721939
267,1885184262,-1.42428481578827,0.00896910578012,21.05888366699219,0.00979568529874,-0.34933859109879,9.80145359039307,-5.40603780746460,0.13507665693760,-0.40695896744728
268,1885192595,-1.42419195175171,0.00947875529528,21.05835342407227,-0.00750392396003,-0.35341101884842,9.79263973236084,-5.40137577056885,0.15318593382835,-0.44783934950829
269,1885200928,-1.42443990707397,0.00891590584069,21.05883979797363,0.00209514028393,-0.36232024431229,9.80340766906738,-5.41239023208618,0.02337298914790,-0.32519829273224
270,1885209261,-1.42414224147797,0.00897500198334,21.05868530273438,0.01475569419563,-0.35567629337311,9.82143497467041,-5.37647914886475,0.09814093261957,-0.40398767590523
271,1885217594,-1.42424607276917,0.00945730414242,21.05899238586426,-0.00876318756491,-0.36400204896927,9.80367851257324,-5.39465236663818,0.14948466420174,-0.34460109472275
272,1885225927,-1.42342865467072,0.00965004321188,21.05975723266602,-0.01378264743835,-0.36138150095940,9.78454399108887,-5.31335306167603,0.11057665944099,-0.29250177741051
273,1885234260,-1.42362713813782,0.00857298169285,21.05953979492188,-0.01808425225317,-0.34209290146828,9.81527423858643,-5.40582036972046,-0.03502746671438,-0.41665396094322
274,1885242593,-1.42389059066772,0.00797240529209,21.05898475646973,0.00112059747335,-0.33849209547043,9.81008529663086,-5.44334506988525,0.01913383230567,-0.45361533761024
275,1885250926,-1.42366945743561,0.00681911734864,21.05943107604980,-0.00267017842270,-0.33683356642723,9.79484748840332,-5.35605192184448,-0.04716861620545,-0.33179396390915
276,1885259259,-1.42351996898651,0.00687285140157,21.06044387817383,-0.01024322770536,-0.37029576301575,9.81552791595459,-5.39309024810791,0.09341512620449,-0.26314786076546
277,1885267592,-1.42360949516296,0.00632422184572,21.06019592285156,-0.00273372186348,-0.35479027032852,9.81278800964355,-5.39412736892700,0.02677968516946,-0.40091398358345
278,1885275925,-1.42300009727478,0.00611240556464,21.05945396423340,0.01161684561521,-0.34359827637672,9.78114700317383,-5.33872413635254,0.06699404120445,-0.47545143961906
279,1885284258,-1.42279469966888,0.00625493237749,21.05902862548828,0.00923907198012,-0.34068882465363,9.80928134918213,-5.35699987411499,0.11111456155777,-0.43691486120224
280,1885292591,-1.42279636859894,0.00645490223542,21.05946350097656,-0.00813071615994,-0.33898663520813,9.80278015136719,-5.41081476211548,0.11303561925888,-0.33207574486732
281,1885300924,-1.42313647270203,0.00725411437452,21.05894851684570,0.00920268893242,-0.35306870937347,9.80154609680176,-5.42288017272949,0.18946851789951,-0.44882544875145
282,1885309257,-1.42237436771393,0.00751419551671,21.05933952331543,0.00752682937309,-0.35445424914360,9.80149841308594,-5.32075595855713,0.12074550986290,-0.33794140815735
283,1885317590,-1.42325186729431,0.00747769651935,21.05949592590332,-0.01102853287011,-0.35742765665054,9.77758979797363,-5.48855447769165,0.08719085901976,-0.36547672748566
284,1885325923,-1.42278528213501,0.00721991015598,21.05933189392090,0.00654146866873,-0.35031127929688,9.81732463836670,-5.35518121719360,0.06019345670938,-0.40497383475304
285,1885334256,-1.42299187183380,0.00749231735244,21.05886650085449,-0.01015389245003,-0.34406960010529,9.77955341339111,-5.40712642669678,0.12640625238419,-0.44019341468811
286,1885342589,-1.42281651496887,0.00715232873335,21.05832672119141,-0.02537276595831,-0.34997999668121,9.79155349731445,-5.39084863662720,0.04965319484472,-0.45106670260429
287,1885350922,-1.42408645153046,0.00693410960957,21.05874061584473,-0.02145065180957,-0.34022670984268,9.79721164703369,-5.53473615646362,0.06518822908401,-0.33689120411873
288,1885359255,-1.42413198947906,0.00642838189378,21.05855369567871,-0.01098357513547,-0.35482957959175,9.78900527954102,-5.41703939437866,0.03109568357468,-0.40866231918335
289,1885367588,-1.42442238330841,0.00638214545324,21.05865097045898,0.00538625940681,-0.32971018552780,9.76653289794922,-5.41645002365112,0.08596136420965,-0.37241816520691
290,1885375921,-1.42334032058716,0.00604012887925,21.05792808532715,0.00971765723079,-0.36257052421570,9.81542205810547,-5.28210401535034,0.05163829401135,-0.47387617826462
291,1885384254,-1.42350780963898,0.00581934815273,21.05889129638672,-0.00603781407699,-0.34996816515923,9.77468013763428,-5.40129947662354,0.06287014484406,-0.26536348462105
292,1885392587,-1.42363929748535,0.00561492238194,21.05919456481934,0.00295403040946,-0.32664471864700,9.76945400238037,-5.42792510986328,0.06462471187115,-0.34949341416359
293,1885400920,-1.42390513420105,0.00591008830816,21.05864143371582,0.00919299107045,-0.35138756036758,9.77449417114258,-5.41419601440430,0.12912136316299,-0.43340569734573
294,1885409253,-1.42376434803009,0.00609148805961,21.05820083618164,-0.01759833283722,-0.35126003623009,9.79984283447266,-5.39554882049561,0.11301001906395,-0.43968114256859
295,1885417586,-1.42413032054901,0.00523926224560,21.05800437927246,0.01070211268961,-0.35174500942230,9.76250553131104,-5.42636299133301,-0.00892656110227,-0.40172085165977
296,1885425919,-1.42348766326904,0.00533443130553,21.05793380737305,0.00350039917976,-0.34025347232819,9.79441642761230,-5.33425474166870,0.10158605873585,-0.39280712604523
297,1885434252,-1.42340290546417,0.00589010491967,21.05786323547363,0.01323979906738,-0.34201323986053,9.79653453826904,-5.37282943725586,0.15888510644436,-0.39736646413803
298,1885442585,-1.42330837249756,0.00596030056477,21.05792999267578,-0.00902824196965,-0.34970861673355,9.81083011627197,-5.39963483810425,0.09878130257130,-0.37732329964638
299,1885450918,-1.42317330837250,0.00618425663561,21.05811119079590,0.00764441397041,-0.33953753113747,9.75924015045166,-5.36746311187744,0.11993865668774,-0.38818371295929
300,1885459251,-1.42221283912659,0.00608070986345,21.05836486816406,0.00678614340723,-0.36342075467110,9.78724670410156,-5.29648542404175,0.07618954032660,-0.35544869303703
301,1885467584,-1.42220449447632,0.00632243417203,21.05838584899902,-0.01404395420104,-0.34354084730148,9.81186962127686,-5.38098764419556,0.12106569111347,-0.38042265176773
302,1885475917,-1.42215132713318,0.00556743144989,21.05810928344727,-0.00853830389678,-0.35675364732742,9.77281856536865,-5.40614032745361,0.00160088972189,-0.42161035537720
303,1885484250,-1.42200136184692,0.00516706472263,21.05786705017090,-0.00891848374158,-0.35078579187393,9.79811191558838,-5.36397933959961,0.04340332001448,-0.39702063798904
304,1885492583,-1.42103266716003,0.00514350598678,21.05722045898438,-0.00109039840754,-0.33487439155579,9.78101348876953,-5.29566621780396,0.09086649864912,-0.46323347091675
305,1885500916,-1.42032325267792,0.00575531506911,21.05775260925293,0.02124317735434,-0.35138651728630,9.81964683532715,-5.29898262023926,0.16275283694267,-0.31663036346436
306,1885509249,-1.41984593868256,0.00571313360706,21.05838775634766,0.00376796373166,-0.34349298477173,9.78957939147949,-5.35447692871094,0.08494961261749,-0.30947121977806
307,1885517582,-1.42032945156097,0.00580085860565,21.05827713012695,-0.00370739935897,-0.34850743412971,9.77882289886475,-5.44075822830200,0.10268746316433,-0.40271979570389
308,1885525915,-1.41969919204712,0.00572332506999,21.05748748779297,0.00287200510502,-0.35764861106873,9.78340244293213,-5.33594512939453,0.08378415554762,-0.48027968406677
309,1885534248,-1.42033386230469,0.00570998480543,21.05777359008789,0.00382583634928,-0.36595702171326,9.77387428283691,-5.45794486999512,0.09016209840775,-0.37528693675995
310,1885542581,-1.42034506797791,0.00702180806547,21.05760765075684,0.01713634096086,-0.35404258966446,9.80246734619141,-5.41335058212280,0.24853493273258,-0.40220755338669
311,1885550914,-1.42082142829895,0.00719533860683,21.05733299255371,0.01103474199772,-0.35294839739799,9.79824829101562,-5.43937492370605,0.11347106844187,-0.41580870747566
312,1885559247,-1.42110276222229,0.00782352872193,21.05731964111328,-0.00349286990240,-0.34562495350838,9.78746509552002,-5.44483089447021,0.16585217416286,-0.38571196794510
313,1885567580,-1.42072093486786,0.00860937405378,21.05743408203125,0.00982138700783,-0.34268188476562,9.76463222503662,-5.33741760253906,0.18756024539471,-0.40104210376740
314,1885575913,-1.42070043087006,0.00838176254183,21.05745887756348,-0.00370969320647,-0.35553494095802,9.80063533782959,-5.40943241119385,0.06226820126176,-0.38248455524445
315,1885584246,-1.42058181762695,0.00736574642360,21.05715179443359,0.00984360836446,-0.33499211072922,9.75718116760254,-5.36714267730713,-0.02864952199161,-0.43076738715172
316,1885592579,-1.42021584510803,0.00707765016705,21.05628585815430,0.02156651578844,-0.34629940986633,9.77557468414307,-5.36793708801270,0.05770887434483,-0.49044856429100
317,1885600912,-1.42040657997131,0.00704470090568,21.05667686462402,0.00750148715451,-0.34514683485031,9.79984569549561,-5.40479564666748,0.08816420286894,-0.35108155012131
318,1885609245,-1.42136538028717,0.00776723260060,21.05655860900879,0.01136710494757,-0.36795476078987,9.79869556427002,-5.52679681777954,0.17704561352730,-0.39746895432472
319,1885617578,-1.42137598991394,0.00764589058235,21.05731582641602,-0.01088177692145,-0.34445488452911,9.79018020629883,-5.38289546966553,0.07607427984476,-0.29975059628487
320,1885625911,-1.42133772373199,0.00719901965931,21.05653381347656,-0.01057244744152,-0.34989115595818,9.76586055755615,-5.40722894668579,0.03893363475800,-0.48079195618629
321,1885634244,-1.42172956466675,0.00658889161423,21.05649757385254,-0.00246446020901,-0.33961832523346,9.81407451629639,-5.42829656600952,0.01945401169360,-0.39691817760468
322,1885642577,-1.42114365100861,0.00607377290726,21.05627822875977,0.01770006120205,-0.35085716843605,9.80220890045166,-5.34200191497803,0.02962286025286,-0.41505306959152
323,1885650910,-1.42098987102509,0.00629674084485,21.05631828308105,-0.00623803446069,-0.35350626707077,9.80175876617432,-5.36362028121948,0.11747968196869,-0.37314811348915
324,1885659243,-1.42105197906494,0.00691631389782,21.05590248107910,-0.00864348188043,-0.35420498251915,9.82246017456055,-5.41949844360352,0.16690236330032,-0.43430221080780
325,1885667576,-1.42170023918152,0.00681279413402,21.05591011047363,0.00726640550420,-0.35804310441017,9.79002094268799,-5.45992994308472,0.07923763990402,-0.38152405619621
326,1885675909,-1.42233073711395,0.00619418127462,21.05533218383789,-0.00588757777587,-0.36318275332451,9.79132843017578,-5.48820877075195,0.01807084120810,-0.45726531744003
327,1885684242,-1.42174458503723,0.00587244192138,21.05529785156250,-0.00853280816227,-0.36149889230728,9.80852031707764,-5.31132936477661,0.05394358560443,-0.39022010564804
328,1885692575,-1.42227017879486,0.00523592717946,21.05516052246094,0.00408432586119,-0.34854033589363,9.79048252105713,-5.47477388381958,0.01421590149403,-0.40353947877884
329,1885700908,-1.42233765125275,0.00556729780510,21.05610466003418,-0.01526778936386,-0.34986272454262,9.80422687530518,-5.39114332199097,0.12914697825909,-0.27323985099792
330,1885709241,-1.42199206352234,0.00621688645333,21.05644035339355,0.00073652865831,-0.34871622920036,9.79866313934326,-5.36996030807495,0.16733780503273,-0.34329476952553
331,1885717574,-1.42198264598846,0.00637184642255,21.05602455139160,-0.00527351070195,-0.34702730178833,9.78151226043701,-5.38121700286865,0.11212630569935,-0.44545710086823
332,1885725907,-1.42185795307159,0.00558474706486,21.05535697937012,-0.00062429934042,-0.34484943747520,9.80393695831299,-5.39707326889038,-0.00158808252309,-0.46807453036308
333,1885734240,-1.42194426059723,0.00530268205330,21.05450248718262,0.00796739384532,-0.36269342899323,9.79842948913574,-5.39255237579346,0.06101311370730,-0.48947528004646
334,1885742573,-1.42131936550140,0.00506594590843,21.05487632751465,0.01022344548255,-0.36941391229630,9.79870414733887,-5.33694362640381,0.06085942685604,-0.34122002124786
335,1885750906,-1.42637825012207,0.01316721830517,21.05491256713867,-0.00154692877550,-0.34616124629974,9.78495407104492,-5.47629833221436,0.06835158914328,-0.33293387293816
336,1885759239,-1.42624294757843,0.01275463216007,21.05489540100098,0.00406499812379,-0.34234830737114,9.80593395233154,-5.39620208740234,0.04161032661796,-0.38943883776665
337,1885767572,-1.42765474319458,0.01200181711465,21.05486297607422,-0.00632247095928,-0.34862416982651,9.79824542999268,-5.55095052719116,0.00158808252309,-0.38847827911377
338,1885775905,-1.42731988430023,0.01223585754633,21.05504608154297,-0.01411298476160,-0.35229203104973,9.78014945983887,-5.37170219421387,0.11713390052319,-0.36288970708847
339,1885784238,-1.42676198482513,0.01248513348401,21.05523300170898,-0.00541191175580,-0.35545578598976,9.80086994171143,-5.31550455093384,0.12089919298887,-0.37669578194618
340,1885792571,-1.42741227149963,0.01316980645061,21.05572509765625,-0.00452602002770,-0.35098388791084,9.79855060577393,-5.48904037475586,0.17066764831543,-0.32423779368401
341,1885800904,-1.42767131328583,0.01403017062694,21.05546569824219,0.01844495348632,-0.32677671313286,9.82360076904297,-5.41409397125244,0.19574399292469,-0.42549085617065
342,1885809237,-1.42724716663361,0.01395188923925,21.05602455139160,0.00411580456421,-0.33790826797485,9.78645038604736,-5.35995721817017,0.07872533798218,-0.31794950366020
343,1885817570,-1.42711853981018,0.01453656516969,21.05576515197754,0.00272225216031,-0.33824700117111,9.80189990997314,-5.36692523956299,0.16353408992290,-0.42481213808060
344,1885825903,-1.42683994770050,0.01526960637420,21.05501174926758,-0.02164971269667,-0.35853675007820,9.81049060821533,-5.37817001342773,0.18056754767895,-0.47435003519058
345,1885834236,-1.42674410343170,0.01574129052460,21.05429649353027,0.01387850660831,-0.35667246580124,9.76558589935303,-5.37127923965454,0.14939501881599,-0.47027730941772
346,1885842569,-1.42629158496857,0.01521768793464,21.05471229553223,0.01744981855154,-0.35360175371170,9.78429794311523,-5.35678243637085,0.02688214182854,-0.33705773949623
347,1885850902,-1.42574477195740,0.01501916069537,21.05413627624512,0.00160789699294,-0.34627124667168,9.79804134368896,-5.31724643707275,0.06805702298880,-0.43499377369881
348,1885859235,-1.42606735229492,0.01544572599232,21.05438995361328,0.00990648288280,-0.35527494549751,9.78976440429688,-5.45012044906616,0.14081425964832,-0.35424488782883
349,1885867568,-1.42563033103943,0.01487684715539,21.05427742004395,-0.02345417067409,-0.35489293932915,9.78054809570312,-5.33080863952637,0.02484580874443,-0.40734317898750
350,1885875901,-1.42553555965424,0.01431773230433,21.05479240417480,0.00488575734198,-0.34739625453949,9.79138278961182,-5.39969873428345,0.02138788811862,-0.32536482810974
351,1885884234,-1.42581200599670,0.01387635618448,21.05506324768066,0.01002544723451,-0.35082760453224,9.80957126617432,-5.41586065292358,0.03865187615156,-0.37956452369690
352,1885892567,-1.42515671253204,0.01378585770726,21.05510330200195,-0.01468081306666,-0.34802088141441,9.80232429504395,-5.33228158950806,0.07907114923000,-0.38117823004723
353,1885900900,-1.42541551589966,0.01398091763258,21.05544281005859,0.00674701668322,-0.33099827170372,9.78878593444824,-5.41288995742798,0.11272824555635,-0.31696337461472
354,1885909233,-1.42548203468323,0.01403806824237,21.05521011352539,0.00468649389222,-0.35495343804359,9.78404903411865,-5.41875553131104,0.09710356593132,-0.41242760419846
355,1885917566,-1.42596423625946,0.01364012900740,21.05502510070801,0.01452784892172,-0.34571427106857,9.78985404968262,-5.44006633758545,0.04590070992708,-0.41793465614319
356,1885925899,-1.42510294914246,0.01395277027041,21.05531120300293,-0.00267671374604,-0.36565199494362,9.79219532012939,-5.30904912948608,0.12635502219200,-0.35077410936356
357,1885934232,-1.42604458332062,0.01425388641655,21.05494689941406,-0.00365881249309,-0.35378795862198,9.79633235931396,-5.49436855316162,0.13001786172390,-0.44693002104759
358,1885942565,-1.42570292949677,0.01460166554898,21.05403709411621,-0.00263352645561,-0.34942460060120,9.76412963867188,-5.37088251113892,0.13391122221947,-0.49362471699715
359,1885950898,-1.42651641368866,0.01294659823179,21.05349540710449,0.00736945308745,-0.36329731345177,9.80435371398926,-5.48066520690918,-0.10444204509258,-0.46460378170013
360,1885959231,-1.42647325992584,0.01289731916040,21.05304908752441,-0.01259311847389,-0.36241158843040,9.81658363342285,-5.40546131134033,0.08483433723450,-0.43883585929871
361,1885967564,-1.42629957199097,0.01202625688165,21.05326271057129,0.00119150464889,-0.35709026455879,9.79630661010742,-5.36162281036377,-0.01283273193985,-0.37763068079948
362,1885975897,-1.42641544342041,0.01121426466852,21.05327606201172,0.01500022504479,-0.35435000061989,9.79824066162109,-5.42526149749756,-0.00831181928515,-0.38571199774742
363,1885984230,-1.42729282379150,0.01100066024810,21.05322265625000,0.03015036322176,-0.36025986075401,9.76342678070068,-5.48704338073730,0.06682754307985,-0.39306324720383
364,1885992563,-1.42707967758179,0.01102944929153,21.05297660827637,0.01248487178236,-0.36859503388405,9.80493545532227,-5.38580226898193,0.09406826645136,-0.41497620940208
365,1886000896,-1.42650282382965,0.01114895101637,21.05294799804688,0.01001355703920,-0.34671238064766,9.79158115386963,-5.31358385086060,0.10512083023787,-0.38110139966011
366,1886009229,-1.42625737190247,0.01190067175776,21.05351448059082,-0.01445658039302,-0.35765317082405,9.78434658050537,-5.38174343109131,0.17853121459484,-0.31506794691086
367,1886017562,-1.42629694938660,0.01056619733572,21.05266571044922,-0.00404854724184,-0.36073604226112,9.80930995941162,-5.38627719879150,-0.06558524817228,-0.48138117790222
368,1886025895,-1.42693281173706,0.01039048004895,21.05255317687988,0.01000626105815,-0.36578091979027,9.80074787139893,-5.48755502700806,0.06961947679520,-0.39969727396965
369,1886034228,-1.42659628391266,0.01032489817590,21.05274772644043,0.00663239695132,-0.35544613003731,9.75924015045166,-5.34216833114624,0.08196554332972,-0.34872499108315
370,1886042561,-1.42620944976807,0.01050139032304,21.05281066894531,0.00107734382618,-0.37242180109024,9.75652313232422,-5.36431217193604,0.11138351261616,-0.37711840867996
371,1886050894,-1.42632651329041,0.01033445075154,21.05255508422852,-0.00910336151719,-0.33103004097939,9.78622341156006,-5.39502429962158,0.07357689738274,-0.41758891940117
372,1886059227,-1.42606139183044,0.01019990164787,21.05241775512695,-0.00176414032467,-0.36218589544296,9.82524585723877,-5.37959146499634,0.07302618771791,-0.40213069319725
373,1886067560,-1.42693436145782,0.01026118639857,21.05169296264648,0.02660931646824,-0.35629501938820,9.81544399261475,-5.48735046386719,0.10158605873585,-0.45456302165985
374,1886075893,-1.42645204067230,0.01063668634742,21.05106163024902,-0.01425254251808,-0.34962248802185,9.79085826873779,-5.35356712341309,0.13562737405300,-0.46065917611122
375,1886084226,-1.42621433734894,0.01049922872335,21.05205535888672,-0.00866363197565,-0.34646770358086,9.79521560668945,-5.35288858413696,0.07334636896849,-0.27688989043236
376,1886092559,-1.42664742469788,0.01036302559078,21.05252647399902,-0.00057623430621,-0.37312573194504,9.79540824890137,-5.46349048614502,0.07188634574413,-0.33009067177773
377,1886100892,-1.42818450927734,0.00948507804424,21.05238151550293,-0.01449245493859,-0.34569349884987,9.78296375274658,-5.56542253494263,-0.01335782464594,-0.38176733255386
378,1886109225,-1.42842996120453,0.00876454729587,21.05282211303711,0.00573620712385,-0.34978383779526,9.80588912963867,-5.44073295593262,0.00184422510210,-0.33438104391098
379,1886117558,-1.42885458469391,0.00854283291847,21.05292892456055,0.00738319708034,-0.35406678915024,9.78761863708496,-5.43361139297485,0.06513699889183,-0.40082433819771
380,1886125891,-1.42802178859711,0.00843210890889,21.05308341979980,0.00773686682805,-0.35991746187210,9.82166862487793,-5.31131649017334,0.07734218984842,-0.36756429076195
381,1886134224,-1.42808055877686,0.00896467640996,21.05282211303711,0.01151176076382,-0.34329158067703,9.78825187683105,-5.38836383819580,0.15664383769035,-0.42404365539551
382,1886142557,-1.42816543579102,0.00868058390915,21.05335807800293,0.00522080576047,-0.34237360954285,9.76933193206787,-5.42112445831299,0.05454551801085,-0.32117688655853
383,1886150890,-1.42819273471832,0.00901013985276,21.05351829528809,0.00722890347242,-0.34467226266861,9.78541851043701,-5.38581562042236,0.13109368085861,-0.36865290999413
384,1886159223,-1.42840003967285,0.00921886134893,21.05363845825195,-0.00468204636127,-0.35289129614830,9.79793357849121,-5.43557119369507,0.11445720493793,-0.36999762058258
385,1886167556,-1.42839884757996,0.00825359113514,21.05389022827148,-0.00581659656018,-0.37742918729782,9.76828861236572,-5.38370180130005,-0.02530686557293,-0.37378853559494
386,1886175889,-1.42803728580475,0.00747105292976,21.05421257019043,-0.01244141533971,-0.35114172101021,9.78738212585449,-5.36774539947510,-0.00440564891323,-0.34866100549698
387,1886184222,-1.42829394340515,0.00750659126788,21.05434417724609,0.00862082000822,-0.35844328999519,9.77792453765869,-5.41221094131470,0.09501600265503,-0.36794847249985
388,1886192555,-1.42827785015106,0.00753513956442,21.05550575256348,0.01003009267151,-0.35135945677757,9.79736804962158,-5.40918827056885,0.08973947167397,-0.24617840349674
389,1886200888,-1.42775464057922,0.00731676025316,21.05548858642578,0.01829560846090,-0.34706863760948,9.80066490173340,-5.31943655014038,0.06653297692537,-0.39499711990356
390,1886209221,-1.42818856239319,0.00763404369354,21.05508232116699,0.00227111624554,-0.35368576645851,9.77108860015869,-5.46317100524902,0.12830170989037,-0.43404600024223
391,1886217554,-1.42886400222778,0.00651231920347,21.05477333068848,0.00278498814441,-0.35653817653656,9.76607418060303,-5.46319627761841,-0.04130295664072,-0.44803142547607
392,1886225887,-1.42921495437622,0.00637176632881,21.05480575561523,-0.01517539005727,-0.34950315952301,9.79886436462402,-5.45405149459839,0.07312863320112,-0.38332983851433
393,1886234220,-1.42991244792938,0.00619634240866,21.05475234985352,-0.00584616046399,-0.35867902636528,9.79823970794678,-5.46514272689819,0.07110511511564,-0.38983586430550
394,1886242553,-1.42999863624573,0.00667410856113,21.05354690551758,-0.00285699521191,-0.34483334422112,9.79467487335205,-5.42199563980103,0.14990730583668,-0.52885711193085
395,1886250886,-1.43042373657227,0.00605290848762,21.05299568176270,0.01822327822447,-0.35544142127037,9.79036521911621,-5.43332958221436,0.02003033086658,-0.46770313382149
396,1886259219,-1.43035745620728,0.00532725406811,21.05234718322754,-0.00029937556246,-0.35901805758476,9.79295253753662,-5.40359163284302,0.00491793313995,-0.46619185805321
397,1886267552,-1.43011713027954,0.00542018190026,21.05260848999023,0.01375830918550,-0.37937855720520,9.78181362152100,-5.35338735580444,0.10153482854366,-0.36181387305260
398,1886275885,-1.42949509620667,0.00523299211636,21.05225563049316,-0.01490839757025,-0.34212183952332,9.77252864837646,-5.33699512481689,0.06874860823154,-0.42851331830025
399,1886284218,-1.42909228801727,0.00476042833179,21.05250358581543,0.00406971247867,-0.36120092868805,9.77387332916260,-5.33310174942017,0.03424623608589,-0.36609145998955
400,1886292551,-1.42867040634155,0.00477072736248,21.05212974548340,-0.00712798396125,-0.33900538086891,9.76722908020020,-5.36082887649536,0.09265949577093,-0.43008866906166
401,1886300884,-1.42880308628082,0.00440755346790,21.05215263366699,-0.00349283451214,-0.36542361974716,9.78895092010498,-5.39726495742798,0.04897441715002,-0.38837581872940
402,1886309217,-1.42862844467163,0.00366437016055,21.05299377441406,-0.00253090937622,-0.34449648857117,9.77686309814453,-5.39016962051392,-0.00208756001666,-0.28673854470253
403,1886317550,-1.42872905731201,0.00373952859081,21.05297851562500,-0.00419335346669,-0.37570720911026,9.76076507568359,-5.39326953887939,0.10135553032160,-0.39278146624565
404,1886325883,-1.42861533164978,0.00357467075810,21.05342674255371,0.00661329459399,-0.35688862204552,9.77482032775879,-5.39846944808960,0.06885106116533,-0.33299785852432
405,1886334216,-1.42900490760803,0.00331720407121,21.05316352844238,0.00653442181647,-0.33030712604523,9.79012393951416,-5.42893695831299,0.06128205731511,-0.42140540480614
406,1886342549,-1.42907512187958,0.00369467888959,21.05282974243164,0.02940877340734,-0.35270062088966,9.81429958343506,-5.42004919052124,0.13633178174496,-0.42376193404198
407,1886350882,-1.42936408519745,0.00466795451939,21.05315971374512,-0.00299447076395,-0.33740925788879,9.77799606323242,-5.41616868972778,0.20816689729691,-0.34580501914024
408,1886359215,-1.42897677421570,0.00391874089837,21.05310821533203,-0.02709226310253,-0.34284198284149,9.80388641357422,-5.36438941955566,-0.00056351319654,-0.39366522431374
409,1886367548,-1.42880666255951,0.00459162192419,21.05352592468262,0.01401569321752,-0.34819397330284,9.78156089782715,-5.36107254028320,0.17202521860600,-0.33394560217857
410,1886375881,-1.42953991889954,0.00482539553195,21.05400657653809,0.01644692756236,-0.37363773584366,9.81638813018799,-5.49974727630615,0.11654476076365,-0.32718336582184
411,1886384214,-1.42928397655487,0.00580888940021,21.05496978759766,0.00695755239576,-0.34909138083458,9.82029247283936,-5.35110855102539,0.20701424777508,-0.27518653869629
412,1886392547,-1.42973816394806,0.00644681835547,21.05509567260742,-0.01598926819861,-0.32948142290115,9.80178260803223,-5.46577072143555,0.16614672541618,-0.36892184615135
413,1886400880,-1.42933046817780,0.00631405692548,21.05494880676270,-0.00973464269191,-0.35190910100937,9.74698257446289,-5.33325529098511,0.07545953989029,-0.40563985705376
414,1886409213,-1.42985761165619,0.00643177051097,21.05491256713867,-0.00377240637317,-0.37103682756424,9.79117584228516,-5.47439002990723,0.10483906418085,-0.38916987180710
415,1886417546,-1.42946076393127,0.00692514469847,21.05537223815918,-0.00819954648614,-0.36083823442459,9.80481529235840,-5.33511209487915,0.14879310131073,-0.35273361206055
416,1886425879,-1.42950665950775,0.00803003460169,21.05599212646484,-0.00323416013271,-0.35505339503288,9.82318878173828,-5.41600131988525,0.22211383283138,-0.30716589093208
417,1886434212,-1.42926192283630,0.00863717496395,21.05525970458984,-0.00518890656531,-0.35979306697845,9.81367969512939,-5.35284948348999,0.16559602320194,-0.47180140018463
418,1886442545,-1.42961871623993,0.00954116042703,21.05483627319336,-0.01581003144383,-0.34753572940826,9.78295040130615,-5.45351409912109,0.20045702159405,-0.43314954638481
419,1886450878,-1.42996251583099,0.00927678402513,21.05463600158691,-0.00661132298410,-0.36043104529381,9.80433082580566,-5.42368650436401,0.06025749072433,-0.40898251533508
420,1886459211,-1.43024921417236,0.00902153272182,21.05430793762207,-0.00758408335969,-0.34437343478203,9.79136276245117,-5.44527912139893,0.06051363423467,-0.42545250058174
421,1886467544,-1.42958629131317,0.00879605673254,21.05453300476074,0.01141579542309,-0.35994902253151,9.77046775817871,-5.30228757858276,0.06336961686611,-0.34841760993004
422,1886475877,-1.42966425418854,0.00840753596276,21.05428504943848,-0.00867432914674,-0.34830865263939,9.78713321685791,-5.42134284973145,0.04344174638391,-0.41747364401817
423,1886484210,-1.42952668666840,0.00763820670545,21.05424118041992,0.00881547667086,-0.34301292896271,9.76614856719971,-5.36564493179321,-0.00156246835832,-0.38247179985046
424,1886492543,-1.42971539497375,0.00805057864636,21.05433273315430,0.00080168590648,-0.35458293557167,9.76927852630615,-5.43376493453979,0.13990493118763,-0.37285357713699
425,1886500876,-1.43026113510132,0.00786741729826,21.05409240722656,0.00980536267161,-0.35879111289978,9.78850460052490,-5.44800662994385,0.07015738636255,-0.41542449593544
426,1886509209,-1.42974638938904,0.00797883514315,21.05364608764648,-0.00273011019453,-0.34394037723541,9.80358505249023,-5.34849596023560,0.10435239970684,-0.43806746602058
427,1886517542,-1.42939925193787,0.00754335802048,21.05373573303223,-0.01031182240695,-0.33517834544182,9.80511188507080,-5.34035015106201,0.03959960490465,-0.37234127521515
428,1886525875,-1.42942488193512,0.00744645390660,21.05344390869141,0.00246634008363,-0.33543649315834,9.80494880676270,-5.41437530517578,0.07932729274035,-0.42141824960709
429,1886534208,-1.43012547492981,0.00702530331910,21.05295753479004,0.00217079836875,-0.33198404312134,9.79356479644775,-5.46561670303345,0.04202015325427,-0.44740384817123
430,1886542541,-1.43064820766449,0.00688050873578,21.05365753173828,-0.00937481131405,-0.35052856802940,9.80414295196533,-5.47404384613037,0.07109230756760,-0.30114653706551
431,1886550874,-1.43079388141632,0.00598433986306,21.05450630187988,-0.01509355846792,-0.36410489678383,9.78073215484619,-5.39894294738770,-0.01895453408360,-0.29143878817558
432,1886559207,-1.43015861511230,0.00629532663152,21.05536842346191,-0.00452258111909,-0.36134928464890,9.79408645629883,-5.33440828323364,0.12497186660767,-0.27954095602036
433,1886567540,-1.43010723590851,0.00623577600345,21.05584144592285,-0.00115809612907,-0.34170964360237,9.80756378173828,-5.37580060958862,0.08275960385799,-0.33120489120483
434,1886575873,-1.42999005317688,0.00663406169042,21.05551528930664,0.01322680246085,-0.34274286031723,9.80760765075684,-5.39725208282471,0.13822720944881,-0.42304468154907
435,1886584206,-1.42980110645294,0.00678011029959,21.05536460876465,0.00124993268400,-0.35668218135834,9.80191421508789,-5.35962581634521,0.10976981371641,-0.40129822492599
436,1886592539,-1.43032252788544,0.00686260592192,21.05509376525879,0.00926939956844,-0.33355796337128,9.80374908447266,-5.47363424301147,0.10106096416712,-0.41848537325859
437,1886600872,-1.43089711666107,0.00600757822394,21.05558395385742,0.01744101941586,-0.34701478481293,9.79819297790527,-5.44963359832764,-0.01347308885306,-0.32084396481514
438,1886609205,-1.43049430847168,0.00768142845482,21.05622673034668,0.01140825171024,-0.34915319085121,9.79986476898193,-5.36365938186646,0.28992751240730,-0.30415624380112
439,1886617538,-1.43136322498322,0.00731766829267,21.05618476867676,0.00553554482758,-0.34380429983139,9.78978443145752,-5.48594141006470,0.04759125038981,-0.40502509474754
440,1886625871,-1.43057179450989,0.00770784262568,21.05603218078613,0.00391849596053,-0.33033421635628,9.77272605895996,-5.31657981872559,0.13729228079319,-0.40333455801010
441,1886634204,-1.43087208271027,0.00714934058487,21.05579757690430,0.00835438445210,-0.35000777244568,9.79553127288818,-5.41869115829468,0.02575511299074,-0.42460715770721
442,1886642537,-1.43087518215179,0.00710270320997,21.05541419982910,-0.02554109692574,-0.35078758001328,9.82259654998779,-5.41154479980469,0.08615347743034,-0.43103632330894
443,1886650870,-1.43076384067535,0.00799961946905,21.05571556091309,-0.01541388034821,-0.36537808179855,9.81143188476562,-5.36912870407104,0.19826699793339,-0.36013618111610
444,1886659203,-1.43047475814819,0.00857762340456,21.05563354492188,0.01247473806143,-0.34672459959984,9.79542446136475,-5.37630033493042,0.15871861577034,-0.39387008547783
445,1886667536,-1.43067240715027,0.00767857348546,21.05514526367188,-0.00809143949300,-0.33327460289001,9.76903533935547,-5.40532112121582,-0.01411344390363,-0.44502174854279
446,1886675869,-1.43001449108124,0.00843600369990,21.05559921264648,0.00355844688602,-0.35162100195885,9.80494880676270,-5.33198690414429,0.17967103421688,-0.32816955447197
447,1886684202,-1.43051576614380,0.00717823533341,21.05594444274902,-0.01473518926650,-0.34383237361908,9.81018257141113,-5.44169282913208,-0.06144854426384,-0.34945502877235
448,1886692535,-1.43008518218994,0.00738778337836,21.05633354187012,-0.00472785579041,-0.35714793205261,9.78777980804443,-5.35930490493774,0.11487983167171,-0.33853054046631
449,1886700868,-1.43045878410339,0.00763537781313,21.05669403076172,0.00125057646073,-0.34983432292938,9.80522251129150,-5.42623424530029,0.11902935057878,-0.33717298507690
450,1886709201,-1.43085920810699,0.00890024378896,21.05625343322754,-0.00704783340916,-0.34372413158417,9.80256557464600,-5.45913600921631,0.24329681694508,-0.43467354774475
451,1886717534,-1.43127679824829,0.00958969257772,21.05579948425293,0.00261013559066,-0.37128937244415,9.80181121826172,-5.43224143981934,0.17654611170292,-0.44366413354874
452,1886725867,-1.43099415302277,0.00980484299362,21.05595207214355,0.01548732817173,-0.35180184245110,9.78135204315186,-5.37658166885376,0.11476457864046,-0.36536145210266
453,1886734200,-1.43145334720612,0.01084041874856,21.05575561523438,0.00160966999829,-0.34177076816559,9.75180912017822,-5.43749237060547,0.21624816954136,-0.40744563937187
454,1886742533,-1.43092715740204,0.01159472670406,21.05594635009766,0.00076351506868,-0.37255662679672,9.78262424468994,-5.34765052795410,0.18047790229321,-0.35991841554642
455,1886750866,-1.43079853057861,0.01103803981096,21.05538940429688,-0.01233777031302,-0.35820475220680,9.82090473175049,-5.36595201492310,0.02542213164270,-0.45344886183739
456,1886759199,-1.43002521991730,0.00984971970320,21.05581092834473,-0.01611205190420,-0.35093760490417,9.78123569488525,-5.31915426254272,-0.05345690622926,-0.33910682797432
457,1886767532,-1.43065512180328,0.00924188643694,21.05553245544434,-0.02164710871875,-0.35977330803871,9.77196025848389,-5.45684385299683,0.01956927776337,-0.42971724271774
458,1886775865,-1.43151140213013,0.00859894137830,21.05478668212891,0.00867774430662,-0.34881117939949,9.80072593688965,-5.51382255554199,0.01493309810758,-0.47719320654869
459,1886784198,-1.43134784698486,0.00941186770797,21.05452537536621,-0.00829019024968,-0.35083603858948,9.79471397399902,-5.36210918426514,0.19050587713718,-0.42132851481438
460,1886792531,-1.43151760101318,0.00957717932761,21.05462837219238,-0.01707416027784,-0.33976066112518,9.79699420928955,-5.43236970901489,0.10841225832701,-0.37335312366486
461,1886800864,-1.43170702457428,0.00992565322667,21.05456733703613,-0.00395932374522,-0.34154674410820,9.78724288940430,-5.40415525436401,0.13452596962452,-0.39449766278267
462,1886809197,-1.43112206459045,0.01054274383932,21.05401039123535,-0.01305098552257,-0.35276088118553,9.78256797790527,-5.34095239639282,0.16578815877438,-0.45086181163788
463,1886817530,-1.43080377578735,0.01060763187706,21.05293846130371,-0.00068032427225,-0.34895458817482,9.76244068145752,-5.34323167800903,0.10190623253584,-0.51418012380600
464,1886825863,-1.43017470836639,0.00981044676155,21.05353164672852,-0.00423516798764,-0.34799212217331,9.79212474822998,-5.33603429794312,-0.00817094091326,-0.31730917096138
465,1886834196,-1.43002116680145,0.00957645848393,21.05429077148438,-0.01223117765039,-0.36433476209641,9.77684020996094,-5.36290311813354,0.06215294077992,-0.29546022415161
466,1886842529,-1.43021082878113,0.00996196456254,21.05448913574219,0.00218440406024,-0.34978121519089,9.79971599578857,-5.43450832366943,0.13549929857254,-0.36058437824249
467,1886850862,-1.43060541152954,0.00971012748778,21.05391120910645,0.00604807725176,-0.35176697373390,9.82254695892334,-5.42920589447021,0.06311347335577,-0.45328235626221
468,1886859195,-1.43087661266327,0.00980759132653,21.05339813232422,-0.00217679725029,-0.33211320638657,9.81557273864746,-5.44363975524902,0.10331501811743,-0.44643053412437
469,1886867528,-1.43103015422821,0.00874242838472,21.05310630798340,0.01906153559685,-0.35688441991806,9.77146530151367,-5.39962196350098,-0.03561659902334,-0.42999899387360
470,1886875861,-1.43050575256348,0.00788964238018,21.05263519287109,-0.01201970130205,-0.34231552481651,9.81628990173340,-5.34812402725220,-0.01109096314758,-0.44499608874321
471,1886884194,-1.43060982227325,0.00783708225936,21.05344963073730,-0.03061414323747,-0.35875338315964,9.82762145996094,-5.39543390274048,0.08282362669706,-0.28249940276146
472,1886892527,-1.42969286441803,0.00777550414205,21.05344963073730,-0.02542674355209,-0.36367160081863,9.78500843048096,-5.30151939392090,0.08252906799316,-0.38612180948257
473,1886900860,-1.43072009086609,0.00692357076332,21.05440711975098,0.00824843160808,-0.34408950805664,9.81478214263916,-5.50534486770630,-0.01326817460358,-0.29156684875488
474,1886909193,-1.43074202537537,0.00741494400427,21.05414390563965,-0.01884023845196,-0.33916124701500,9.79894638061523,-5.41285133361816,0.15031714737415,-0.41379797458649
475,1886917526,-1.43076610565186,0.00804927200079,21.05407142639160,-0.01622116379440,-0.36900931596756,9.82077980041504,-5.38485527038574,0.16837517917156,-0.39912098646164
476,1886925859,-1.43089365959167,0.00846751406789,21.05353736877441,-0.02998999878764,-0.35762336850166,9.81474781036377,-5.42695188522339,0.14008426666260,-0.44900473952293
477,1886934192,-1.43147230148315,0.00805567577481,21.05346488952637,0.02065945416689,-0.35217139124870,9.81587982177734,-5.45072221755981,0.04277577623725,-0.39068111777306
478,1886942525,-1.43054139614105,0.00827776268125,21.05319786071777,-0.01417088788003,-0.34651488065720,9.80067253112793,-5.29944372177124,0.11692898720503,-0.41703814268112
479,1886950858,-1.43088495731354,0.00778260128573,21.05375862121582,0.01501520443708,-0.34952321648598,9.80327701568604,-5.42273855209351,0.03072427213192,-0.32934784889221
480,1886959191,-1.43134748935699,0.00743666198105,21.05387687683105,-0.01623952761292,-0.33418688178062,9.81213283538818,-5.46670532226562,0.04851336032152,-0.37259745597839
481,1886967524,-1.43085396289825,0.00661805318668,21.05342292785645,0.02625213004649,-0.36952602863312,9.79038429260254,-5.32101154327393,-0.00544302491471,-0.43937376141548
482,1886975857,-1.43043100833893,0.00678443256766,21.05247116088867,0.01357557252049,-0.35872551798820,9.79213619232178,-5.36105966567993,0.11197264492512,-0.50037407875061
483,1886984190,-1.43032824993134,0.00683304434642,21.05243873596191,0.00763045251369,-0.34638240933418,9.81285572052002,-5.36882019042969,0.09801287204027,-0.37757942080498
484,1886992523,-1.43052470684052,0.00701788673177,21.05271530151367,0.00498333480209,-0.34412339329720,9.79724979400635,-5.43522548675537,0.11070472002029,-0.35172188282013
485,1887000856,-1.43063712120056,0.00659569492564,21.05317115783691,-0.00885316077620,-0.34844905138016,9.78942203521729,-5.39595937728882,0.04008628427982,-0.33361262083054
486,1887009189,-1.43043911457062,0.00627011386678,21.05434036254883,-0.00259491684847,-0.35773473978043,9.79956054687500,-5.38771152496338,0.04815476015210,-0.24693404138088
487,1887017522,-1.43001842498779,0.00588303431869,21.05377197265625,-0.00187302462291,-0.35817143321037,9.80122661590576,-5.33084726333618,0.04536281153560,-0.44831317663193
488,1887025855,-1.43006956577301,0.00618647038937,21.05430030822754,-0.00015659205383,-0.33999252319336,9.80767250061035,-5.41793584823608,0.12535606324673,-0.32172754406929
489,1887034188,-1.43049025535583,0.00625226506963,21.05437278747559,-0.01826179213822,-0.34935310482979,9.80161094665527,-5.43292045593262,0.09902464598417,-0.38568636775017
490,1887042521,-1.42977011203766,0.00538432411849,21.05446052551270,-0.01609569601715,-0.35973086953163,9.78767108917236,-5.32480287551880,-0.01410063542426,-0.37797644734383
491,1887050854,-1.42929017543793,0.00513752968982,21.05452156066895,0.00515958154574,-0.34548211097717,9.80272579193115,-5.32384204864502,0.06005257740617,-0.36272320151329
492,1887059187,-1.42821562290192,0.00526311434805,21.05384826660156,0.01090840715915,-0.35003599524498,9.77361869812012,-5.28316640853882,0.10661924630404,-0.46610221266747
493,1887067520,-1.42819285392761,0.00562594132498,21.05345726013184,-0.00561306625605,-0.34825840592384,9.77634620666504,-5.37907886505127,0.13711299002171,-0.42692524194717
494,1887075853,-1.42883348464966,0.00649449601769,21.05322074890137,-0.00437497533858,-0.35347756743431,9.79232692718506,-5.48722219467163,0.19461694359779,-0.41132619976997
495,1887084186,-1.42882120609283,0.00647253822535,21.05336761474609,0.00280236126855,-0.34375452995300,9.76719284057617,-5.38033437728882,0.08806173503399,-0.37170094251633
496,1887092519,-1.42803478240967,0.00601905072108,21.05421257019043,0.01652126759291,-0.35075449943542,9.79282283782959,-5.31679821014404,0.03297832608223,-0.28536820411682
497,1887100852,-1.42844605445862,0.00564328394830,21.05467796325684,0.00682890415192,-0.33809730410576,9.79198741912842,-5.43046188354492,0.04625931382179,-0.33640459179878
498,1887109185,-1.42808437347412,0.00544814299792,21.05533218383789,-0.00731202587485,-0.34864732623100,9.80366897583008,-5.36762952804565,0.06495770066977,-0.30710187554359
499,1887117518,-1.42815911769867,0.00556964613497,21.05491256713867,0.00350661901757,-0.35312736034393,9.80631637573242,-5.38968324661255,0.10637591779232,-0.42444065213203
500,1887125851,-1.42840945720673,0.00626581860706,21.05548095703125,0.00768838264048,-0.34298238158226,9.81533336639404,-5.44152641296387,0.17094939947128,-0.31478613615036
501,1887134184,-1.42884492874146,0.00657096225768,21.05613136291504,-0.00748123135418,-0.36343729496002,9.81464481353760,-5.43408632278442,0.12744364142418,-0.33687844872475
502,1887142517,-1.42787456512451,0.00674820039421,21.05635070800781,-0.00865266099572,-0.34380310773849,9.79435062408447,-5.29551219940186,0.10982102900743,-0.35990560054779
503,1887150850,-1.42829072475433,0.00645098090172,21.05534934997559,-0.01053474564105,-0.36687415838242,9.78774356842041,-5.43176794052124,0.05939940735698,-0.51155465841293
504,1887159183,-1.42785167694092,0.00590744661167,21.05526351928711,-0.02014956437051,-0.35117074847221,9.80135822296143,-5.35802412033081,0.02443598024547,-0.39667484164238
505,1887167516,-1.42732727527618,0.00592062668875,21.05483627319336,-0.02136329002678,-0.36465460062027,9.76467990875244,-5.31880855560303,0.09446529299021,-0.43568536639214
506,1887175849,-1.42689228057861,0.00694326078519,21.05512046813965,0.01180653087795,-0.34230396151543,9.81530284881592,-5.35897159576416,0.21131742000580,-0.34869942069054
507,1887184182,-1.42650699615479,0.00666332989931,21.05613708496094,-0.01126281823963,-0.34272342920303,9.77013874053955,-5.33543252944946,0.05599272251129,-0.26350647211075
508,1887192515,-1.42525780200958,0.00763161666691,21.05661582946777,0.02409460954368,-0.33694189786911,9.78800010681152,-5.26167583465576,0.20431195199490,-0.32581305503845
509,1887200848,-1.42569506168365,0.00838813930750,21.05730247497559,-0.01109475456178,-0.34134298563004,9.79333877563477,-5.43425226211548,0.18009370565414,-0.28822419047356
510,1887209181,-1.42505669593811,0.00787510164082,21.05754852294922,0.01292253937572,-0.35965272784233,9.78529644012451,-5.33453655242920,0.02707424759865,-0.35804861783981
511,1887217514,-1.42472386360168,0.00729128019884,21.05801391601562,0.01745400205255,-0.35163727402687,9.78235340118408,-5.34189939498901,0.02070911042392,-0.33562329411507
512,1887225847,-1.42455053329468,0.00727503187954,21.05801582336426,0.00719410553575,-0.33740571141243,9.79559230804443,-5.38986253738403,0.08836910873652,-0.38432878255844
513,1887234180,-1.42505002021790,0.00708250608295,21.05783462524414,-0.01223170291632,-0.35941869020462,9.76842498779297,-5.44087362289429,0.06883826106787,-0.41300392150879
514,1887242513,-1.42463600635529,0.00567425973713,21.05773735046387,-0.00301841506734,-0.33876845240593,9.79496192932129,-5.36144399642944,-0.07904553413391,-0.40114453434944
515,1887250846,-1.42520427703857,0.00554488645867,21.05836105346680,0.00118848041166,-0.34815362095833,9.78343009948730,-5.44960784912109,0.07344881445169,-0.31884601712227
516,1887259179,-1.42466068267822,0.00529315648600,21.05852890014648,-0.01340840198100,-0.35653927922249,9.76475524902344,-5.34604978561401,0.06007819250226,-0.36615553498268
517,1887267512,-1.42485642433167,0.00511386385188,21.05867576599121,-0.00391458254308,-0.36591935157776,9.78320026397705,-5.40400171279907,0.06882545351982,-0.36652690172195
518,1887275845,-1.42535960674286,0.00562655506656,21.05840873718262,-0.00827448535711,-0.35108906030655,9.79981613159180,-5.47098302841187,0.15230223536491,-0.41588550806046
519,1887284178,-1.42581844329834,0.00526703661308,21.05850791931152,-0.02103103697300,-0.33524009585381,9.78040027618408,-5.43763303756714,0.04654106870294,-0.35763874650002
520,1887292511,-1.42623245716095,0.00460456125438,21.05849075317383,0.01238361280411,-0.34718760848045,9.76225852966309,-5.46168470382690,0.01075797807425,-0.39042496681213
521,1887300844,-1.42671287059784,0.00481149507686,21.05817604064941,-0.00574938533828,-0.32823440432549,9.77552604675293,-5.43957996368408,0.11790231615305,-0.41358026862144
522,1887309177,-1.42698407173157,0.00460936408490,21.05813789367676,-0.01030596811324,-0.35153448581696,9.80101680755615,-5.44354963302612,0.06511138379574,-0.39109095931053
523,1887317510,-1.42733025550842,0.00531823607162,21.05787277221680,-0.00521052489057,-0.35196402668953,9.82118797302246,-5.42422389984131,0.17751944065094,-0.41454076766968
524,1887325843,-1.42789173126221,0.00559653993696,21.05814933776855,-0.00225474708714,-0.34666976332664,9.79806518554688,-5.47864055633545,0.12212866544724,-0.35110709071159
525,1887334176,-1.42873656749725,0.00665815407410,21.05779457092285,-0.00221775309183,-0.33022403717041,9.79300785064697,-5.48363637924194,0.21984696388245,-0.42070099711418
526,1887342509,-1.42869663238525,0.00672861700878,21.05743598937988,0.00976369809359,-0.35238018631935,9.79109477996826,-5.40671682357788,0.09907586127520,-0.42779618501663
527,1887350842,-1.42980980873108,0.00645602308214,21.05684471130371,-0.01052273716778,-0.35805863142014,9.83001422882080,-5.51460409164429,0.06129485741258,-0.45320552587509
528,1887359175,-1.42975389957428,0.00651453295723,21.05679702758789,0.00033004293800,-0.36732161045074,9.81019401550293,-5.40364313125610,0.09666813164949,-0.39083480834961
529,1887367508,-1.43040144443512,0.00562911666930,21.05684089660645,-0.00080321333371,-0.35956576466560,9.80244541168213,-5.45870065689087,-0.01488186977804,-0.38306087255478
530,1887375841,-1.43050992488861,0.00461894273758,21.05690574645996,-0.00489863706753,-0.33637374639511,9.81208038330078,-5.42530012130737,-0.03071146644652,-0.38129350543022
531,1887384174,-1.43072235584259,0.00320928171277,21.05603218078613,0.00723071489483,-0.34453198313713,9.78304481506348,-5.40593576431274,-0.07645848393440,-0.48674729466438
532,1887392507,-1.43111455440521,0.00410064868629,21.05508041381836,-0.01987707801163,-0.37069445848465,9.80515956878662,-5.45871353149414,0.19968858361244,-0.49721077084541
533,1887400840,-1.43133270740509,0.00393787072971,21.05457115173340,0.00382270873524,-0.35003611445427,9.79827690124512,-5.40766429901123,0.07376899570227,-0.43460950255394
534,1887409173,-1.43111515045166,0.00275750225410,21.05513381958008,0.00119761016686,-0.37235441803932,9.80687236785889,-5.38480424880981,-0.05448148027062,-0.32110005617142
535,1887417506,-1.43116641044617,0.00253757531755,21.05483436584473,0.01332604698837,-0.34374091029167,9.81357192993164,-5.38712167739868,0.06626401841640,-0.42339047789574
536,1887425839,-1.43092644214630,0.00297270645387,21.05504798889160,-0.01722715795040,-0.34295651316643,9.81565284729004,-5.38193511962891,0.14122408628464,-0.35882982611656
537,1887434172,-1.43186414241791,0.00244870292954,21.05398178100586,-0.00258425902575,-0.34638115763664,9.80006217956543,-5.49453544616699,0.03172323107719,-0.50647026300430
538,1887442505,-1.43130898475647,0.00214518629946,21.05393218994141,0.01028054393828,-0.36398717761040,9.81304836273193,-5.34484577178955,0.05265006422997,-0.39279434084892
539,1887450838,-1.43144047260284,0.00256985868327,21.05383682250977,-0.00526053085923,-0.35140129923820,9.78460025787354,-5.39775180816650,0.14341409504414,-0.37313535809517
540,1887459171,-1.43108046054840,0.00241713994183,21.05428123474121,-0.00199327734299,-0.35013657808304,9.81284618377686,-5.36737346649170,0.07010616362095,-0.33158910274506
541,1887467504,-1.43114650249481,0.00240838876925,21.05443382263184,-0.01188424602151,-0.33382326364517,9.80798149108887,-5.38993978500366,0.08952175825834,-0.35028746724129
542,1887475837,-1.43164026737213,0.00268503814004,21.05406188964844,-0.00471415370703,-0.35224884748459,9.78460884094238,-5.47085428237915,0.12353744357824,-0.42992210388184
543,1887484170,-1.43106651306152,0.00253893597983,21.05374145507812,0.00409907242283,-0.35427072644234,9.77614212036133,-5.31284046173096,0.07556199282408,-0.42656663060188
544,1887492503,-1.43099975585938,0.00267999572679,21.05444335937500,0.00394835229963,-0.36090454459190,9.80719184875488,-5.40395021438599,0.10494151711464,-0.30149233341217
545,1887500836,-1.43106126785278,0.00275486102328,21.05488777160645,-0.01486635766923,-0.37049108743668,9.80853939056396,-5.38791561126709,0.09981867671013,-0.33955511450768
546,1887509169,-1.42999780178070,0.00365817989223,21.05512619018555,-0.00068301660940,-0.31869485974312,9.77823734283447,-5.28435754776001,0.19687099754810,-0.35556399822235
547,1887517502,-1.43012475967407,0.00446734391153,21.05525970458984,-0.00552692171186,-0.33797216415405,9.77549266815186,-5.39602279663086,0.18704795837402,-0.36428564786911
548,1887525835,-1.43071317672729,0.00438660895452,21.05537986755371,0.01529781613499,-0.35274413228035,9.77330780029297,-5.48215103149414,0.08122275024652,-0.37085571885109
549,1887534168,-1.43101882934570,0.00453882105649,21.05527687072754,0.00308253499679,-0.35003602504730,9.80688953399658,-5.41744899749756,0.10911665111780,-0.39580395817757
550,1887542501,-1.43092942237854,0.00441929232329,21.05519104003906,-0.00070750794839,-0.33741879463196,9.83342361450195,-5.40110731124878,0.07517778873444,-0.39652118086815
551,1887550834,-1.43100142478943,0.00461518019438,21.05538940429688,-0.00396825373173,-0.35289472341537,9.77960586547852,-5.39014482498169,0.11467494070530,-0.35707527399063
552,1887559167,-1.43026030063629,0.00432404363528,21.05419921875000,0.00329941650853,-0.35842725634575,9.77168560028076,-5.32211303710938,0.05742711573839,-0.52968961000443
553,1887567500,-1.43018078804016,0.00478385435417,21.05447387695312,0.01121584977955,-0.34271600842476,9.78977394104004,-5.37267541885376,0.14674396812916,-0.35940617322922
554,1887575833,-1.43105149269104,0.00422183051705,21.05505943298340,0.01237466931343,-0.34430372714996,9.77793884277344,-5.51475763320923,0.02166964299977,-0.31683528423309
555,1887584166,-1.43152260780334,0.00444698659703,21.05535697937012,0.00859200954437,-0.35466733574867,9.78786182403564,-5.43764543533325,0.11689056456089,-0.36397826671600
556,1887592499,-1.43194913864136,0.00513574201614,21.05521202087402,0.00756193045527,-0.34237569570541,9.80132865905762,-5.46301698684692,0.17243503034115,-0.40184894204140
557,1887600832,-1.43281459808350,0.00487056514248,21.05448532104492,0.00604201853275,-0.35224923491478,9.78066730499268,-5.48514795303345,0.06319032609463,-0.46813854575157
558,1887609165,-1.43287563323975,0.00441689137369,21.05380058288574,-0.00660244747996,-0.33311590552330,9.77647495269775,-5.41797399520874,0.03753766417503,-0.46802335977554
559,1887617498,-1.43319988250732,0.00393928494304,21.05375480651855,-0.00671479664743,-0.35964426398277,9.78208065032959,-5.42038202285767,0.03400289639831,-0.42212259769440
560,1887625831,-1.43313050270081,0.00378894084133,21.05390167236328,-0.01070422772318,-0.35828965902328,9.80529117584229,-5.40236234664917,0.07077212631702,-0.36721849441528
561,1887634164,-1.43333399295807,0.00418474478647,21.05394935607910,0.00103065615986,-0.35128211975098,9.77678298950195,-5.40733146667480,0.13926458358765,-0.39839097857475
562,1887642497,-1.43333685398102,0.00302067818120,21.05397605895996,0.00213962490670,-0.36504361033440,9.75337982177734,-5.41084098815918,-0.05029355362058,-0.38445687294006
563,1887650830,-1.43350684642792,0.00288247317076,21.05372047424316,-0.01992589421570,-0.36681362986565,9.79159641265869,-5.40182447433472,0.07553638517857,-0.41539886593819
564,1887659163,-1.43355822563171,0.00271462695673,21.05372047424316,-0.00560297351331,-0.36072441935539,9.80624198913574,-5.41711616516113,0.07000371813774,-0.38586565852165
565,1887667496,-1.43381249904633,0.00315810902975,21.05399322509766,-0.00611963449046,-0.35227677226067,9.79143810272217,-5.41127586364746,0.14408007264137,-0.34813588857651
566,1887675829,-1.43338859081268,0.00298692728393,21.05354309082031,-0.00911522656679,-0.35651203989983,9.79561233520508,-5.35998392105103,0.07109231501818,-0.43995013833046
567,1887684162,-1.43315851688385,0.00305378832854,21.05369377136230,0.00409531593323,-0.32533183693886,9.80043125152588,-5.35347700119019,0.09870444238186,-0.36213403940201
568,1887692495,-1.43310415744781,0.00380473560654,21.05334091186523,0.00728240702301,-0.35028398036957,9.79337787628174,-5.40462923049927,0.18179702758789,-0.42650261521339
569,1887700828,-1.43365812301636,0.00505129853263,21.05281448364258,-0.00731825036928,-0.35279813408852,9.77239131927490,-5.44711112976074,0.24126051366329,-0.43215060234070
570,1887709161,-1.43347096443176,0.00504702981561,21.05331993103027,-0.01233346015215,-0.36089003086090,9.78280067443848,-5.38901758193970,0.08757507055998,-0.32572343945503
571,1887717494,-1.43404555320740,0.00498777301982,21.05376815795898,0.00548095908016,-0.35409772396088,9.80823326110840,-5.45067071914673,0.08342555910349,-0.33156344294548
572,1887725827,-1.43379807472229,0.00474276626483,21.05394554138184,0.02035366557539,-0.36226686835289,9.78925228118896,-5.38180685043335,0.05982205271721,-0.36610427498817
573,1887734160,-1.43441855907440,0.00427263043821,21.05401420593262,-0.00794647261500,-0.36611783504486,9.79051113128662,-5.45548629760742,0.03411816433072,-0.35743385553360
574,1887742493,-1.43479835987091,0.00324788829312,21.05475616455078,-0.00496188318357,-0.34286892414093,9.81448936462402,-5.45743322372437,-0.03530922532082,-0.30049338936806
575,1887750826,-1.42738080024719,0.00596769107506,21.05718612670898,0.00465662265196,-0.34703630208969,9.78008937835693,-5.41911411285400,0.11856828629971,-0.37866804003716
576,1887759159,-1.42764127254486,0.00536847533658,21.05663681030273,0.00090632948559,-0.34487769007683,9.80576801300049,-5.44362688064575,0.01905699260533,-0.45394831895828
577,1887767492,-1.42822802066803,0.00567417964339,21.05644226074219,0.01818495616317,-0.36242806911469,9.78221607208252,-5.45010709762573,0.12840417027473,-0.39977416396141
578,1887775825,-1.42771220207214,0.00602990994230,21.05595016479492,-0.01220695301890,-0.34445038437843,9.79812049865723,-5.35077524185181,0.13455158472061,-0.44424051046371
579,1887784158,-1.42794513702393,0.00618102774024,21.05558586120605,-0.02052873000503,-0.35751751065254,9.79836750030518,-5.40966224670410,0.11001314222813,-0.42572143673897
580,1887792491,-1.42777216434479,0.00586409121752,21.05654907226562,-0.00439727306366,-0.35678416490555,9.81383895874023,-5.39209079742432,0.04884634912014,-0.27283003926277
581,1887800824,-1.42769253253937,0.00622566463426,21.05694770812988,-0.00047013221774,-0.34183052182198,9.80021762847900,-5.37141990661621,0.13232313096523,-0.32546725869179
582,1887809157,-1.42660808563232,0.00696183089167,21.05729293823242,0.01174074225128,-0.35520312190056,9.78680610656738,-5.28154039382935,0.17827507853508,-0.34132251143456
583,1887817490,-1.42587089538574,0.00701556494460,21.05773162841797,-0.01380785088986,-0.33060452342033,9.79802417755127,-5.29371929168701,0.09545144438744,-0.33416330814362
584,1887825823,-1.42612767219543,0.00640431605279,21.05719757080078,-0.03391361609101,-0.34459012746811,9.76027011871338,-5.44381904602051,0.01883927173913,-0.45168143510818
585,1887834156,-1.42559170722961,0.00596641050652,21.05721664428711,-0.00019548714045,-0.35228466987610,9.79022026062012,-5.31627368927002,0.03680765628815,-0.37052273750305
586,1887842489,-1.42508888244629,0.00633342657238,21.05776786804199,0.02738252468407,-0.34989884495735,9.82224559783936,-5.35247850418091,0.13190050423145,-0.31948637962341
587,1887850822,-1.42514729499817,0.00592628307641,21.05834007263184,0.00202519213781,-0.36167290806770,9.81954479217529,-5.38719844818115,0.04077785834670,-0.30233758687973
588,1887859155,-1.42489993572235,0.00538805872202,21.05834388732910,-0.00618909252807,-0.33889326453209,9.79838085174561,-5.38266563415527,0.02645950578153,-0.38791477680206
589,1887867488,-1.42580163478851,0.00457465276122,21.05889129638672,0.01055734883994,-0.34841838479042,9.80272865295410,-5.49148702621460,-0.00937481038272,-0.33388155698776
590,1887875821,-1.42534554004669,0.00465552089736,21.05878829956055,0.01472583413124,-0.35815009474754,9.81837272644043,-5.35651302337646,0.09917832165956,-0.39698225259781
591,1887884154,-1.42496359348297,0.00480047566816,21.05948066711426,-0.00223505776376,-0.35708302259445,9.82756328582764,-5.33612442016602,0.10665766894817,-0.29275792837143
592,1887892487,-1.42550337314606,0.00442486861721,21.05895233154297,0.02768981456757,-0.35284328460693,9.80177593231201,-5.47687482833862,0.04669475555420,-0.45143809914589
593,1887900820,-1.42508852481842,0.00491794990376,21.05908966064453,-0.01307982206345,-0.33921128511429,9.83224105834961,-5.33216667175293,0.15114960074425,-0.37545347213745
594,1887909153,-1.42544972896576,0.00538317626342,21.05905723571777,0.00720867048949,-0.35503587126732,9.79778957366943,-5.45453929901123,0.14405447244644,-0.38763305544853
595,1887917486,-1.42547869682312,0.00529830576852,21.05875205993652,-0.00347314914688,-0.33632138371468,9.78871822357178,-5.38543128967285,0.08314381539822,-0.43348255753517
596,1887925819,-1.42568254470825,0.00476787239313,21.05897521972656,0.01141574233770,-0.37011429667473,9.79231834411621,-5.43682622909546,0.02452563121915,-0.36123755574226
597,1887934152,-1.42583417892456,0.00523656746373,21.05852890014648,-0.00085653166752,-0.36417716741562,9.79036140441895,-5.39948081970215,0.14980486035347,-0.44071856141090
598,1887942485,-1.42585587501526,0.00546196382493,21.05863380432129,0.00372060458176,-0.34557634592056,9.78822231292725,-5.41506719589233,0.11657037585974,-0.37313535809517
599,1887950818,-1.42650008201599,0.00589605420828,21.05956077575684,-0.00152630801313,-0.31957355141640,9.80247402191162,-5.45822668075562,0.14075021445751,-0.27703076601028
600,1887959151,-1.42682766914368,0.00664438679814,21.05935096740723,-0.00604117894545,-0.36432918906212,9.82407379150391,-5.45105552673340,0.18068282306194,-0.40935388207436
601,1887967484,-1.42687177658081,0.00679729226977,21.06045913696289,0.01985415443778,-0.35990884900093,9.76617050170898,-5.38724994659424,0.10622222721577,-0.25897270441055
602,1887975817,-1.42701601982117,0.00766080431640,21.05986022949219,-0.00254589063115,-0.35612389445305,9.81868362426758,-5.43001270294189,0.19539818167686,-0.45654809474945
603,1887984150,-1.42750692367554,0.00791154801846,21.05980491638184,0.00658063543960,-0.36006245017052,9.78607177734375,-5.44083547592163,0.12036129832268,-0.38978466391563
604,1887992483,-1.42799973487854,0.00802107062191,21.05996894836426,-0.00494634034112,-0.33632051944733,9.82606506347656,-5.47041940689087,0.10345589369535,-0.36519494652748
605,1888000816,-1.42843389511108,0.00831004604697,21.05982017517090,0.00327204051428,-0.35302680730820,9.82434940338135,-5.43448257446289,0.12589396536350,-0.40474337339401
606,1888009149,-1.42800819873810,0.00838792603463,21.05957794189453,-0.00663957139477,-0.34337127208710,9.80653381347656,-5.36015033721924,0.09925515949726,-0.41406694054604
607,1888017482,-1.42740523815155,0.00932550337166,21.05950164794922,-0.00847537629306,-0.36029073596001,9.80466556549072,-5.31026601791382,0.20551580190659,-0.39563748240471
608,1888025815,-1.42777335643768,0.00895795319229,21.05921173095703,0.00323437713087,-0.35824862122536,9.76664543151855,-5.45544862747192,0.04555492103100,-0.42140540480614
609,1888034148,-1.42795765399933,0.00915322732180,21.05960464477539,0.00216194288805,-0.33159893751144,9.81981277465820,-5.40482139587402,0.11367597430944,-0.35379666090012
610,1888042481,-1.42814636230469,0.00971682462841,21.05991554260254,-0.00239308830351,-0.35802218317986,9.79821777343750,-5.43343257904053,0.15591382980347,-0.34526705741882
611,1888050814,-1.42795181274414,0.01027140486985,21.05995750427246,-0.00226103514433,-0.35199207067490,9.78511428833008,-5.35893344879150,0.15871861577034,-0.37599134445190
612,1888059147,-1.42748677730560,0.01019555144012,21.05967712402344,-0.00747821945697,-0.33599624037743,9.79816627502441,-5.35586023330688,0.08113308995962,-0.41984289884567
613,1888067480,-1.42796123027802,0.00947587471455,21.05993843078613,-0.01287547964603,-0.35695892572403,9.83359622955322,-5.43956708908081,0.00349634350277,-0.37586331367493
614,1888075813,-1.42756712436676,0.00941680371761,21.05999755859375,0.00400729244575,-0.33522087335587,9.81361770629883,-5.36390209197998,0.08236256986856,-0.37832224369049
615,1888084146,-1.42864966392517,0.00999216735363,21.05961418151855,0.02734166197479,-0.35329630970955,9.81225585937500,-5.51231145858765,0.16209967434406,-0.42268612980843
616,1888092479,-1.42858242988586,0.01043156720698,21.05886268615723,0.00140814506449,-0.36151751875877,9.81072616577148,-5.40332317352295,0.14455394446850,-0.47527214884758
617,1888100812,-1.42914021015167,0.01048989128321,21.05874252319336,0.00654466077685,-0.34465560317039,9.82229900360107,-5.44947910308838,0.09911426901817,-0.39876240491867
618,1888109145,-1.42925512790680,0.01014920882881,21.05871963500977,0.01373157184571,-0.35639676451683,9.76659488677979,-5.42635011672974,0.04867985472083,-0.38964378833771
619,1888117478,-1.42967295646667,0.00993459019810,21.05837440490723,0.01065896078944,-0.33484193682671,9.78423595428467,-5.43258762359619,0.06628964096308,-0.44349771738052
620,1888125811,-1.42989873886108,0.00932785030454,21.05811500549316,-0.01129571534693,-0.35725978016853,9.78815364837646,-5.43919563293457,0.01726399548352,-0.41903606057167
621,1888134144,-1.43032479286194,0.00915525574237,21.05841255187988,0.00335104018450,-0.35363364219666,9.78302669525146,-5.43297195434570,0.07092581689358,-0.35323309898376
622,1888142477,-1.42997455596924,0.00898354034871,21.05863571166992,-0.01248391531408,-0.34187391400337,9.78079700469971,-5.36906385421753,0.06728859990835,-0.35889387130737
623,1888150810,-1.42988216876984,0.00942021794617,21.05775260925293,0.00131238845643,-0.34762534499168,9.83157348632812,-5.37106180191040,0.14689764380455,-0.49380406737328
624,1888159143,-1.42977631092072,0.01010438520461,21.05800437927246,0.01253077853471,-0.34756666421890,9.78481674194336,-5.39926338195801,0.17079573869705,-0.35384789109230
625,1888167476,-1.43008804321289,0.01067161094397,21.05840492248535,0.00561493029818,-0.34855201840401,9.81345653533936,-5.41833305358887,0.15958948433399,-0.35690876841545
626,1888175809,-1.43008768558502,0.01104321610183,21.05869293212891,0.00031828242936,-0.35045042634010,9.80438518524170,-5.41159629821777,0.13295069336891,-0.34983921051025
627,1888184142,-1.43090283870697,0.01119761541486,21.05883216857910,0.01360514387488,-0.33997955918312,9.79958438873291,-5.48076772689819,0.10880927741528,-0.36778199672699
628,1888192475,-1.43087756633759,0.01104150805622,21.05868530273438,0.03098988719285,-0.35275956988335,9.80494213104248,-5.40725469589233,0.07179670035839,-0.40302717685699
629,1888200808,-1.43168795108795,0.01101816352457,21.05838584899902,0.01424915064126,-0.34915158152580,9.79360866546631,-5.47884607315063,0.08903507888317,-0.41514268517494
630,1888209141,-1.43177759647369,0.01029192190617,21.05893898010254,0.00304046599194,-0.34905233979225,9.80398559570312,-5.42281532287598,0.00016649252211,-0.32227832078934
631,1888217474,-1.43206787109375,0.00978992972523,21.05939674377441,-0.01828792504966,-0.36038526892662,9.80609130859375,-5.41721916198730,0.03086515516043,-0.34787973761559
632,1888225807,-1.43236374855042,0.00968600902706,21.06000137329102,-0.01025688834488,-0.34722107648849,9.77147006988525,-5.44772577285767,0.07451181858778,-0.31412020325661
633,1888234140,-1.43358206748962,0.00947638135403,21.06027412414551,-0.00703104306012,-0.33462566137314,9.78940200805664,-5.52700138092041,0.06672508269548,-0.36258226633072
634,1888242473,-1.43434000015259,0.00978195201606,21.06077384948730,-0.00146918196697,-0.33120903372765,9.80644130706787,-5.50259065628052,0.12343499064445,-0.32495498657227
635,1888250806,-1.43436169624329,0.00977346766740,21.06081771850586,-0.02507323212922,-0.35381996631622,9.80193710327148,-5.38543128967285,0.09039264172316,-0.39070674777031
636,1888259139,-1.43397450447083,0.01070645544678,21.06005668640137,-0.02134474925697,-0.36098924279213,9.80661296844482,-5.36524772644043,0.20437599718571,-0.47364565730095
637,1888267472,-1.43454742431641,0.01160454563797,21.06063842773438,-0.01268535945565,-0.35078781843185,9.76902961730957,-5.45197677612305,0.19858716428280,-0.33778771758080
638,1888275805,-1.43418216705322,0.01153125427663,21.06086540222168,0.01943105459213,-0.36013564467430,9.78257942199707,-5.36777067184448,0.07974992692471,-0.35816386342049
639,1888284138,-1.43366742134094,0.01138544641435,21.06131553649902,-0.01285269390792,-0.36472767591476,9.77903556823730,-5.32110166549683,0.07119476795197,-0.31638702750206
640,1888292471,-1.43400800228119,0.01196894701570,21.06105613708496,-0.01316678058356,-0.34645649790764,9.79251480102539,-5.45205450057983,0.16147214174271,-0.41488656401634
641,1888300804,-1.43440926074982,0.01173941511661,21.06137657165527,0.01106071565300,-0.36040279269218,9.76683712005615,-5.43051290512085,0.06237066537142,-0.35453942418098
642,1888309137,-1.43479812145233,0.01211336720735,21.06160545349121,0.00908102095127,-0.34560531377792,9.78875255584717,-5.45866250991821,0.13462843000889,-0.35758757591248
643,1888317470,-1.43444919586182,0.01238019857556,21.06167030334473,0.03095207177103,-0.36026114225388,9.80821514129639,-5.33915948867798,0.12388325482607,-0.38554549217224
644,1888325803,-1.43488717079163,0.01268899813294,21.06170845031738,0.01394432038069,-0.33072966337204,9.81085300445557,-5.46484804153442,0.12508709728718,-0.38067874312401
645,1888334136,-1.43480718135834,0.01250231545419,21.06239318847656,-0.01061854697764,-0.34763053059578,9.79022979736328,-5.37200927734375,0.06792894750834,-0.30907413363457
646,1888342469,-1.43515205383301,0.01229063328356,21.06234931945801,0.00142565125134,-0.37433454394341,9.78899192810059,-5.45187425613403,0.06485524028540,-0.39168006181717
647,1888350802,-1.43481183052063,0.01206854544580,21.06191635131836,0.00286997226067,-0.34565037488937,9.77317714691162,-5.34260416030884,0.06434296071529,-0.43642812967300
648,1888359135,-1.43454897403717,0.01167316734791,21.06232833862305,0.00902792718261,-0.35383015871048,9.80588626861572,-5.37995052337646,0.04157190769911,-0.33681443333626
649,1888367468,-1.43375635147095,0.01119940262288,21.06231880187988,-0.02030691690743,-0.37521672248840,9.80842208862305,-5.28568935394287,0.03422061726451,-0.37536382675171
650,1888375801,-1.43394315242767,0.01213244441897,21.06200599670410,-0.02164162136614,-0.36658310890198,9.80216979980469,-5.43478965759277,0.20217312872410,-0.42195606231689
651,1888384134,-1.43486320972443,0.01233009342104,21.06219291687012,-0.01255683600903,-0.35013669729233,9.81119728088379,-5.49224328994751,0.11423949152231,-0.33325403928757
652,1888392467,-1.43480753898621,0.01298109441996,21.06298446655273,0.00531527819112,-0.35351118445396,9.80029296875000,-5.40489816665649,0.16595463454723,-0.28914630413055
653,1888400800,-1.43459641933441,0.01320630405098,21.06290626525879,-0.01133718248457,-0.36785823106766,9.80011463165283,-5.35569334030151,0.11721074581146,-0.38963097333908
654,1888409133,-1.43474149703979,0.01304382085800,21.06270217895508,-0.00264861457981,-0.34538391232491,9.78340911865234,-5.42907762527466,0.07028544694185,-0.41030159592628
655,1888417466,-1.43507671356201,0.01283886190504,21.06268692016602,-0.01292582973838,-0.36073726415634,9.81211376190186,-5.42308425903320,0.06767281144857,-0.38476425409317
656,1888425799,-1.43633973598480,0.01224340777844,21.06297874450684,-0.00198485632427,-0.36487913131714,9.82569408416748,-5.56311750411987,0.01749452203512,-0.35215729475021
657,1888434132,-1.43670809268951,0.01265596784651,21.06241798400879,0.00095231173327,-0.36621943116188,9.81036758422852,-5.42687511444092,0.14164671301842,-0.44029587507248
658,1888442465,-1.43625688552856,0.01294264942408,21.06218719482422,0.00378648960032,-0.34878790378571,9.79064464569092,-5.35767793655396,0.12413939833641,-0.41264531016350
659,1888450798,-1.43716537952423,0.01303504314274,21.06250000000000,-0.01226175948977,-0.36918565630913,9.81213378906250,-5.49025774002075,0.10182938724756,-0.34666308760643
660,1888459131,-1.43719685077667,0.01389746088535,21.06240081787109,0.00144459004514,-0.34896430373192,9.79576015472412,-5.41564321517944,0.19324660301208,-0.39456167817116
661,1888467464,-1.43839824199677,0.01389434002340,21.06187629699707,-0.00029280083254,-0.35637122392654,9.78723430633545,-5.52689886093140,0.09100737422705,-0.41626971960068
662,1888475797,-1.43900227546692,0.01298661809415,21.06247901916504,0.00168710143771,-0.33542644977570,9.77885627746582,-5.48393106460571,-0.02000471949577,-0.31625896692276
663,1888484130,-1.44012045860291,0.01269476022571,21.06344604492188,-0.00844717212021,-0.37607273459435,9.80147361755371,-5.51639699935913,0.05361059308052,-0.28033497929573
664,1888492463,-1.43998861312866,0.01281097996980,21.06273841857910,-0.00769930146635,-0.35267925262451,9.79790401458740,-5.39526700973511,0.10465976595879,-0.47110980749130
665,1888500796,-1.43990099430084,0.01290321536362,21.06224441528320,-0.00478913355619,-0.35836803913116,9.79102706909180,-5.37083148956299,0.10486468672752,-0.44723737239838
666,1888509129,-1.44038593769073,0.01161761954427,21.06173706054688,-0.00707882503048,-0.32681021094322,9.79608440399170,-5.47008705139160,-0.06394594162703,-0.45020860433578
667,1888517462,-1.44033193588257,0.01216275244951,21.06138420104980,0.00169608183205,-0.35258591175079,9.79032897949219,-5.37492942810059,0.15916685760021,-0.42536279559135
668,1888525795,-1.44052648544312,0.01213884819299,21.06172180175781,0.00095221045194,-0.34656935930252,9.79346561431885,-5.43549442291260,0.08487277477980,-0.34499815106392
669,1888534128,-1.44038975238800,0.01195368543267,21.06179046630859,-0.00718417298049,-0.34658551216125,9.77462959289551,-5.36500453948975,0.06914562731981,-0.38400861620903
670,1888542461,-1.44137382507324,0.01217766758054,21.06248283386230,0.02538916282356,-0.35381510853767,9.80118274688721,-5.52985715866089,0.11445720493793,-0.30247849225998
671,1888550794,-1.44212794303894,0.01061923801899,21.06231689453125,0.00268331193365,-0.33515837788582,9.79513072967529,-5.47307062149048,-0.09492634981871,-0.41197931766510
672,1888559127,-1.44200992584229,0.01111933588982,21.06255531311035,-0.00440595811233,-0.35223752260208,9.77956390380859,-5.39784193038940,0.14839607477188,-0.35672944784164
673,1888567460,-1.44205522537231,0.01123061962426,21.06177902221680,-0.00049089774257,-0.33615162968636,9.82010650634766,-5.38792896270752,0.10679854452610,-0.49773585796356
674,1888575793,-1.44242525100708,0.01038036774844,21.06173896789551,0.01611931063235,-0.36093366146088,9.82419586181641,-5.45562696456909,-0.01280711777508,-0.39192336797714
675,1888584126,-1.44357168674469,0.01048402115703,21.06140518188477,0.01413229294121,-0.35669782757759,9.79219055175781,-5.52006006240845,0.10545381158590,-0.42423582077026
676,1888592459,-1.44310486316681,0.01028802711517,21.06063842773438,0.03641529381275,-0.36572274565697,9.81612300872803,-5.35543680191040,0.06895351409912,-0.47735974192619
677,1888600792,-1.44297599792480,0.01032770052552,21.06104278564453,0.00427025835961,-0.33358550071716,9.77751064300537,-5.36609315872192,0.09402986615896,-0.33740353584290
678,1888609125,-1.44242680072784,0.01016132067889,21.06072807312012,-0.00321521656588,-0.34970733523369,9.77827644348145,-5.34578084945679,0.07156617939472,-0.42349293828011
679,1888617458,-1.44233155250549,0.01033469103277,21.06062126159668,-0.02513032592833,-0.35724121332169,9.78170013427734,-5.36978101730347,0.11085841804743,-0.39395970106125
680,1888625791,-1.44214951992035,0.01097680907696,21.05951309204102,0.00304277148098,-0.34497877955437,9.81968021392822,-5.39029836654663,0.17048835754395,-0.51724106073380
681,1888634124,-1.44252693653107,0.01103974785656,21.05973434448242,0.00503514939919,-0.36396396160126,9.79692745208740,-5.42619657516479,0.09821778535843,-0.35785648226738
682,1888642457,-1.44283318519592,0.01099711284041,21.06031799316406,0.00204052939080,-0.35347026586533,9.80573081970215,-5.44821166992188,0.08268275856972,-0.31691214442253
683,1888650790,-1.44296813011169,0.01137157250196,21.05952262878418,-0.00792849995196,-0.34827777743340,9.78265571594238,-5.39749526977539,0.13713860511780,-0.48273867368698
684,1888659123,-1.44229853153229,0.01129668019712,21.05959701538086,0.01724169030786,-0.35626280307770,9.78940391540527,-5.33197450637817,0.08027501404285,-0.37802770733833
685,1888667456,-1.44291591644287,0.01113657094538,21.05897903442383,-0.00230604736134,-0.35610729455948,9.81472778320312,-5.45638275146484,0.07456304132938,-0.47059759497643
686,1888675789,-1.44263923168182,0.01062273234129,21.05807495117188,-0.00392851280048,-0.37448915839195,9.79346847534180,-5.37827205657959,0.03149270266294,-0.49509751796722
687,1888684122,-1.44209873676300,0.01097576785833,21.05942726135254,-0.02998469583690,-0.34359681606293,9.79218292236328,-5.31585025787354,0.12954398989677,-0.24092748761177
688,1888692455,-1.44183111190796,0.01086859311908,21.05861663818359,0.00744626345113,-0.32936874032021,9.81483650207520,-5.38039731979370,0.07823868095875,-0.48441639542580
689,1888700788,-1.44248628616333,0.01129593327641,21.05875015258789,-0.00055220501963,-0.33343324065208,9.79628181457520,-5.46019935607910,0.14218463003635,-0.35438576340675
