sep=,
DeviceTag:,Xsens DOT
FirmwareVersion:,3.0.0
AppVersion:,2023.6.0
StartTime: ,2025-03-06_12:42:08_000 PST
© Movella Technologies B. V. 2005-2025

PacketCounter,SampleTimeFine,Euler_X,Euler_Y,Euler_Z,Acc_X,Acc_Y,Acc_Z,Gyr_X,Gyr_Y,Gyr_Z
0,1952256579,-1.51949739456177,0.03259825706482,20.97635841369629,0.00000000000000,0.00000000000000,0.00000000000000,0.00000000000000,0.00000000000000,0.00000000000000
1,1952264912,-1.52010476589203,0.03367580100894,20.97573280334473,-0.02390178665519,-0.34320604801178,9.79094219207764,-5.45265579223633,0.22598159313202,-0.47588688135147
2,1952273245,-1.51941299438477,0.03425574675202,20.97468757629395,-0.02077496424317,-0.35313388705254,9.77416229248047,-5.32455921173096,0.16586498916149,-0.50933909416199
3,1952281578,-1.51899564266205,0.03494698181748,20.97496223449707,-0.01452817302197,-0.33808013796806,9.77785873413086,-5.32918262481689,0.17527821660042,-0.32718342542648
4,1952289911,-1.51890408992767,0.03549284115434,20.97548103332520,0.00837693549693,-0.34777933359146,9.80597496032715,-5.39766216278076,0.15582418441772,-0.32391759753227
5,1952298244,-1.51858723163605,0.03529900684953,20.97556495666504,0.00031649821904,-0.33205166459084,9.77151584625244,-5.34110593795776,0.07196319103241,-0.38349634408951
6,1952306577,-1.51860225200653,0.03577122464776,20.97521400451660,-0.02403275854886,-0.33423087000847,9.78999233245850,-5.40917587280273,0.14984327554703,-0.42715576291084
7,1952314910,-1.51898157596588,0.03606806695461,20.97526550292969,-0.00814027246088,-0.34245884418488,9.77197933197021,-5.42560672760010,0.12967208027840,-0.37171375751495
8,1952323243,-1.51857006549835,0.03557071834803,20.97523689270020,-0.01236665248871,-0.34619915485382,9.79960060119629,-5.35798645019531,0.03343938663602,-0.39130869507790
9,1952331576,-1.51788687705994,0.03558411076665,20.97558021545410,-0.00758290849626,-0.36104360222816,9.78616809844971,-5.29825353622437,0.09504162520170,-0.36305615305901
10,1952339909,-1.51723492145538,0.03523916378617,20.97562789916992,0.00058102799812,-0.33660197257996,9.78964042663574,-5.32948970794678,0.05145899578929,-0.38225400447845
11,1952348242,-1.51648104190826,0.03621974959970,20.97543525695801,-0.01810862123966,-0.35293063521385,9.82800769805908,-5.28800725936890,0.21197058260441,-0.42178958654404
12,1952356575,-1.51609361171722,0.03583259135485,20.97545623779297,0.00258839712478,-0.35128688812256,9.77270412445068,-5.36111021041870,0.04606719687581,-0.38467457890511
13,1952364908,-1.51614975929260,0.03568366169930,20.97483253479004,0.00750367902219,-0.34417083859444,9.77903079986572,-5.38757038116455,0.07693235576153,-0.42463281750679
14,1952373241,-1.51621794700623,0.03493177518249,20.97574043273926,0.01257400121540,-0.34266912937164,9.81282806396484,-5.41534900665283,0.00030737082125,-0.27907988429070
15,1952381574,-1.51632833480835,0.03437730297446,20.97572517395020,0.01094964519143,-0.35216161608696,9.80451297760010,-5.39430570602417,0.02670283429325,-0.40024802088737
16,1952389907,-1.51616108417511,0.03407239913940,20.97536849975586,-0.00882670376450,-0.35879820585251,9.77632141113281,-5.38680171966553,0.05754237622023,-0.42952510714531
17,1952398240,-1.51612448692322,0.03463498130441,20.97446632385254,-0.01564515940845,-0.34011951088905,9.78585529327393,-5.37399482727051,0.16458427906036,-0.47299247980118
18,1952406573,-1.51556301116943,0.03425070270896,20.97422218322754,0.01934064738452,-0.36149263381958,9.77894401550293,-5.34013223648071,0.04691247269511,-0.41674360632896
19,1952414906,-1.51532363891602,0.03522358089685,20.97370147705078,-0.01906981319189,-0.36381915211678,9.78358554840088,-5.35100555419922,0.21241883933544,-0.43827235698700
20,1952423239,-1.51503944396973,0.03468615561724,20.97281646728516,-0.01583814434707,-0.34673631191254,9.80234050750732,-5.37323904037476,0.03019918128848,-0.49352231621742
21,1952431572,-1.51497638225555,0.03546028956771,20.97244644165039,-0.01804516650736,-0.33776664733887,9.79267978668213,-5.37072896957397,0.18910992145538,-0.44024470448494
22,1952439905,-1.51413083076477,0.03497774526477,20.97294044494629,-0.02379840426147,-0.33585730195045,9.80399513244629,-5.30610418319702,0.03255569189787,-0.32759326696396
23,1952448238,-1.51308166980743,0.03618420660496,20.97233772277832,0.00759270600975,-0.34833547472954,9.79008483886719,-5.25456809997559,0.24161909520626,-0.49726194143295
24,1952456571,-1.51310098171234,0.03634925559163,20.97210884094238,-0.01128287427127,-0.35834476351738,9.78788852691650,-5.40897083282471,0.11370159685612,-0.41268375515938
25,1952464904,-1.51322555541992,0.03702624514699,20.97261238098145,-0.00106262986083,-0.34121856093407,9.78362369537354,-5.39457559585571,0.17433050274849,-0.34557446837425
26,1952473237,-1.51312553882599,0.03696887940168,20.97263145446777,0.00153832277283,-0.32716795802116,9.79822158813477,-5.39481878280640,0.08502645790577,-0.38334262371063
27,1952481570,-1.51264488697052,0.03736135363579,20.97266960144043,0.00897206924856,-0.34333452582359,9.80568885803223,-5.32233095169067,0.14168515801430,-0.37991032004356
28,1952489903,-1.51205432415009,0.03727496042848,20.97313690185547,0.00027306159609,-0.34325075149536,9.80305576324463,-5.33758306503296,0.08106904476881,-0.33146098256111
29,1952498236,-1.51140069961548,0.03705815225840,20.97297286987305,0.00925316009670,-0.33862653374672,9.78552532196045,-5.30151891708374,0.06823632866144,-0.40955883264542
30,1952506569,-1.51081502437592,0.03665947169065,20.97327804565430,0.01117228996009,-0.34539729356766,9.78761959075928,-5.33641862869263,0.04355700686574,-0.35050520300865
31,1952514902,-1.51085960865021,0.03640005737543,20.97303581237793,-0.01433923840523,-0.35090544819832,9.77542304992676,-5.38572597503662,0.06292136758566,-0.39558625221252
32,1952523235,-1.51020014286041,0.03613725304604,20.97314643859863,-0.01365909073502,-0.35051673650742,9.81033515930176,-5.32851600646973,0.06006537750363,-0.37467220425606
33,1952531568,-1.51120722293854,0.03617265820503,20.97353744506836,0.00655264686793,-0.35325688123703,9.79005241394043,-5.50038814544678,0.09743655472994,-0.32802870869637
34,1952539901,-1.51073133945465,0.03520284965634,20.97423362731934,-0.00560986995697,-0.35705924034119,9.77308082580566,-5.35113334655762,-0.02701020985842,-0.30674326419830
35,1952548234,-1.51119732856750,0.03547402843833,20.97449302673340,-0.01873873174191,-0.35146614909172,9.80809783935547,-5.43435478210449,0.12653432786465,-0.36119914054871
36,1952556567,-1.51111841201782,0.03524236381054,20.97347831726074,-0.03069102950394,-0.35622820258141,9.83242321014404,-5.39775180816650,0.06787771731615,-0.50881391763687
37,1952564900,-1.51076292991638,0.03542544320226,20.97346878051758,-0.01750355213881,-0.34673163294792,9.81274032592773,-5.33713626861572,0.11663443595171,-0.39586803317070
38,1952573233,-1.51096868515015,0.03513980284333,20.97316932678223,-0.02188183926046,-0.35630062222481,9.79253101348877,-5.43125581741333,0.05952748656273,-0.42236596345901
39,1952581566,-1.51113510131836,0.03584256395698,20.97389602661133,-0.00587054667994,-0.35497847199440,9.78721714019775,-5.40129995346069,0.17652051150799,-0.33400964736938
40,1952589899,-1.51110851764679,0.03554088994861,20.97352790832520,-0.01160267181695,-0.34203016757965,9.80222797393799,-5.40383529663086,0.05792658776045,-0.43052408099174
41,1952598232,-1.51108372211456,0.03583720698953,20.97317504882812,-0.00264056143351,-0.33915933966637,9.81091976165771,-5.37799024581909,0.13036365807056,-0.42929455637932
42,1952606565,-1.51078450679779,0.03596905991435,20.97305488586426,-0.00309193530120,-0.34732300043106,9.79545211791992,-5.37150955200195,0.10997471213341,-0.40029928088188
43,1952614898,-1.51033055782318,0.03560858219862,20.97362327575684,0.00915849208832,-0.35374543070793,9.79577732086182,-5.32505846023560,0.04743756353855,-0.30397692322731
44,1952623231,-1.50992667675018,0.03573035076261,20.97356796264648,0.00803085416555,-0.33553406596184,9.80686569213867,-5.35917663574219,0.10850188881159,-0.39331936836243
45,1952631564,-1.50972664356232,0.03611505404115,20.97268295288086,-0.00125984346960,-0.35244506597519,9.81853199005127,-5.35577058792114,0.14246638119221,-0.49295878410339
46,1952639897,-1.50982892513275,0.03656825050712,20.97296714782715,0.01190503872931,-0.35714575648308,9.78349781036377,-5.41940879821777,0.14568097889423,-0.35150417685509
47,1952648230,-1.51027119159698,0.03630416840315,20.97316932678223,0.02367168664932,-0.36051884293556,9.79742336273193,-5.43321514129639,0.06166627630591,-0.36121195554733
48,1952656563,-1.50984573364258,0.03656750172377,20.97322273254395,-0.00398957915604,-0.35223516821861,9.81532001495361,-5.35634613037109,0.12398569285870,-0.37998718023300
49,1952664896,-1.51031327247620,0.03713865205646,20.97384071350098,-0.00302659603767,-0.36639693379402,9.83305549621582,-5.43608379364014,0.16081897914410,-0.32145866751671
50,1952673229,-1.50965237617493,0.03735940158367,20.97412490844727,-0.00049752771156,-0.32330328226089,9.79809951782227,-5.32815742492676,0.11885004490614,-0.35213172435760
51,1952681562,-1.50895738601685,0.03657411783934,20.97406578063965,0.00477467058226,-0.35490337014198,9.78929519653320,-5.29690885543823,-0.00011526406888,-0.42095717787743
52,1952689895,-1.50901770591736,0.03709176927805,20.97392845153809,-0.01269937027246,-0.35048782825470,9.79150295257568,-5.41519498825073,0.15560647845268,-0.40200260281563
53,1952698228,-1.50931501388550,0.03730030730367,20.97380447387695,-0.00377600593492,-0.34671479463577,9.77026844024658,-5.41502857208252,0.11993865668774,-0.43792656064034
54,1952706561,-1.50937962532043,0.03712232038379,20.97362327575684,0.00213581952266,-0.34433495998383,9.80295753479004,-5.41502809524536,0.07109231501818,-0.40854701399803
55,1952714894,-1.50966310501099,0.03658788651228,20.97447013854980,-0.01489809714258,-0.33093881607056,9.81622409820557,-5.41347885131836,0.02961005829275,-0.31481176614761
56,1952723227,-1.50936210155487,0.03684321790934,20.97452163696289,0.00400805799291,-0.33369007706642,9.77314758300781,-5.37124061584473,0.12328131496906,-0.37910345196724
57,1952731560,-1.50966143608093,0.03641075640917,20.97446250915527,-0.01413866411895,-0.35654750466347,9.80661582946777,-5.41579723358154,0.04227630048990,-0.39960768818855
58,1952739893,-1.50921297073364,0.03716471791267,20.97418022155762,0.01224996894598,-0.34129369258881,9.77737236022949,-5.35332345962524,0.18351319432259,-0.41781941056252
59,1952748226,-1.50969886779785,0.03663326799870,20.97489166259766,0.01028119400144,-0.35606130957603,9.78498554229736,-5.43695402145386,0.02818846702576,-0.29871320724487
60,1952756559,-1.50947344303131,0.03607311472297,20.97480392456055,-0.00382699491456,-0.36448675394058,9.81784152984619,-5.38039827346802,0.02534528635442,-0.39878803491592
61,1952764892,-1.50994956493378,0.03644536063075,20.97473526000977,0.00016590935411,-0.33512139320374,9.77362060546875,-5.43685245513916,0.14007145166397,-0.42765530943871
62,1952773225,-1.50964665412903,0.03769704699516,20.97495651245117,-0.00120302545838,-0.32618311047554,9.77222824096680,-5.37112569808960,0.24193927645683,-0.35752350091934
63,1952781558,-1.51018607616425,0.03717568144202,20.97480773925781,-0.01588471047580,-0.34258222579956,9.78099250793457,-5.44443416595459,0.03087796084583,-0.35281053185463
64,1952789891,-1.50970339775085,0.03693246468902,20.97531700134277,-0.01658664084971,-0.35100427269936,9.78425598144531,-5.34972476959229,0.06175591796637,-0.32644060254097
65,1952798224,-1.51021981239319,0.03771177679300,20.97601699829102,-0.00556000461802,-0.35280755162239,9.79273319244385,-5.44185972213745,0.18480671942234,-0.32690167427063
66,1952806557,-1.51109898090363,0.03783965483308,20.97634696960449,-0.01274444535375,-0.36373227834702,9.82460403442383,-5.51243972778320,0.10743891447783,-0.34640690684319
67,1952814890,-1.51167547702789,0.03762941434979,20.97661399841309,-0.01223949063569,-0.36644807457924,9.78564071655273,-5.44914722442627,0.06827474385500,-0.36697518825531
68,1952823223,-1.51167035102844,0.03726335242391,20.97665214538574,-0.00862242747098,-0.33756712079048,9.77735996246338,-5.40715217590332,0.04935863241553,-0.38361158967018
69,1952831556,-1.51252424716949,0.03717087954283,20.97664070129395,-0.01120460964739,-0.34096530079842,9.79627895355225,-5.48217630386353,0.08234976977110,-0.37203398346901
70,1952839889,-1.51310062408447,0.03757434338331,20.97609138488770,-0.01144223101437,-0.35534930229187,9.77402877807617,-5.47743797302246,0.14241515100002,-0.45246267318726
71,1952848222,-1.51325583457947,0.03791588172317,20.97595787048340,0.02540961094201,-0.34828174114227,9.77950191497803,-5.39818763732910,0.13675440847874,-0.42482492327690
72,1952856555,-1.51356971263885,0.03893888741732,20.97636222839355,0.02017117477953,-0.34511330723763,9.79157733917236,-5.44462585449219,0.21344344317913,-0.33517506718636
73,1952864888,-1.51405632495880,0.03781988471746,20.97643661499023,0.01065135840327,-0.35147076845169,9.79168891906738,-5.43783760070801,-0.04035522788763,-0.38537895679474
74,1952873221,-1.51471245288849,0.03784957528114,20.97640991210938,-0.00702836411074,-0.36081993579865,9.78404045104980,-5.48571109771729,0.09633513540030,-0.38868319988251
75,1952881554,-1.51414656639099,0.03854642063379,20.97708511352539,0.00313795474358,-0.34625893831253,9.80678081512451,-5.31207227706909,0.17512452602386,-0.30430990457535
76,1952889887,-1.51346433162689,0.03844620659947,20.97809982299805,0.01313376706094,-0.34430161118507,9.78554534912109,-5.32574987411499,0.07868693023920,-0.26552996039391
77,1952898220,-1.51371061801910,0.03935382142663,20.97844505310059,-0.01281801331788,-0.34250822663307,9.81814384460449,-5.40912437438965,0.20045699179173,-0.34616357088089
78,1952906553,-1.51443934440613,0.03899750486016,20.97905349731445,-0.02118278667331,-0.34184914827347,9.79705142974854,-5.49553442001343,0.04814196005464,-0.31541371345520
79,1952914886,-1.51488769054413,0.03891957178712,20.97961616516113,-0.01466869935393,-0.35941538214684,9.80946159362793,-5.43330478668213,0.08427083492279,-0.35891944169998
80,1952923219,-1.51491272449493,0.03876210376620,20.97912788391113,-0.01504780817777,-0.35354238748550,9.77189636230469,-5.41096925735474,0.07658657431602,-0.44657140970230
81,1952931552,-1.51483368873596,0.03712910041213,20.97828674316406,-0.01069724466652,-0.38401579856873,9.77574634552002,-5.37057542800903,-0.10029254108667,-0.48319977521896
82,1952939885,-1.51397764682770,0.03724833205342,20.97829055786133,-0.02059430629015,-0.34986278414726,9.78333187103271,-5.30510520935059,0.10640154033899,-0.38535338640213
83,1952948218,-1.51358640193939,0.03734790533781,20.97809219360352,-0.00844120606780,-0.34440767765045,9.80862140655518,-5.33194875717163,0.10704188793898,-0.40825247764587
84,1952956551,-1.51354467868805,0.03626993671060,20.97786331176758,-0.01391412597150,-0.32182157039642,9.76947593688965,-5.40151739120483,-0.03607765212655,-0.41655150055885
85,1952964884,-1.51428174972534,0.03596321865916,20.97829818725586,0.01107908599079,-0.35269477963448,9.79979324340820,-5.46899700164795,0.05577499419451,-0.33495733141899
86,1952973217,-1.51394259929657,0.03537160158157,20.97898101806641,-0.00270215328783,-0.36120581626892,9.81385707855225,-5.36643886566162,0.01917225681245,-0.30498868227005
87,1952981550,-1.51378178596497,0.03507446125150,20.97954177856445,-0.00107572833076,-0.35753390192986,9.82174873352051,-5.36016321182251,0.05703009292483,-0.33288261294365
88,1952989883,-1.51301300525665,0.03637281432748,20.97946166992188,0.00419033551589,-0.33205819129944,9.80231571197510,-5.31573534011841,0.24827879667282,-0.39334502816200
89,1952998216,-1.51316273212433,0.03545618057251,20.97957229614258,0.02875249274075,-0.33379876613617,9.76038742065430,-5.39606094360352,-0.01579117588699,-0.37515887618065
90,1953006549,-1.51232802867889,0.03646627813578,20.98016548156738,-0.00371842598543,-0.35960781574249,9.79040336608887,-5.30747413635254,0.21179132163525,-0.31287786364555
91,1953014882,-1.51196920871735,0.03582258149981,20.98082733154297,-0.00028183835093,-0.35707533359528,9.83068943023682,-5.33641862869263,0.01586801931262,-0.32886117696762
92,1953023215,-1.51113510131836,0.03532664477825,20.98129272460938,-0.03180823475122,-0.34445011615753,9.77537345886230,-5.30734634399414,0.03113410435617,-0.33188363909721
93,1953031548,-1.51106369495392,0.03525343909860,20.98105812072754,-0.01273179799318,-0.34334531426430,9.77657032012939,-5.36942243576050,0.08713962882757,-0.42874389886856
94,1953039881,-1.51074707508087,0.03465952724218,20.98154830932617,-0.01435371208936,-0.34513610601425,9.79424381256104,-5.36981964111328,0.01894172653556,-0.32996258139610
95,1953048214,-1.51039922237396,0.03530634194613,20.98168182373047,-0.00576153770089,-0.35390117764473,9.80107116699219,-5.33744287490845,0.17147448658943,-0.37255904078484
96,1953056547,-1.51016616821289,0.03532979264855,20.98135375976562,-0.03035571798682,-0.33830603957176,9.80083465576172,-5.37895107269287,0.09610461443663,-0.42423582077026
97,1953064880,-1.51049804687500,0.03484821319580,20.98134803771973,-0.01545131020248,-0.35432264208794,9.79600048065186,-5.42026615142822,0.03742239624262,-0.40497383475304
98,1953073213,-1.51108574867249,0.03387246280909,20.98202514648438,-0.00654165586457,-0.35692834854126,9.78701782226562,-5.47816801071167,-0.02581914886832,-0.30831855535507
99,1953081546,-1.51033151149750,0.03456710651517,20.98179817199707,-0.00237654987723,-0.35279709100723,9.81083393096924,-5.28718805313110,0.17798051238060,-0.42230188846588
100,1953089879,-1.51032781600952,0.03411388769746,20.98242759704590,-0.00907282624394,-0.33088481426239,9.81527900695801,-5.40813827514648,0.03574466332793,-0.31349262595177
101,1953098212,-1.51082897186279,0.03355485945940,20.98289489746094,-0.00162575184368,-0.34945815801620,9.77811431884766,-5.43916988372803,0.02622897922993,-0.35351490974426
102,1953106545,-1.51049101352692,0.03340811654925,20.98262214660645,-0.00420467136428,-0.35349845886230,9.79710960388184,-5.36698961257935,0.07530584931374,-0.41967648267746
103,1953114878,-1.51145410537720,0.03267411142588,20.98288154602051,0.00232320581563,-0.35444039106369,9.77852058410645,-5.49557304382324,0.00491793360561,-0.37500524520874
104,1953123211,-1.51155686378479,0.03240845352411,20.98262405395508,-0.00414494564757,-0.36234179139137,9.80172729492188,-5.41942167282104,0.06260119378567,-0.41752484440804
105,1953131544,-1.51067125797272,0.03232769295573,20.98265838623047,-0.01517884526402,-0.35150408744812,9.80704307556152,-5.27317667007446,0.08412995189428,-0.38692861795425
106,1953139877,-1.51008129119873,0.03207745775580,20.98251533508301,0.02796205133200,-0.33316227793694,9.75746822357178,-5.33690547943115,0.06263960897923,-0.40421825647354
107,1953148210,-1.50967037677765,0.03237582370639,20.98221588134766,0.00445304717869,-0.33310982584953,9.78293895721436,-5.32975864410400,0.13100400567055,-0.41976606845856
108,1953156543,-1.50990056991577,0.03160819411278,20.98244667053223,0.01577397435904,-0.36647090315819,9.80224132537842,-5.43562269210815,-0.00002561423753,-0.36093020439148
109,1953164876,-1.50960648059845,0.03061827458441,20.98275375366211,-0.00123941223137,-0.35217869281769,9.80338954925537,-5.34295034408569,-0.02494826726615,-0.36600181460381
110,1953173209,-1.50954627990723,0.03056037798524,20.98257446289062,-0.00709398230538,-0.34406718611717,9.80531787872314,-5.39996767044067,0.08492399007082,-0.40716388821602
111,1953181542,-1.50949180126190,0.03027985990047,20.98284530639648,-0.00152805028483,-0.34800139069557,9.78407192230225,-5.37291908264160,0.06094907224178,-0.36861449480057
112,1953189875,-1.50935637950897,0.03078422695398,20.98330497741699,0.01077567040920,-0.33848452568054,9.80689334869385,-5.39177083969116,0.15180276334286,-0.33042362332344
113,1953198208,-1.50942575931549,0.03046067059040,20.98421669006348,-0.00961409043521,-0.32472664117813,9.77884387969971,-5.38865900039673,0.05240672454238,-0.29939201474190
114,1953206541,-1.50901854038239,0.03107720427215,20.98316764831543,0.00284195318818,-0.35242930054665,9.78997898101807,-5.35807561874390,0.16997605562210,-0.50963366031647
115,1953214874,-1.50852882862091,0.03153434768319,20.98283958435059,-0.01937840878963,-0.37056991457939,9.77000713348389,-5.32085800170898,0.15043239295483,-0.42513230443001
116,1953223207,-1.50784134864807,0.03158904239535,20.98293876647949,-0.02083174325526,-0.35535389184952,9.75533485412598,-5.32541704177856,0.09905025362968,-0.37592729926109
117,1953231540,-1.50818574428558,0.03124942630529,20.98303222656250,-0.00130791857373,-0.32139223814011,9.80388927459717,-5.41990900039673,0.05417411029339,-0.41801151633263
118,1953239873,-1.50816929340363,0.03051075153053,20.98260688781738,-0.00221039750613,-0.34468534588814,9.80960941314697,-5.40466785430908,0.00512284692377,-0.43863099813461
119,1953248206,-1.50844419002533,0.03091261349618,20.98157310485840,0.01255843788385,-0.32099708914757,9.78657245635986,-5.41278743743896,0.14630851149559,-0.51724106073380
120,1953256539,-1.50889599323273,0.03033522143960,20.98171424865723,-0.00997674372047,-0.35692381858826,9.75877857208252,-5.46145486831665,0.02195140160620,-0.37098380923271
121,1953264872,-1.50912499427795,0.02969910763204,20.98152542114258,-0.00280591449700,-0.34385377168655,9.81016063690186,-5.40730571746826,0.01831418089569,-0.44108995795250
122,1953273205,-1.50826930999756,0.03006913699210,20.98232841491699,0.00211411551572,-0.33844333887100,9.79277801513672,-5.30501556396484,0.13515351712704,-0.28890296816826
123,1953281538,-1.50788295269012,0.03056003153324,20.98218154907227,0.00955220963806,-0.34311988949776,9.78694820404053,-5.33183336257935,0.15413364768028,-0.44668662548065
124,1953289871,-1.50784575939178,0.03176193311810,20.98129272460938,0.00157896184828,-0.35876527428627,9.85208511352539,-5.40388584136963,0.23991575837135,-0.49028202891350
125,1953298204,-1.50805032253265,0.03199541568756,20.98118019104004,-0.01465829554945,-0.36064898967743,9.79668521881104,-5.40410375595093,0.12225673347712,-0.39531728625298
126,1953306537,-1.50744140148163,0.03077531605959,20.98137092590332,-0.00289999274537,-0.35428276658058,9.75409030914307,-5.33428001403809,-0.05398200452328,-0.36726969480515
127,1953314870,-1.50726854801178,0.03054383583367,20.98117256164551,0.00339745497331,-0.35682207345963,9.81144905090332,-5.35780620574951,0.06666104495525,-0.41815236210823
128,1953323203,-1.50681960582733,0.03053057566285,20.98102951049805,-0.01187709625810,-0.33651414513588,9.79743003845215,-5.35370826721191,0.09048227965832,-0.40342417359352
129,1953331536,-1.50736272335052,0.03051040507853,20.98113632202148,0.00825108774006,-0.33868518471718,9.79456329345703,-5.44490766525269,0.09205757081509,-0.37497961521149
130,1953339869,-1.50756704807281,0.02982623875141,20.98095130920410,-0.00653608143330,-0.34517025947571,9.78799438476562,-5.43130636215210,0.01193623244762,-0.41030159592628
131,1953348202,-1.50688898563385,0.02906392328441,20.98125839233398,-0.01321729365736,-0.36201596260071,9.77867031097412,-5.29799747467041,0.00131913321093,-0.35309222340584
132,1953356535,-1.50721549987793,0.02803040295839,20.98165130615234,0.00649709021673,-0.34564745426178,9.77608489990234,-5.44712352752686,-0.03391325101256,-0.34297463297844
133,1953364868,-1.50700271129608,0.02730285562575,20.98188400268555,0.01186355948448,-0.34891581535339,9.82177352905273,-5.35389995574951,0.00706952856854,-0.36942130327225
134,1953373201,-1.50641524791718,0.02742729149759,20.98232650756836,0.00361123494804,-0.35638293623924,9.78371047973633,-5.33666229248047,0.10527451336384,-0.33302348852158
135,1953381534,-1.50628280639648,0.02722812443972,20.98279762268066,-0.01629124023020,-0.35247614979744,9.79000568389893,-5.36332607269287,0.06990124285221,-0.34250071644783
136,1953389867,-1.50589787960052,0.02802389301360,20.98343086242676,0.01439811103046,-0.32098412513733,9.79697132110596,-5.36187934875488,0.18576724827290,-0.30931752920151
137,1953398200,-1.50625240802765,0.02781818620861,20.98287391662598,0.00837466958910,-0.34383839368820,9.79395961761475,-5.42209815979004,0.07183513045311,-0.48877084255219
138,1953406533,-1.50637435913086,0.02764140255749,20.98332786560059,0.00723442807794,-0.33732697367668,9.78153705596924,-5.42139387130737,0.07028546184301,-0.33169153332710
139,1953414866,-1.50667190551758,0.02814512886107,20.98391723632812,-0.01707714423537,-0.35623392462730,9.80086421966553,-5.41509294509888,0.15358294546604,-0.33906841278076
140,1953423199,-1.50624215602875,0.02815273217857,20.98394012451172,-0.01628549024463,-0.32913696765900,9.79174613952637,-5.35714101791382,0.09296686947346,-0.38500759005547
141,1953431532,-1.50623071193695,0.02837191335857,20.98452377319336,-0.01036749500781,-0.32671064138412,9.79117488861084,-5.37785005569458,0.11818407475948,-0.31040611863136
142,1953439865,-1.50617527961731,0.02896838076413,20.98434829711914,-0.01189098507166,-0.34603583812714,9.79745674133301,-5.40041542053223,0.16495566070080,-0.40594717860222
143,1953448198,-1.50598132610321,0.02938806265593,20.98401641845703,-0.00179192470387,-0.36027303338051,9.78608417510986,-5.35689735412598,0.14436183869839,-0.41860064864159
144,1953456531,-1.50610446929932,0.02896685898304,20.98378944396973,-0.00285894703120,-0.37187489867210,9.79998588562012,-5.42167568206787,0.04403087496758,-0.41455358266830
145,1953464864,-1.50585794448853,0.02924329787493,20.98283576965332,-0.01369022019207,-0.34716483950615,9.79970073699951,-5.34982824325562,0.12983855605125,-0.48681139945984
146,1953473197,-1.50514864921570,0.02903385460377,20.98263740539551,-0.00392169086263,-0.35207667946815,9.81152153015137,-5.32233095169067,0.06812105327845,-0.41100600361824
147,1953481530,-1.50563097000122,0.02918049320579,20.98324012756348,0.01174346264452,-0.35649478435516,9.78240299224854,-5.43654441833496,0.11181893944740,-0.38984861969948
148,1953489863,-1.50638067722321,0.02881969325244,20.98299407958984,0.00347500899807,-0.35957214236259,9.78361988067627,-5.49792909622192,0.04974284395576,-0.41749924421310
149,1953498196,-1.50729238986969,0.02928977645934,20.98313713073730,0.01015242282301,-0.34006071090698,9.78550815582275,-5.48786306381226,0.14958713948727,-0.37602978944778
150,1953506529,-1.50647854804993,0.02906976640224,20.98302650451660,0.01651389896870,-0.34596291184425,9.80994987487793,-5.30931854248047,0.06726298481226,-0.39988943934441
151,1953514862,-1.50610971450806,0.02864186838269,20.98335838317871,0.01334172207862,-0.35689866542816,9.78526115417480,-5.33481740951538,0.04116207733750,-0.35658854246140
152,1953523195,-1.50626993179321,0.02743663080037,20.98373413085938,0.00055832858197,-0.31885996460915,9.77841854095459,-5.42687511444092,-0.05275252088904,-0.34490853548050
153,1953531528,-1.50681555271149,0.02771141193807,20.98362922668457,-0.00149918952957,-0.33426466584206,9.76628875732422,-5.44390916824341,0.12694415450096,-0.41391324996948
154,1953539861,-1.50639498233795,0.02781138382852,20.98394966125488,0.00705182831734,-0.34171271324158,9.82529544830322,-5.35705089569092,0.10550504177809,-0.34864819049835
155,1953548194,-1.50650334358215,0.02876077964902,20.98416900634766,-0.00368112628348,-0.34076637029648,9.80405902862549,-5.39229631423950,0.20698863267899,-0.36954939365387
156,1953556527,-1.50649893283844,0.02889258041978,20.98369026184082,-0.01310358941555,-0.34020343422890,9.78876018524170,-5.40729284286499,0.10925751179457,-0.44420209527016
157,1953564860,-1.50629460811615,0.02989552915096,20.98452377319336,-0.02526758238673,-0.35958766937256,9.78140544891357,-5.35470724105835,0.21150954067707,-0.29571631550789
158,1953573193,-1.50617611408234,0.02985062450171,20.98459243774414,-0.00126719474792,-0.33479875326157,9.81107902526855,-5.39388465881348,0.08739577978849,-0.37984630465508
159,1953581526,-1.50630283355713,0.02984801121056,20.98440361022949,-0.01145647745579,-0.34784084558487,9.78837108612061,-5.39394760131836,0.09465739876032,-0.41310635209084
160,1953589859,-1.50612854957581,0.02974134124815,20.98477554321289,-0.00529582146555,-0.35140511393547,9.78071594238281,-5.38621234893799,0.07857166230679,-0.34210368990898
161,1953598192,-1.50612521171570,0.02896238118410,20.98445892333984,-0.01407506316900,-0.34472444653511,9.76513290405273,-5.37980985641479,0.00152404711116,-0.41126215457916
162,1953606525,-1.50486052036285,0.02911512181163,20.98468017578125,-0.00942658539861,-0.34846109151840,9.79748725891113,-5.25487470626831,0.11042296141386,-0.35945734381676
163,1953614858,-1.50491082668304,0.02864544093609,20.98518562316895,0.00742267910391,-0.34263637661934,9.79996013641357,-5.38504695892334,0.03575747087598,-0.34923732280731
164,1953623191,-1.50500607490540,0.02829598076642,20.98448181152344,0.01798555999994,-0.33323007822037,9.77914237976074,-5.41780757904053,0.05332883447409,-0.47151961922646
165,1953631524,-1.50521838665009,0.02886483259499,20.98455429077148,0.00566352810711,-0.33880507946014,9.79248809814453,-5.40546178817749,0.16323952376842,-0.41265812516212
166,1953639857,-1.50447559356689,0.02931936085224,20.98449707031250,0.01595726422966,-0.33581700921059,9.76622200012207,-5.31851387023926,0.14673113822937,-0.39287114143372
167,1953648190,-1.50443553924561,0.02896264754236,20.98495864868164,-0.00486826989800,-0.34710225462914,9.78221225738525,-5.37302112579346,0.04929459467530,-0.33956795930862
168,1953656523,-1.50497508049011,0.02810809947550,20.98528480529785,-0.00671565532684,-0.33957448601723,9.78166675567627,-5.47181510925293,-0.01065552141517,-0.35022339224815
169,1953664856,-1.50511801242828,0.02840563654900,20.98660087585449,0.01562003884465,-0.34873870015144,9.79105281829834,-5.39743185043335,0.12598361074924,-0.24968755245209
170,1953673189,-1.50483906269073,0.02754967473447,20.98643875122070,-0.00077787420014,-0.33354124426842,9.76479339599609,-5.37381505966187,-0.00947726704180,-0.40834215283394
171,1953681522,-1.50452923774719,0.02782461605966,20.98509407043457,-0.01377538777888,-0.35411566495895,9.76255321502686,-5.34256553649902,0.13151627779007,-0.53912842273712
172,1953689855,-1.50423085689545,0.02893289551139,20.98479270935059,-0.02567414566875,-0.35206013917923,9.75874137878418,-5.37066507339478,0.22667317092419,-0.41802430152893
173,1953698188,-1.50441968441010,0.02924081310630,20.98521041870117,-0.00945091899484,-0.32699763774872,9.78942298889160,-5.40359163284302,0.12909573316574,-0.33461156487465
174,1953706521,-1.50463318824768,0.02939758822322,20.98540496826172,-0.01807050593197,-0.33901572227478,9.77486324310303,-5.43345737457275,0.11147312819958,-0.36317139863968
175,1953714854,-1.50602030754089,0.02946869470179,20.98599243164062,-0.00819830410182,-0.35543864965439,9.82617378234863,-5.54539251327515,0.10043343156576,-0.30689698457718
176,1953723187,-1.50620019435883,0.02940239012241,20.98636054992676,-0.00167976622470,-0.33489155769348,9.78849697113037,-5.42900133132935,0.08388661593199,-0.34203967452049
177,1953731520,-1.50648069381714,0.02966177836061,20.98710250854492,-0.00153570435941,-0.33603200316429,9.81701564788818,-5.41262006759644,0.12188532948494,-0.29512715339661
178,1953739853,-1.50682735443115,0.02992802113295,20.98662376403809,0.00245793396607,-0.36556598544121,9.80397987365723,-5.44885158538818,0.12676484882832,-0.44301098585129
179,1953748186,-1.51482200622559,0.03742589056492,20.98294639587402,0.00869554281235,-0.34127458930016,9.78654098510742,-5.32934904098511,0.11934952437878,-0.40647229552269
180,1953756519,-1.51412272453308,0.03649020940065,20.98238945007324,0.01463812403381,-0.36577552556992,9.77514457702637,-5.32404661178589,-0.01844224892557,-0.45644563436508
181,1953764852,-1.51407206058502,0.03632890060544,20.98237800598145,-0.00318911136128,-0.35234704613686,9.78099346160889,-5.37355852127075,0.07439654320478,-0.38400861620903
182,1953773185,-1.51391446590424,0.03586844727397,20.98263168334961,-0.01614544726908,-0.36594870686531,9.78822803497314,-5.38703298568726,0.03618010878563,-0.35729295015335
183,1953781518,-1.51373827457428,0.03577325120568,20.98271369934082,-0.00318674417213,-0.34974339604378,9.76990127563477,-5.35915136337280,0.08035185933113,-0.36773073673248
184,1953789851,-1.51413142681122,0.03568883612752,20.98223114013672,0.00791626423597,-0.36534261703491,9.78691482543945,-5.45360422134399,0.08351521939039,-0.44522666931152
185,1953798184,-1.51414346694946,0.03562485426664,20.98221206665039,-0.00306201237254,-0.34461000561714,9.76920986175537,-5.38123035430908,0.08790805935860,-0.40405178070068
186,1953806517,-1.51465833187103,0.03555799275637,20.98232078552246,-0.00403048703447,-0.35282158851624,9.80141735076904,-5.46780586242676,0.08268275111914,-0.37259745597839
187,1953814850,-1.51564955711365,0.03504087403417,20.98271179199219,-0.00673582311720,-0.34962913393974,9.79013156890869,-5.49831295013428,0.03173603862524,-0.37538942694664
188,1953823183,-1.51573359966278,0.03560108318925,20.98277854919434,-0.01053506694734,-0.34971266984940,9.80095958709717,-5.41709041595459,0.15896193683147,-0.37687507271767
189,1953831516,-1.51503396034241,0.03572125360370,20.98306846618652,-0.00719819497317,-0.35815069079399,9.82821273803711,-5.29501342773438,0.10652960091829,-0.36125037074089
190,1953839849,-1.51533579826355,0.03543467447162,20.98340606689453,-0.02221841923892,-0.34659367799759,9.81299972534180,-5.44329404830933,0.05706851184368,-0.34813588857651
191,1953848182,-1.51504933834076,0.03600964322686,20.98392677307129,0.00172739918344,-0.36615529656410,9.77344894409180,-5.34484577178955,0.16166426241398,-0.34702169895172
192,1953856515,-1.51474821567535,0.03658471256495,20.98382949829102,-0.00689052743837,-0.33211585879326,9.81605052947998,-5.37098455429077,0.16116476058960,-0.39588081836700
193,1953864848,-1.51523888111115,0.03647681325674,20.98390960693359,-0.01057457365096,-0.34641206264496,9.82678318023682,-5.43747949600220,0.08106905966997,-0.39244851469994
194,1953873181,-1.51555252075195,0.03670904040337,20.98401832580566,0.00944985914975,-0.33987218141556,9.79374599456787,-5.44429254531860,0.11769741028547,-0.37246936559677
195,1953881514,-1.51564550399780,0.03588877990842,20.98350143432617,-0.00063814391615,-0.34799844026566,9.79340744018555,-5.39079761505127,-0.00251019513234,-0.45542111992836
196,1953889847,-1.51557540893555,0.03619202971458,20.98345375061035,0.00248912675306,-0.34948223829269,9.78388595581055,-5.39832735061646,0.12895487248898,-0.39089879393578
197,1953898180,-1.51602661609650,0.03598677739501,20.98362541198730,-0.00047395721776,-0.35350385308266,9.78796863555908,-5.43403434753418,0.06929931044579,-0.37878334522247
198,1953906513,-1.51527726650238,0.03583179041743,20.98413658142090,-0.01576368324459,-0.34585508704185,9.78339099884033,-5.31700372695923,0.07050319015980,-0.32601800560951
199,1953914846,-1.51512801647186,0.03625170886517,20.98412513732910,-0.01891690678895,-0.35467961430550,9.78991985321045,-5.36135387420654,0.14528393745422,-0.40656194090843
200,1953923179,-1.51499354839325,0.03630629926920,20.98335266113281,-0.02368292957544,-0.36418074369431,9.78821468353271,-5.38983726501465,0.10102254897356,-0.47887092828751
201,1953931512,-1.51467847824097,0.03610635921359,20.98270797729492,-0.02610342390835,-0.36285802721977,9.78814888000488,-5.34129762649536,0.07189915329218,-0.45663774013519
202,1953939845,-1.51427793502808,0.03644265979528,20.98255348205566,-0.02682652883232,-0.35274219512939,9.78509998321533,-5.35869026184082,0.13273297250271,-0.40379559993744
203,1953948178,-1.51462078094482,0.03666992858052,20.98304748535156,-0.01398521009833,-0.35803249478340,9.78215217590332,-5.42031812667847,0.12046375125647,-0.35822790861130
204,1953956511,-1.51476919651031,0.03752351552248,20.98257827758789,-0.01213880442083,-0.35911607742310,9.78998374938965,-5.42422437667847,0.19644837081432,-0.44005256891251
205,1953964844,-1.51480555534363,0.03739032521844,20.98286056518555,-0.02852008678019,-0.34611374139786,9.80040931701660,-5.38367652893066,0.07713726907969,-0.35263118147850
206,1953973177,-1.51432478427887,0.03851226717234,20.98262405395508,-0.02720546722412,-0.35844019055367,9.75446796417236,-5.34884166717529,0.22593036293983,-0.41108283400536
207,1953981510,-1.51439666748047,0.03855690360069,20.98280906677246,-0.00246239802800,-0.36071205139160,9.79345893859863,-5.38804388046265,0.09917832165956,-0.36404234170914
208,1953989843,-1.51520824432373,0.03811037912965,20.98305892944336,0.00380963087082,-0.35097536444664,9.80141925811768,-5.50423049926758,0.03872872889042,-0.35820230841637
209,1953998176,-1.51522636413574,0.03859625756741,20.98330497741699,0.02253751829267,-0.37294140458107,9.76372051239014,-5.38167858123779,0.15075257420540,-0.36390140652657
210,1954006509,-1.51534664630890,0.03859009593725,20.98301696777344,0.00617024116218,-0.34572842717171,9.79778575897217,-5.42191934585571,0.09250581264496,-0.42161035537720
211,1954014842,-1.51551949977875,0.03851229697466,20.98317527770996,-0.00145799235906,-0.36055332422256,9.80756473541260,-5.40033864974976,0.08396345376968,-0.34908354282379
212,1954023175,-1.51601815223694,0.03856181353331,20.98314094543457,0.00858504790813,-0.36231413483620,9.80903244018555,-5.46733283996582,0.09750058501959,-0.39133426547050
213,1954031508,-1.51712477207184,0.03878176957369,20.98279762268066,-0.00167177000549,-0.36924368143082,9.81676959991455,-5.51146602630615,0.12178289145231,-0.42993491888046
214,1954039841,-1.51678407192230,0.03890207037330,20.98295974731445,-0.01174413599074,-0.34141963720322,9.76891613006592,-5.36556768417358,0.10457012057304,-0.36582249403000
215,1954048174,-1.51721572875977,0.03875201940536,20.98264884948730,0.01522154733539,-0.32322683930397,9.78347396850586,-5.43243312835693,0.07715007662773,-0.42848771810532
216,1954056507,-1.51618528366089,0.03926062956452,20.98307991027832,-0.00577293988317,-0.34373351931572,9.81041431427002,-5.28256464004517,0.15207171440125,-0.33312591910362
217,1954064840,-1.51611149311066,0.03952310979366,20.98240280151367,-0.01672115735710,-0.34603619575500,9.79603195190430,-5.37053680419922,0.12711064517498,-0.46625587344170
218,1954073173,-1.51570284366608,0.04079416021705,20.98312950134277,-0.00911671295762,-0.36813053488731,9.79874038696289,-5.35761404037476,0.24284854531288,-0.29567790031433
219,1954081506,-1.51543426513672,0.04081932082772,20.98416519165039,-0.00218306528404,-0.33709427714348,9.77652835845947,-5.34598588943481,0.09359442442656,-0.28087291121483
220,1954089839,-1.51542079448700,0.04016811028123,20.98430824279785,-0.02476330660284,-0.34730634093285,9.80032348632812,-5.40589714050293,0.01334501616657,-0.37162411212921
221,1954098172,-1.51576375961304,0.04049323126674,20.98452186584473,0.00533344084397,-0.33449429273605,9.82569313049316,-5.41929388046265,0.13122171163559,-0.35907316207886
222,1954106505,-1.51564204692841,0.04080339521170,20.98422622680664,-0.00161125161685,-0.33403891324997,9.79938411712646,-5.39247560501099,0.13168279826641,-0.42062419652939
223,1954114838,-1.51553583145142,0.04104719683528,20.98370742797852,-0.01319968234748,-0.35971301794052,9.80310726165771,-5.36734819412231,0.12338378280401,-0.44088500738144
224,1954123171,-1.51550948619843,0.04132515564561,20.98385810852051,-0.00434662587941,-0.35583820939064,9.79640007019043,-5.40295219421387,0.12494623661041,-0.36634764075279
225,1954131504,-1.51610720157623,0.04203759878874,20.98395729064941,-0.01163461897522,-0.35467141866684,9.80721759796143,-5.45102977752686,0.17855682969093,-0.36025142669678
226,1954139837,-1.51552939414978,0.04101382195950,20.98428726196289,-0.01122773531824,-0.32823434472084,9.79814052581787,-5.33763551712036,-0.03233797103167,-0.35005697607994
227,1954148170,-1.51555228233337,0.04094516858459,20.98463058471680,0.00256818695925,-0.33403322100639,9.77964210510254,-5.38175582885742,0.08384819328785,-0.34223181009293
228,1954156503,-1.51428425312042,0.04120765626431,20.98475646972656,0.00971937924623,-0.34178221225739,9.78856372833252,-5.25451660156250,0.12358867377043,-0.37100934982300
229,1954164836,-1.51462507247925,0.04118447005749,20.98448562622070,0.00765916286036,-0.35571753978729,9.80733108520508,-5.41874313354492,0.09178861230612,-0.43979638814926
230,1954173169,-1.51443445682526,0.04109356924891,20.98375511169434,0.00837312825024,-0.36683696508408,9.80420017242432,-5.38411235809326,0.08425802737474,-0.47488790750504
231,1954181502,-1.51470112800598,0.04134220629930,20.98242950439453,-0.01896399445832,-0.34458830952644,9.76903915405273,-5.41100692749023,0.12718747556210,-0.53595232963562
232,1954189835,-1.51399159431458,0.04223789647222,20.98170661926270,-0.01499969139695,-0.37220200896263,9.79454708099365,-5.32145977020264,0.20139193534851,-0.47040542960167
233,1954198168,-1.51406776905060,0.04268786311150,20.98186302185059,-0.00899718329310,-0.36148580908775,9.81096172332764,-5.38883781433105,0.14822956919670,-0.39977416396141
234,1954206501,-1.51404345035553,0.04250942543149,20.98235511779785,-0.01282172650099,-0.34376990795135,9.78090476989746,-5.40379667282104,0.06931211799383,-0.32754203677177
235,1954214834,-1.51423454284668,0.04260493442416,20.98284530639648,-0.01626390963793,-0.34324929118156,9.82164001464844,-5.40103006362915,0.10294361412525,-0.33660948276520
236,1954223167,-1.51380586624146,0.04196817800403,20.98286819458008,0.00838116742671,-0.34969988465309,9.78354835510254,-5.35525798797607,0.01654679700732,-0.38571196794510
237,1954231500,-1.51435446739197,0.04134892672300,20.98323249816895,-0.00357307260856,-0.35777860879898,9.81208705902100,-5.44518899917603,0.01839102059603,-0.35323306918144
238,1954239833,-1.51402378082275,0.04114858061075,20.98427391052246,-0.00204885681160,-0.34586656093597,9.81839084625244,-5.36760425567627,0.06498332321644,-0.26153415441513
239,1954248166,-1.51478731632233,0.04104573279619,20.98418807983398,0.00350324972533,-0.35697886347771,9.80049324035645,-5.47116231918335,0.08142765611410,-0.40369316935539
240,1954256499,-1.51431870460510,0.04163825139403,20.98387527465820,-0.00838686525822,-0.33929207921028,9.77292346954346,-5.35041570663452,0.16411039233208,-0.42333927750587
241,1954264832,-1.51462447643280,0.04200817644596,20.98412132263184,0.00816266052425,-0.35751751065254,9.81546974182129,-5.41554117202759,0.13704895973206,-0.36157053709030
242,1954273165,-1.51435589790344,0.04221679270267,20.98370933532715,-0.01082212571055,-0.34682700037956,9.82337760925293,-5.37467336654663,0.11841460317373,-0.43537795543671
243,1954281498,-1.51396465301514,0.04218440130353,20.98328590393066,-0.00950174592435,-0.34091478586197,9.79256343841553,-5.33297395706177,0.09046947956085,-0.43653056025505
244,1954289831,-1.51438403129578,0.04218496382236,20.98373794555664,-0.01103988196701,-0.34967324137688,9.80729103088379,-5.45644664764404,0.09078965336084,-0.33219102025032
245,1954298164,-1.51406848430634,0.04178184643388,20.98316764831543,-0.01198154035956,-0.35071644186974,9.80122184753418,-5.34149026870728,0.04798826947808,-0.46369451284409
246,1954306497,-1.51332664489746,0.04172954708338,20.98341369628906,-0.02278896607459,-0.35338339209557,9.78288650512695,-5.31783485412598,0.08388661593199,-0.35730576515198
247,1954314830,-1.51352441310883,0.04166274517775,20.98353576660156,-0.00256730080582,-0.35910236835480,9.78514766693115,-5.40272140502930,0.08637120574713,-0.38315057754517
248,1954323163,-1.51373374462128,0.04140362516046,20.98350524902344,-0.01578919216990,-0.36474120616913,9.78691387176514,-5.43221616744995,0.06105153262615,-0.39059147238731
249,1954331496,-1.51381182670593,0.04198858886957,20.98390197753906,-0.04173306375742,-0.33741831779480,9.75987052917480,-5.38712215423584,0.16270163655281,-0.34142497181892
250,1954339829,-1.51353418827057,0.04314927756786,20.98348808288574,-0.00313137122430,-0.36230871081352,9.78689956665039,-5.37417411804199,0.23179602622986,-0.43288055062294
251,1954348162,-1.51373934745789,0.04409790039062,20.98334503173828,-0.00286451657303,-0.33945992588997,9.78307437896729,-5.40437316894531,0.20753934979439,-0.39878800511360
252,1954356495,-1.51345264911652,0.04411403834820,20.98284912109375,-0.00771704548970,-0.34211838245392,9.79534721374512,-5.37168836593628,0.09706514328718,-0.44517537951469
253,1954364828,-1.51360738277435,0.04416110366583,20.98312377929688,-0.00181728822645,-0.36216419935226,9.80977439880371,-5.39794397354126,0.09711636602879,-0.35655012726784
254,1954373161,-1.51278257369995,0.04391540214419,20.98298263549805,0.00137475843076,-0.36422601342201,9.79239654541016,-5.30759000778198,0.06342084705830,-0.40261736512184
255,1954381494,-1.51300370693207,0.04333782568574,20.98230743408203,-0.00109375477768,-0.34614825248718,9.77270793914795,-5.40543603897095,0.02604967728257,-0.46698591113091
256,1954389827,-1.51320374011993,0.04314794018865,20.98190498352051,-0.00286236545071,-0.36570298671722,9.78775024414062,-5.43075609207153,0.07104107737541,-0.43582618236542
257,1954398160,-1.51327311992645,0.04288601875305,20.98124885559082,0.00879322364926,-0.33892095088959,9.78954696655273,-5.38823652267456,0.06427892297506,-0.45531859993935
258,1954406493,-1.51288270950317,0.04261353239417,20.98131752014160,-0.00451583275571,-0.35646963119507,9.77947521209717,-5.35975313186646,0.05846449360251,-0.37855279445648
259,1954414826,-1.51377308368683,0.04132707417011,20.98151397705078,0.01045002229512,-0.35484316945076,9.78910732269287,-5.48539113998413,-0.06129486486316,-0.38142159581184
260,1954423159,-1.51426064968109,0.04077818244696,20.98146057128906,-0.00522309495136,-0.32778289914131,9.78974628448486,-5.46507883071899,0.02610090561211,-0.39394691586494
261,1954431492,-1.51324844360352,0.04031260311604,20.98132514953613,-0.01533877197653,-0.36089181900024,9.82418441772461,-5.25720691680908,0.03860065340996,-0.39905697107315
262,1954439825,-1.51392781734467,0.04043250530958,20.98157119750977,-0.03237095475197,-0.35201641917229,9.78487396240234,-5.48868227005005,0.10563310980797,-0.35674229264259
263,1954448158,-1.51318836212158,0.04068052768707,20.98194503784180,-0.03004927746952,-0.36034509539604,9.77312088012695,-5.29019784927368,0.12323007732630,-0.34052842855453
264,1954456491,-1.51269674301147,0.04028627276421,20.98174095153809,-0.01369055733085,-0.34540894627571,9.81517219543457,-5.34752225875854,0.04508105292916,-0.41206899285316
265,1954464824,-1.51221930980682,0.03981171175838,20.98126983642578,-0.01623039133847,-0.35856440663338,9.78498268127441,-5.32169008255005,0.03781941533089,-0.45770078897476
266,1954473157,-1.51233434677124,0.04006918147206,20.98052024841309,-0.00460840435699,-0.34422874450684,9.80234241485596,-5.42150878906250,0.12511272728443,-0.47693702578545
267,1954481490,-1.51122951507568,0.03985493630171,20.98079299926758,-0.01825783774257,-0.34708952903748,9.79725170135498,-5.24643564224243,0.06653297692537,-0.34230861067772
268,1954489823,-1.51122331619263,0.04002243280411,20.98060226440430,0.00219265441410,-0.34163737297058,9.76795959472656,-5.40602540969849,0.11359913647175,-0.40868794918060
269,1954498156,-1.51113438606262,0.03999874368310,20.98137474060059,-0.00014707831724,-0.34172427654266,9.79157638549805,-5.36757802963257,0.08903507888317,-0.32013946771622
270,1954506489,-1.51155292987823,0.03971683606505,20.98162841796875,0.01269512064755,-0.36220124363899,9.78538513183594,-5.45730495452881,0.05763202905655,-0.35815101861954
271,1954514822,-1.51168620586395,0.03944907337427,20.98238563537598,0.00976679567248,-0.34135711193085,9.79453182220459,-5.39484357833862,0.05831080675125,-0.31351819634438
272,1954523155,-1.51149296760559,0.04037047550082,20.98214149475098,-0.01404284872115,-0.34033232927322,9.78483295440674,-5.38312625885010,0.20437599718571,-0.41281187534332
273,1954531488,-1.51178824901581,0.04090693965554,20.98288726806641,0.00092399865389,-0.35694444179535,9.80212211608887,-5.41424751281738,0.15629805624485,-0.31629738211632
274,1954539821,-1.51151025295258,0.04040062427521,20.98234558105469,0.02791947126389,-0.34007695317268,9.77431201934814,-5.37341833114624,0.03363149240613,-0.45215532183647
275,1954548154,-1.51148664951324,0.04101960733533,20.98279953002930,0.00668817572296,-0.35018476843834,9.81840419769287,-5.37621068954468,0.16703045368195,-0.35284891724586
276,1954556487,-1.51155185699463,0.04089314863086,20.98354721069336,-0.02428355999291,-0.37189418077469,9.80916976928711,-5.41382455825806,0.07344881445169,-0.29602369666100
277,1954564820,-1.51100325584412,0.04029771685600,20.98422431945801,-0.02417640946805,-0.35227647423744,9.78899002075195,-5.31310939788818,0.02168245054781,-0.33098712563515
278,1954573153,-1.51062405109406,0.03922380879521,20.98376464843750,-0.00790429860353,-0.34212920069695,9.80207729339600,-5.36118698120117,-0.03550133109093,-0.44453501701355
279,1954581486,-1.51008820533752,0.03973770141602,20.98336219787598,0.01357652340084,-0.35399317741394,9.77288913726807,-5.31494140625000,0.15714333951473,-0.42851337790489
280,1954589819,-1.51095342636108,0.03844500705600,20.98295021057129,-0.00833210069686,-0.34788882732391,9.76529121398926,-5.51039028167725,-0.06226820871234,-0.43989890813828
281,1954598152,-1.51018702983856,0.03863385319710,20.98322486877441,0.00183700886555,-0.36328610777855,9.77816963195801,-5.28782796859741,0.11545615643263,-0.36069962382317
282,1954606485,-1.50954651832581,0.03891607746482,20.98368644714355,-0.00348411197774,-0.34929665923119,9.77666664123535,-5.32950210571289,0.12472851574421,-0.32962960004807
283,1954614818,-1.50968754291534,0.03901244699955,20.98402976989746,0.01776192709804,-0.35786089301109,9.81380271911621,-5.39704751968384,0.10398097336292,-0.34297457337379
284,1954623151,-1.50893115997314,0.03904582560062,20.98428726196289,-0.00252576870844,-0.35276404023170,9.80632114410400,-5.31546640396118,0.09470863640308,-0.35501328110695
285,1954631484,-1.50841677188873,0.03990405797958,20.98395919799805,-0.00441336818039,-0.35011106729507,9.80346775054932,-5.31861591339111,0.19760099053383,-0.41751199960709
286,1954639817,-1.50776827335358,0.03907816112041,20.98342895507812,0.01183163374662,-0.34698441624641,9.79836273193359,-5.32823467254639,-0.00554548250511,-0.45215532183647
287,1954648150,-1.50740373134613,0.03984071314335,20.98347854614258,0.00481563247740,-0.34775355458260,9.79329109191895,-5.33526611328125,0.18456338346004,-0.38242056965828
288,1954656483,-1.50664961338043,0.03925113007426,20.98327445983887,-0.00725889485329,-0.33390343189240,9.76877498626709,-5.31677246093750,0.02247649244964,-0.41379800438881
289,1954664816,-1.50662469863892,0.03871119767427,20.98360061645508,0.00017515491345,-0.34805187582970,9.84482765197754,-5.37644052505493,0.02820127457380,-0.35891947150230
290,1954673149,-1.50532102584839,0.03864161670208,20.98269653320312,-0.01725204475224,-0.34409034252167,9.77014446258545,-5.24980354309082,0.08601260185242,-0.49572509527206
291,1954681482,-1.50614213943481,0.03853926807642,20.98349189758301,-0.02594663947821,-0.34047153592110,9.75240325927734,-5.47729682922363,0.08018536865711,-0.30532169342041
292,1954689815,-1.50718510150909,0.03815971314907,20.98356056213379,-0.01079941634089,-0.35741087794304,9.76954460144043,-5.53085660934448,0.04458158090711,-0.37955176830292
293,1954698148,-1.50667309761047,0.03809607774019,20.98363494873047,-0.02071648277342,-0.34389221668243,9.82485008239746,-5.31731033325195,0.08620471507311,-0.37235414981842
294,1954706481,-1.50677585601807,0.03744739294052,20.98282623291016,-0.01621549949050,-0.34579622745514,9.81761360168457,-5.41970348358154,0.01703346520662,-0.48578676581383
295,1954714814,-1.50583875179291,0.03696408122778,20.98265457153320,0.00299591408111,-0.34270435571671,9.79535865783691,-5.26637649536133,0.03568063303828,-0.40848302841187
296,1954723147,-1.50542306900024,0.03724779933691,20.98235893249512,-0.01177289336920,-0.35200965404510,9.79750251770020,-5.35650014877319,0.12731556594372,-0.42030403017998
297,1954731480,-1.50505232810974,0.03685194253922,20.98241233825684,-0.00877729337662,-0.36422088742256,9.77626800537109,-5.33526563644409,0.04727107286453,-0.41815239191055
298,1954739813,-1.50501167774200,0.03633954375982,20.98191452026367,0.00497497757897,-0.34148493409157,9.78200149536133,-5.40229845046997,0.03105726093054,-0.44860774278641
299,1954748146,-1.50476717948914,0.03680519387126,20.98181915283203,0.00812364369631,-0.34738591313362,9.81286144256592,-5.34964799880981,0.15012502670288,-0.39995345473289
300,1954756479,-1.50406658649445,0.03708347678185,20.98162841796875,0.00704670837149,-0.35624685883522,9.77816677093506,-5.32229280471802,0.12504871189594,-0.40838059782982
301,1954764812,-1.50532257556915,0.03696573525667,20.98195266723633,0.01044254377484,-0.34079784154892,9.77126789093018,-5.52981901168823,0.07881499826908,-0.34780290722847
302,1954773145,-1.50518095493317,0.03636134043336,20.98219871520996,-0.01830108277500,-0.34304884076118,9.80134677886963,-5.38918352127075,0.01850628480315,-0.35824066400528
303,1954781478,-1.50577819347382,0.03634746745229,20.98274421691895,-0.01181978918612,-0.35790559649467,9.81156539916992,-5.45181083679199,0.09035421907902,-0.30829295516014
304,1954789811,-1.50563848018646,0.03585953637958,20.98263740539551,-0.02311102487147,-0.33371329307556,9.77342700958252,-5.39037513732910,0.03478413447738,-0.40133664011955
305,1954798144,-1.50553441047668,0.03614819422364,20.98277091979980,0.01072910893708,-0.32623261213303,9.76761436462402,-5.36579799652100,0.12603484094143,-0.36254385113716
306,1954806477,-1.50544643402100,0.03505576401949,20.98341369628906,-0.00678842933849,-0.35312873125076,9.81037712097168,-5.39679098129272,-0.04013750702143,-0.31400495767593
307,1954814810,-1.50515341758728,0.03512358292937,20.98299789428711,-0.00565398344770,-0.35980248451233,9.79279327392578,-5.34426927566528,0.10322537273169,-0.45369216799736
308,1954823143,-1.50535535812378,0.03534412011504,20.98248100280762,-0.01170135941356,-0.34687224030495,9.79918766021729,-5.43015432357788,0.12041252851486,-0.44616159796715
309,1954831476,-1.50603008270264,0.03533736988902,20.98306846618652,0.00314421951771,-0.34246242046356,9.79253673553467,-5.46094226837158,0.09031578898430,-0.32075428962708
310,1954839809,-1.50578176975250,0.03560030832887,20.98290443420410,-0.00802287366241,-0.35831913352013,9.79100608825684,-5.37518596649170,0.12489501386881,-0.40471774339676
311,1954848142,-1.50619411468506,0.03632121160626,20.98219108581543,-0.00255791121162,-0.33555969595909,9.80349826812744,-5.43030786514282,0.18134880065918,-0.47146838903427
312,1954856475,-1.50562179088593,0.03653364628553,20.98195266723633,0.00935428310186,-0.34327471256256,9.79764842987061,-5.33803224563599,0.11899094283581,-0.41497626900673
313,1954864808,-1.50540554523468,0.03510690480471,20.98244667053223,-0.00596586521715,-0.36003842949867,9.79284954071045,-5.35317039489746,-0.07963465899229,-0.32911729812622
314,1954873141,-1.50524890422821,0.03547203168273,20.98237800598145,-0.01373816560954,-0.37280878424644,9.78705310821533,-5.38774967193604,0.13635739684105,-0.39387011528015
315,1954881474,-1.50495195388794,0.03524489700794,20.98218345642090,0.00254551926628,-0.34309580922127,9.79849243164062,-5.34218168258667,0.06648175418377,-0.40562707185745
316,1954889807,-1.50472819805145,0.03567443042994,20.98304557800293,0.01123263034970,-0.32858002185822,9.79857063293457,-5.37978363037109,0.14002022147179,-0.28134676814079
317,1954898140,-1.50435626506805,0.03558870404959,20.98288154602051,-0.00540005648509,-0.33698883652687,9.80876731872559,-5.33512544631958,0.08470628410578,-0.40530684590340
318,1954906473,-1.50473356246948,0.03656557947397,20.98277091979980,0.00162863230798,-0.34119051694870,9.80923271179199,-5.45179843902588,0.20862793922424,-0.39677736163139
319,1954914806,-1.50441956520081,0.03692200034857,20.98232078552246,-0.01392574328929,-0.35641339421272,9.77308082580566,-5.34150314331055,0.13829125463963,-0.44813382625580
320,1954923139,-1.50437080860138,0.03712837770581,20.98238945007324,-0.02041282132268,-0.37814638018608,9.78998374938965,-5.40104293823242,0.11706985533237,-0.37801486253738
321,1954931472,-1.50443983078003,0.03678836300969,20.98295974731445,0.00314180552959,-0.34730687737465,9.77949333190918,-5.38774919509888,0.05054968968034,-0.32350775599480
322,1954939805,-1.50429046154022,0.03714489191771,20.98341751098633,-0.01245195232332,-0.33663555979729,9.80742359161377,-5.38851833343506,0.13418017327785,-0.33044925332069
323,1954948138,-1.50419306755066,0.03598456084728,20.98350906372070,-0.01517992559820,-0.33814886212349,9.78705787658691,-5.36818027496338,-0.04664352163672,-0.37727206945419
324,1954956471,-1.50323772430420,0.03602831810713,20.98363685607910,-0.01139780506492,-0.34676808118820,9.78116512298584,-5.29229784011841,0.09812812507153,-0.37039461731911
325,1954964804,-1.50306463241577,0.03628807887435,20.98403739929199,-0.00067140755709,-0.33992204070091,9.80073356628418,-5.35817766189575,0.12330693006516,-0.33883789181709
326,1954973137,-1.50340282917023,0.03620955720544,20.98405647277832,-0.00151252653450,-0.34481361508369,9.79537582397461,-5.44707202911377,0.08210643380880,-0.38446965813637
327,1954981470,-1.50354242324829,0.03575857728720,20.98470115661621,0.00337204732932,-0.35980194807053,9.79722213745117,-5.39740610122681,0.03915135934949,-0.33769804239273
328,1954989803,-1.50324904918671,0.03608346730471,20.98479080200195,-0.01780550926924,-0.34348991513252,9.77232170104980,-5.37131786346436,0.13004347681999,-0.37477469444275
329,1954998136,-1.50320684909821,0.03601134940982,20.98550987243652,-0.02278126962483,-0.35582342743874,9.79930400848389,-5.37305974960327,0.08250346034765,-0.30676889419556
330,1955006469,-1.50311446189880,0.03542101383209,20.98526382446289,-0.00117082218640,-0.34407353401184,9.79502391815186,-5.39478015899658,0.02182332612574,-0.41742235422134
331,1955014802,-1.50311124324799,0.03592127561569,20.98527717590332,-0.01336529012769,-0.34429946541786,9.77531814575195,-5.37916898727417,0.15391594171524,-0.38170334696770
332,1955023135,-1.50310194492340,0.03553910180926,20.98583412170410,0.00316091720015,-0.35569280385971,9.81895446777344,-5.40588378906250,0.04381314292550,-0.32176598906517
333,1955031468,-1.50337505340576,0.03519223257899,20.98543930053711,-0.00403785705566,-0.35540348291397,9.77632331848145,-5.41164731979370,0.05308550223708,-0.44555965065956
334,1955039801,-1.50250554084778,0.03504100814462,20.98587989807129,-0.01331274025142,-0.32498359680176,9.79775428771973,-5.30263376235962,0.07316707074642,-0.33439385890961
335,1955048134,-1.50331997871399,0.03518017008901,20.98616027832031,-0.00040127092507,-0.33770108222961,9.81600093841553,-5.47701454162598,0.10948804020882,-0.35014659166336
336,1955056467,-1.50243878364563,0.03503708168864,20.98647689819336,-0.01985633186996,-0.34311479330063,9.77676868438721,-5.30146837234497,0.07274442911148,-0.34941661357880
337,1955064800,-1.50269472599030,0.03546231612563,20.98704719543457,0.00748420180753,-0.33979746699333,9.79034042358398,-5.40898370742798,0.14422094821930,-0.32916852831841
338,1955073133,-1.50288629531860,0.03604285791516,20.98711585998535,-0.02470636554062,-0.33948296308517,9.78100013732910,-5.42955160140991,0.16174107789993,-0.37509483098984
339,1955081466,-1.50259041786194,0.03655477613211,20.98783683776855,0.00455758906901,-0.34984964132309,9.81163787841797,-5.34280920028687,0.15307067334652,-0.33704492449760
340,1955089799,-1.50269865989685,0.03646304458380,20.98763084411621,0.01199976727366,-0.35913613438606,9.80007648468018,-5.41988277435303,0.08222170174122,-0.41171041131020
341,1955098132,-1.50314486026764,0.03677352890372,20.98779296875000,0.00410485500470,-0.33764761686325,9.79016399383545,-5.43239498138428,0.13005629181862,-0.36410635709763
342,1955106465,-1.50300705432892,0.03740299865603,20.98809623718262,-0.00558458361775,-0.34014853835106,9.78213596343994,-5.38992691040039,0.16571129858494,-0.34740591049194
343,1955114798,-1.50287592411041,0.03820845857263,20.98885726928711,-0.01126062031835,-0.35439833998680,9.80829429626465,-5.36394071578979,0.18898181617260,-0.30925345420837
344,1955123131,-1.50249207019806,0.03825026750565,20.98828697204590,-0.01906263828278,-0.34675693511963,9.80478572845459,-5.36025285720825,0.09881971776485,-0.45438373088837
345,1955131464,-1.50293195247650,0.03837417066097,20.98832130432129,-0.01582959108055,-0.34606370329857,9.80257034301758,-5.43220281600952,0.10893733799458,-0.38174170255661
346,1955139797,-1.50263416767120,0.03954261541367,20.98748016357422,-0.00939849857241,-0.34258797764778,9.79621315002441,-5.37117719650269,0.23440864682198,-0.48426276445389
347,1955148130,-1.50286066532135,0.03873139619827,20.98754501342773,0.00801620166749,-0.33783707022667,9.77029991149902,-5.40407896041870,-0.00423915637657,-0.39552223682404
348,1955156463,-1.50242114067078,0.03815715014935,20.98752212524414,-0.01840469986200,-0.34013667702675,9.80136966705322,-5.35464334487915,0.02443598024547,-0.39214116334915
349,1955164796,-1.50257265567780,0.03834813088179,20.98803329467773,-0.00732300151139,-0.35669317841530,9.77130126953125,-5.39671373367310,0.11502070724964,-0.34953179955482
350,1955173129,-1.50288259983063,0.03825531154871,20.98787689208984,-0.00279874494299,-0.34612083435059,9.79170608520508,-5.44448566436768,0.08103063702583,-0.40688216686249
351,1955181462,-1.50324499607086,0.03796401247382,20.98761558532715,-0.00310509349220,-0.36438843607903,9.79099082946777,-5.42163658142090,0.05895115807652,-0.42445346713066
352,1955189795,-1.50356006622314,0.03665730729699,20.98734855651855,-0.01122727617621,-0.34899625182152,9.77661991119385,-5.44512557983398,-0.06360014528036,-0.42322397232056
353,1955198128,-1.50405943393707,0.03727210685611,20.98769569396973,0.00327971135266,-0.36252039670944,9.80710029602051,-5.43902921676636,0.16586498916149,-0.34487009048462
354,1955206461,-1.50419569015503,0.03800923749804,20.98771286010742,-0.00841738656163,-0.34453809261322,9.80737113952637,-5.42325115203857,0.17954298853874,-0.38129353523254
355,1955214794,-1.50501453876495,0.03836664557457,20.98726272583008,-0.01786364614964,-0.35557830333710,9.80788326263428,-5.47700262069702,0.13867548108101,-0.44057768583298
356,1955223127,-1.50581395626068,0.03856629505754,20.98733520507812,-0.00830735918134,-0.34599328041077,9.77848911285400,-5.50352621078491,0.11553300917149,-0.37786123156548
357,1955231460,-1.50615906715393,0.03796691820025,20.98723602294922,-0.00889690592885,-0.32000061869621,9.78447628021240,-5.42019081115723,0.02128542959690,-0.38819655776024
358,1955239793,-1.50581276416779,0.03766636177897,20.98729896545410,-0.00543732428923,-0.34435468912125,9.77577495574951,-5.36513233184814,0.05633851513267,-0.38032019138336
359,1955248126,-1.50562465190887,0.03704003989697,20.98721885681152,0.00855169259012,-0.35003149509430,9.79533672332764,-5.35534715652466,0.01876242831349,-0.40378281474113
360,1955256459,-1.50549674034119,0.03645664080977,20.98699951171875,-0.00198653223924,-0.35016566514969,9.78401470184326,-5.39212989807129,0.02237403392792,-0.41536045074463
361,1955264792,-1.50532257556915,0.03644901514053,20.98687362670898,0.00259785773233,-0.33439680933952,9.81098556518555,-5.35799884796143,0.09451653063297,-0.42021438479424
362,1955273125,-1.50500774383545,0.03598453477025,20.98718833923340,-0.00389967556112,-0.34417840838432,9.79839229583740,-5.36800050735474,0.03477132320404,-0.34973672032356
363,1955281458,-1.50473213195801,0.03580161184072,20.98739051818848,0.02097451873124,-0.35395362973213,9.79200839996338,-5.34622907638550,0.07047756761312,-0.34853288531303
364,1955289791,-1.50520193576813,0.03467468172312,20.98757934570312,0.01706870459020,-0.34681159257889,9.78718566894531,-5.46320962905884,-0.04356981441379,-0.36636042594910
365,1955298124,-1.50540697574615,0.03437391296029,20.98749160766602,-0.00163210998289,-0.34719425439835,9.78641891479492,-5.40347671508789,0.05690202116966,-0.37371167540550
366,1955306457,-1.50512957572937,0.03457913920283,20.98744392395020,-0.00210290728137,-0.33636549115181,9.77993488311768,-5.37348222732544,0.11699301749468,-0.39097568392754
367,1955314790,-1.50501453876495,0.03584785014391,20.98760986328125,-0.00863683316857,-0.35883414745331,9.79631233215332,-5.36575984954834,0.24517945945263,-0.35925242304802
368,1955323123,-1.50471043586731,0.03569128736854,20.98782920837402,-0.00688704708591,-0.33086824417114,9.80995750427246,-5.37036991119385,0.07233460247517,-0.36099418997765
369,1955331456,-1.50449597835541,0.03594371303916,20.98783683776855,-0.00469020288438,-0.34974926710129,9.77477169036865,-5.35147953033447,0.12598362565041,-0.43720933794975
370,1955339789,-1.50453650951385,0.03654442355037,20.98750114440918,-0.01473664306104,-0.34714937210083,9.77902221679688,-5.41199350357056,0.16505813598633,-0.42510667443275
371,1955348122,-1.50451207160950,0.03620469942689,20.98737144470215,-0.00280872709118,-0.34363573789597,9.79016780853271,-5.37459659576416,0.05225304141641,-0.40663880109787
372,1955356455,-1.50402736663818,0.03558637946844,20.98779487609863,0.00426660338417,-0.32746478915215,9.80588722229004,-5.34908437728882,0.01639311015606,-0.33819752931595
373,1955364788,-1.50379908084869,0.03571594506502,20.98816680908203,0.01983245462179,-0.34157255291939,9.78553295135498,-5.35179996490479,0.10765663534403,-0.34339725971222
374,1955373121,-1.50359690189362,0.03633359074593,20.98750877380371,-0.00325947743841,-0.35018432140350,9.82095909118652,-5.38256311416626,0.16892588138580,-0.46393787860870
375,1955381454,-1.50334417819977,0.03737765550613,20.98812866210938,-0.00845560338348,-0.32716518640518,9.79465007781982,-5.34807300567627,0.21627378463745,-0.30168443918228
376,1955389787,-1.50325787067413,0.03828169777989,20.98809242248535,0.00135931326076,-0.32477480173111,9.78455352783203,-5.39698362350464,0.20068754255772,-0.38817095756531
377,1955398120,-1.50347208976746,0.03737741336226,20.98816871643066,0.01562709547579,-0.35361531376839,9.82255268096924,-5.40448856353760,-0.01489467825741,-0.38174179196358
378,1955406453,-1.50350224971771,0.03744931891561,20.98880958557129,-0.01144059188664,-0.34646219015121,9.79703330993652,-5.40972661972046,0.09921674430370,-0.30906137824059
379,1955414786,-1.50319433212280,0.03810322657228,20.98904800415039,0.01863038539886,-0.35843840241432,9.77845859527588,-5.34338569641113,0.17078292369843,-0.35854807496071
380,1955423119,-1.50311362743378,0.03813700377941,20.98936462402344,0.00125253177248,-0.35907551646233,9.79009723663330,-5.39667654037476,0.09500320255756,-0.34793099761009
381,1955431452,-1.50309514999390,0.03783487901092,20.98928070068359,-0.02417821623385,-0.35047006607056,9.80229568481445,-5.37661981582642,0.05834923312068,-0.41030159592628
382,1955439785,-1.50213551521301,0.03831771388650,20.98981094360352,-0.00380273140036,-0.35137009620667,9.79897403717041,-5.29169607162476,0.14816555380821,-0.32222706079483
383,1955448118,-1.50144577026367,0.03880730271339,20.99064254760742,-0.01231609098613,-0.36101171374321,9.77975082397461,-5.29608917236328,0.14971521496773,-0.28794243931770
384,1955456451,-1.50105714797974,0.03978716582060,20.99080848693848,-0.00836195237935,-0.36215782165527,9.79339313507080,-5.35971498489380,0.20944762229919,-0.36335074901581
385,1955464784,-1.50069177150726,0.04019201174378,20.99090385437012,-0.00633461121470,-0.33026173710823,9.77470016479492,-5.33513832092285,0.14109602570534,-0.36451616883278
386,1955473117,-1.49978744983673,0.03960232436657,20.99181747436523,-0.00755889387801,-0.34534913301468,9.78105163574219,-5.29875230789185,0.01746890693903,-0.27879813313484
387,1955481450,-1.49956059455872,0.03946310654283,20.99179267883301,0.00352591648698,-0.36427101492882,9.78597450256348,-5.35091686248779,0.07741903513670,-0.41041693091393
388,1955489783,-1.50001025199890,0.03887683153152,20.99154090881348,-0.02322342433035,-0.34886825084686,9.80309963226318,-5.46068620681763,0.02274543978274,-0.41898486018181
389,1955498116,-1.49964833259583,0.03896765038371,20.99113845825195,0.00668867584318,-0.35979965329170,9.81968784332275,-5.33512592315674,0.10627347230911,-0.43158704042435
390,1955506449,-1.49983739852905,0.03843972459435,20.99213409423828,0.01158417668194,-0.36581495404243,9.79654788970947,-5.42955160140991,0.02552458643913,-0.26884701848030
391,1955514782,-1.49983942508698,0.03939278051257,20.99256706237793,0.01354928594083,-0.34886029362679,9.78550148010254,-5.37893819808960,0.20679651200771,-0.34292340278625
392,1955523115,-1.49939739704132,0.04002913087606,20.99300384521484,0.01028539706022,-0.35530084371567,9.76060009002686,-5.35454082489014,0.16715849936008,-0.33251118659973
393,1955531448,-1.49930012226105,0.03979533538222,20.99286079406738,0.01321242935956,-0.36859077215195,9.79314804077148,-5.36706638336182,0.06513699889183,-0.40379559993744
394,1955539781,-1.49988961219788,0.03997897356749,20.99316978454590,0.00040520375478,-0.35878330469131,9.78605842590332,-5.47742509841919,0.11327897012234,-0.34973677992821
395,1955548114,-1.50030410289764,0.03982619941235,20.99337196350098,-0.00336766080000,-0.35551396012306,9.79631519317627,-5.42934751510620,0.07462707161903,-0.36725690960884
396,1955556447,-1.50017940998077,0.03900030627847,20.99353599548340,-0.02173029631376,-0.34014520049095,9.79077720642090,-5.39186048507690,-0.00815813429654,-0.36998480558395
397,1955564780,-1.50115132331848,0.03889019787312,20.99372482299805,-0.02164036594331,-0.33569318056107,9.83309078216553,-5.49434328079224,0.08142764866352,-0.36386299133301
398,1955573113,-1.50068223476410,0.03847512975335,20.99391937255859,-0.01123478356749,-0.34322559833527,9.80432224273682,-5.35092926025391,0.04008628055453,-0.36450338363647
399,1955581446,-1.50124096870422,0.03817361593246,20.99505233764648,-0.01206929050386,-0.35757091641426,9.80894756317139,-5.44485664367676,0.05476323887706,-0.24421894550323
400,1955589779,-1.50128543376923,0.03895265609026,20.99428367614746,0.01358149386942,-0.33575105667114,9.78862667083740,-5.41177558898926,0.18750901520252,-0.47598937153816
401,1955598112,-1.50153470039368,0.03894078359008,20.99495315551758,-0.00323700602166,-0.35021579265594,9.80037212371826,-5.40912485122681,0.09149405360222,-0.34931415319443
402,1955606445,-1.50155067443848,0.03959768638015,20.99526023864746,-0.00477768667042,-0.34602734446526,9.81156921386719,-5.40738296508789,0.16836237907410,-0.34734186530113
403,1955614778,-1.50077533721924,0.03993249684572,20.99539756774902,0.00117146072444,-0.32813170552254,9.81639385223389,-5.28499794006348,0.13406491279602,-0.36086615920067
404,1955623111,-1.50027763843536,0.04068861156702,20.99540138244629,0.00084042677190,-0.35651671886444,9.79803752899170,-5.34692049026489,0.18302650749683,-0.38434162735939
405,1955631444,-1.50015580654144,0.04073551669717,20.99566841125488,0.02350213006139,-0.34660714864731,9.78591728210449,-5.36328792572021,0.09775672852993,-0.34922444820404
406,1955639777,-1.49976718425751,0.04059427231550,20.99626922607422,0.00204536574893,-0.35755896568298,9.81068325042725,-5.36081552505493,0.07346162199974,-0.31534963846207
407,1955648110,-1.49940884113312,0.04090005531907,20.99630165100098,0.00087747391080,-0.34932658076286,9.77035140991211,-5.33678960800171,0.12963365018368,-0.38563513755798
408,1955656443,-1.49924945831299,0.04037487506866,20.99628448486328,0.01006776187569,-0.33722472190857,9.80396080017090,-5.38751888275146,0.02875197865069,-0.39046338200569
409,1955664776,-1.49905085563660,0.04046219959855,20.99596786499023,-0.01141421496868,-0.34498134255409,9.78286361694336,-5.35583353042603,0.10490308701992,-0.41802427172661
410,1955673109,-1.49794602394104,0.04097913578153,20.99606132507324,-0.00742614734918,-0.33563899993896,9.82868576049805,-5.27357435226440,0.15383909642696,-0.37290486693382
411,1955681442,-1.49840772151947,0.03979608044028,20.99580955505371,-0.01499288342893,-0.34772115945816,9.81023883819580,-5.43427801132202,-0.04755282774568,-0.42853894829750
412,1955689775,-1.49814426898956,0.03983044251800,20.99596786499023,-0.01205249037594,-0.35425373911858,9.76988506317139,-5.37408447265625,0.09610461443663,-0.36619392037392
413,1955698108,-1.49824595451355,0.03964853659272,20.99600601196289,0.00451669888571,-0.34353637695312,9.80448722839355,-5.39187288284302,0.07173266261816,-0.40181046724319
414,1955706441,-1.49865627288818,0.03940109908581,20.99623489379883,0.00161898613442,-0.33337676525116,9.80603122711182,-5.45608806610107,0.06169188395143,-0.35980316996574
415,1955714774,-1.49842703342438,0.03951894864440,20.99649047851562,-0.00666088983417,-0.33811050653458,9.76634216308594,-5.35146713256836,0.10699066519737,-0.35238784551620
416,1955723107,-1.49886333942413,0.03935174643993,20.99744987487793,-0.01127650216222,-0.35708585381508,9.76585865020752,-5.45852184295654,0.06868458539248,-0.27174142003059
417,1955731440,-1.49908196926117,0.03957572579384,20.99725914001465,-0.00979280751199,-0.34451133012772,9.81503105163574,-5.40516710281372,0.11909339576960,-0.39394691586494
418,1955739773,-1.49853849411011,0.03991077840328,20.99790000915527,0.00050904694945,-0.33643946051598,9.78731536865234,-5.34237432479858,0.13155472278595,-0.30920225381851
419,1955748106,-1.50712752342224,0.03595102205873,20.99454116821289,-0.00860062520951,-0.34202316403389,9.77793025970459,-5.40208101272583,0.09605338424444,-0.23776414990425
420,1955756439,-1.50711584091187,0.03632083907723,20.99501991271973,-0.00475475331768,-0.35935452580452,9.78411769866943,-5.40482187271118,0.13483333587646,-0.32805433869362
421,1955764772,-1.50663685798645,0.03711778670549,20.99453353881836,0.01022901386023,-0.36857870221138,9.77994251251221,-5.32113981246948,0.18980148434639,-0.45709884166718
422,1955773105,-1.50603711605072,0.03773525357246,20.99424552917480,0.00919896084815,-0.36293664574623,9.79218292236328,-5.33370351791382,0.16804219782352,-0.41789624094963
423,1955781438,-1.50658142566681,0.03868622705340,20.99526023864746,0.00111978012137,-0.35009533166885,9.80445766448975,-5.44471502304077,0.20490105450153,-0.26559397578239
424,1955789771,-1.50673699378967,0.03871984407306,20.99596023559570,-0.00911977887154,-0.35320994257927,9.81065082550049,-5.42492914199829,0.09472144395113,-0.30164605379105
425,1955798104,-1.50621521472931,0.03919574245811,20.99613571166992,-0.00357258110307,-0.34258753061295,9.76251411437988,-5.31632375717163,0.14930537343025,-0.35856083035469
426,1955806437,-1.50604605674744,0.03856835141778,20.99534225463867,-0.01985801197588,-0.35064440965652,9.78982257843018,-5.38548278808594,0.01977418921888,-0.48432675004005
427,1955814770,-1.50656545162201,0.03893523290753,20.99566650390625,-0.01765895448625,-0.35269680619240,9.77823448181152,-5.44159030914307,0.13720263540745,-0.33162748813629
428,1955823103,-1.50628900527954,0.03902458772063,20.99594688415527,-0.02531146258116,-0.33459514379501,9.77678775787354,-5.37330341339111,0.10167571902275,-0.35265681147575
429,1955831436,-1.50643479824066,0.03873787820339,20.99615859985352,-0.01257709600031,-0.34938982129097,9.78804111480713,-5.39497232437134,0.05843887850642,-0.37212362885475
430,1955839769,-1.50586628913879,0.03884006291628,20.99655151367188,-0.01124357432127,-0.35340172052383,9.79197216033936,-5.33880090713501,0.10305888205767,-0.33956792950630
431,1955848102,-1.50612080097198,0.03869847208261,20.99719429016113,-0.00055804057047,-0.36321187019348,9.81146907806396,-5.40853548049927,0.07502409070730,-0.33007782697678
432,1955856435,-1.50588810443878,0.03857136517763,20.99731636047363,0.00012753906776,-0.36404931545258,9.80646896362305,-5.37831068038940,0.07761113345623,-0.37259748578072
433,1955864768,-1.50539255142212,0.03864295035601,20.99656486511230,-0.00961108412594,-0.33598309755325,9.82418823242188,-5.31969261169434,0.10359677672386,-0.46118429303169
434,1955873101,-1.50583279132843,0.03927012905478,20.99674224853516,0.01005396060646,-0.36350965499878,9.79502582550049,-5.45861101150513,0.16715848445892,-0.36240297555923
435,1955881434,-1.50564110279083,0.03846760466695,20.99630165100098,-0.01129037328064,-0.35066238045692,9.76957225799561,-5.35577058792114,-0.00047386338701,-0.43553167581558
436,1955889767,-1.50552129745483,0.03890671208501,20.99657630920410,0.00587551062927,-0.34912824630737,9.79197502136230,-5.39145088195801,0.14346534013748,-0.35210609436035
437,1955898100,-1.50528550148010,0.03877389803529,20.99666595458984,0.00164979300462,-0.34218353033066,9.79616928100586,-5.35182476043701,0.07784166187048,-0.36706474423409
438,1955906433,-1.50547063350677,0.03846792504191,20.99653053283691,0.00305483373813,-0.33604687452316,9.79061508178711,-5.42747735977173,0.05510903149843,-0.40329614281654
439,1955914766,-1.50524532794952,0.03862371295691,20.99594306945801,-0.00035386416130,-0.35728424787521,9.78494071960449,-5.35181236267090,0.11366316676140,-0.44489362835884
440,1955923099,-1.50486421585083,0.03858886659145,20.99599075317383,-0.00168253225274,-0.35295781493187,9.78421306610107,-5.36089324951172,0.08813858032227,-0.38040983676910
441,1955931432,-1.50547921657562,0.03820008039474,20.99565315246582,-0.00917737837881,-0.34943500161171,9.77762126922607,-5.45172119140625,0.04771932214499,-0.43135654926300
442,1955939765,-1.50511682033539,0.03790955618024,20.99650001525879,-0.00819990038872,-0.35945218801498,9.79942321777344,-5.36214780807495,0.05545482411981,-0.28435641527176
443,1955948098,-1.50445675849915,0.03789528459311,20.99651145935059,-0.01024891715497,-0.33712476491928,9.79523277282715,-5.29946994781494,0.09226248413324,-0.38824778795242
444,1955956431,-1.50482928752899,0.03708894550800,20.99597167968750,-0.02846973575652,-0.33070355653763,9.80253410339355,-5.45003032684326,-0.00398301379755,-0.45294928550720
445,1955964764,-1.50516462326050,0.03699289634824,20.99628067016602,-0.02698551677167,-0.34954541921616,9.81992149353027,-5.41846132278442,0.08251626044512,-0.34745714068413
446,1955973097,-1.50589370727539,0.03658783435822,20.99652481079102,0.00582406483591,-0.34888371825218,9.77624893188477,-5.49436902999878,0.04264770075679,-0.35861209034920
447,1955981430,-1.50626289844513,0.03628770634532,20.99653053283691,-0.01539385225624,-0.36039233207703,9.80743598937988,-5.42255878448486,0.05769606307149,-0.38933637738228
448,1955989763,-1.50670361518860,0.03645179048181,20.99694061279297,0.00255177658983,-0.35228812694550,9.78757667541504,-5.45898246765137,0.11076876521111,-0.33628931641579
449,1955998096,-1.50711727142334,0.03635774180293,20.99680519104004,0.00690610939637,-0.35359644889832,9.81876945495605,-5.42741298675537,0.08250346034765,-0.39572712779045
450,1956006429,-1.50745451450348,0.03623034060001,20.99662017822266,-0.02023483254015,-0.33505088090897,9.82238197326660,-5.44731521606445,0.07674024254084,-0.41042968630791
451,1956014762,-1.50748586654663,0.03626654297113,20.99614906311035,0.00896964315325,-0.37345859408379,9.79755973815918,-5.38201189041138,0.09883252531290,-0.41607764363289
452,1956023095,-1.50700318813324,0.03683030605316,20.99620246887207,-0.00958674028516,-0.35284957289696,9.76208114624023,-5.34743261337280,0.16033230721951,-0.37714397907257
453,1956031428,-1.50712323188782,0.03635549917817,20.99636840820312,0.00890466198325,-0.35307341814041,9.78620910644531,-5.39361524581909,0.03515553846955,-0.37281522154808
454,1956039761,-1.50671756267548,0.03568968921900,20.99643135070801,0.00879849679768,-0.35098776221275,9.78470611572266,-5.35632085800171,0.01281992439181,-0.37916752696037
455,1956048094,-1.50629818439484,0.03509740903974,20.99708175659180,-0.00673710973933,-0.34818682074547,9.83710193634033,-5.32879877090454,0.01969734951854,-0.30835700035095
456,1956056427,-1.50525200366974,0.03461331874132,20.99748802185059,-0.00508743990213,-0.35148397088051,9.79114151000977,-5.28000307083130,0.03450237587094,-0.33932456374168
457,1956064760,-1.50480008125305,0.03434045612812,20.99766731262207,0.00029620868736,-0.34010735154152,9.79346466064453,-5.32372713088989,0.05904081463814,-0.35907313227654
458,1956073093,-1.50488054752350,0.03405833989382,20.99746131896973,-0.01485840231180,-0.36098921298981,9.79149913787842,-5.41609096527100,0.06006537750363,-0.41214585304260
459,1956081426,-1.50526702404022,0.03349736332893,20.99721908569336,0.00562818720937,-0.34152638912201,9.80761528015137,-5.42469787597656,0.02643388882279,-0.41209459304810
460,1956089759,-1.50518548488617,0.03254858031869,20.99703025817871,-0.02860092371702,-0.34633827209473,9.80608177185059,-5.39649677276611,-0.02160560525954,-0.41196653246880
461,1956098092,-1.50582242012024,0.03195099160075,20.99727821350098,-0.02101359330118,-0.34984740614891,9.82007980346680,-5.45517921447754,0.02200263179839,-0.38194665312767
462,1956106425,-1.50581979751587,0.03102023899555,20.99723815917969,-0.02144311740994,-0.36382153630257,9.82277107238770,-5.40569162368774,-0.01842944137752,-0.39331936836243
463,1956114758,-1.50707995891571,0.03024576231837,20.99726104736328,0.00314863910899,-0.34361836314201,9.78329753875732,-5.52962684631348,0.00034579218482,-0.38452088832855
464,1956123091,-1.50669753551483,0.03005803935230,20.99716377258301,0.01416017580777,-0.36880141496658,9.80774021148682,-5.36067485809326,0.06981159746647,-0.39853185415268
465,1956131424,-1.50724661350250,0.02963069453835,20.99692344665527,0.00040253676707,-0.35103559494019,9.79706954956055,-5.44427967071533,0.04401806369424,-0.42494019865990
466,1956139757,-1.50761890411377,0.02979838103056,20.99696731567383,-0.01193327549845,-0.32496836781502,9.81232166290283,-5.45059394836426,0.11162684112787,-0.38064032793045
467,1956148090,-1.50772082805634,0.03000859729946,20.99688148498535,0.02196567505598,-0.35584691166878,9.76873397827148,-5.39024686813354,0.11995147913694,-0.39936435222626
468,1956156423,-1.50782203674316,0.02945988625288,20.99734115600586,-0.00393542228267,-0.34927073121071,9.78765487670898,-5.41755151748657,0.02430791035295,-0.33240872621536
469,1956164756,-1.50801992416382,0.02955783158541,20.99758911132812,0.00359198544174,-0.35777792334557,9.79484844207764,-5.40179920196533,0.10522327572107,-0.35822790861130
470,1956173089,-1.50759506225586,0.02973650954664,20.99791336059570,-0.01218008715659,-0.33496826887131,9.78453445434570,-5.35498905181885,0.11284352093935,-0.34630447626114
471,1956181422,-1.50751137733459,0.02921167947352,20.99823570251465,0.00148271454964,-0.34259226918221,9.78285789489746,-5.36759138107300,0.02969970367849,-0.34571531414986
472,1956189755,-1.50655698776245,0.02864133566618,20.99845886230469,-0.03188619390130,-0.37528371810913,9.78549671173096,-5.29213142395020,0.02219473384321,-0.36174982786179
473,1956198088,-1.50628077983856,0.02762211300433,20.99907875061035,-0.00217380118556,-0.35265341401100,9.82030487060547,-5.34539651870728,-0.03067304566503,-0.30866432189941
474,1956206421,-1.50608074665070,0.02742043510079,20.99888801574707,-0.01151067949831,-0.33357942104340,9.80502796173096,-5.38151168823242,0.06821070611477,-0.40989178419113
475,1956214754,-1.50643885135651,0.02743679098785,20.99964141845703,-0.01128659117967,-0.34595459699631,9.83402919769287,-5.42085599899292,0.09328704327345,-0.29808568954468
476,1956223087,-1.50617027282715,0.02740413323045,20.99982452392578,-0.00382882962003,-0.34844237565994,9.77677536010742,-5.37262487411499,0.08834350109100,-0.36291533708572
477,1956231420,-1.50603842735291,0.02811823412776,20.99980545043945,-0.01286167837679,-0.33886975049973,9.79463291168213,-5.36294221878052,0.18081088364124,-0.41760170459747
478,1956239753,-1.50534701347351,0.02898345701396,21.00013351440430,-0.01005693152547,-0.36429759860039,9.81710243225098,-5.32308721542358,0.19520610570908,-0.34495973587036
479,1956248086,-1.50591492652893,0.02833714708686,21.00053405761719,0.00718043185771,-0.35723754763603,9.80080699920654,-5.44608592987061,0.01413905713707,-0.34795656800270
480,1956256419,-1.50637304782867,0.02766722813249,21.00006294250488,-0.00095036713174,-0.35107481479645,9.82343482971191,-5.46171140670776,0.01442081574351,-0.44580298662186
481,1956264752,-1.50695979595184,0.02747694402933,21.00030136108398,0.01137805264443,-0.34636017680168,9.77739334106445,-5.44803237915039,0.06915844231844,-0.36422163248062
482,1956273085,-1.50697791576385,0.02771485410631,21.00068473815918,0.00205780239776,-0.35300517082214,9.79918479919434,-5.40865039825439,0.12011794745922,-0.34038755297661
483,1956281418,-1.50625550746918,0.02788155339658,21.00069427490234,0.00281173735857,-0.34788665175438,9.77432727813721,-5.29202938079834,0.11317650228739,-0.38206198811531
484,1956289751,-1.50572013854980,0.02782386913896,21.00040626525879,0.00296833971515,-0.34971019625664,9.77937793731689,-5.34195137023926,0.08687068521976,-0.42081624269485
485,1956298084,-1.50531888008118,0.02930620685220,21.00028610229492,-0.00570239778608,-0.34385499358177,9.78480243682861,-5.33039951324463,0.27201038599014,-0.40795791149139
486,1956306417,-1.50504779815674,0.02947130613029,21.00020217895508,-0.01150496117771,-0.35563728213310,9.78743076324463,-5.37443065643311,0.11222877353430,-0.39668768644333
487,1956314750,-1.50430500507355,0.02935178205371,21.00029182434082,-0.02523151598871,-0.35296022891998,9.79010486602783,-5.28980064392090,0.07869974523783,-0.38144719600677
488,1956323083,-1.50478672981262,0.02970708347857,21.00113296508789,-0.02458783984184,-0.35412472486496,9.81901264190674,-5.46350431442261,0.13252805173397,-0.28366485238075
489,1956331416,-1.50522768497467,0.02982170321047,21.00203514099121,-0.00484263477847,-0.35031139850616,9.78458690643311,-5.43227958679199,0.10640152543783,-0.31214788556099
490,1956339749,-1.50420248508453,0.03005409054458,21.00125694274902,-0.02015311457217,-0.34203433990479,9.80081653594971,-5.28297424316406,0.12182129174471,-0.47894775867462
491,1956348082,-1.50405669212341,0.03081274777651,21.00160217285156,-0.02563297003508,-0.34720423817635,9.77517318725586,-5.36081647872925,0.18350037932396,-0.34316673874855
492,1956356415,-1.50396597385406,0.03117749281228,21.00193405151367,-0.00499036721885,-0.36222919821739,9.78783607482910,-5.39530611038208,0.13451315462589,-0.34551045298576
493,1956364748,-1.50363194942474,0.03166985511780,21.00239562988281,0.00222723139450,-0.34997311234474,9.75548648834229,-5.33866024017334,0.15207172930241,-0.34980079531670
494,1956373081,-1.50402927398682,0.03231611475348,21.00249862670898,0.00309998518787,-0.35111218690872,9.80171108245850,-5.45282173156738,0.16879779100418,-0.37170094251633
495,1956381414,-1.50415205955505,0.03113235346973,21.00232315063477,0.02003461495042,-0.35004836320877,9.78432178497314,-5.39397335052490,-0.04692527651787,-0.42368504405022
496,1956389747,-1.50438833236694,0.03064703568816,21.00177764892578,-0.00135691184551,-0.36317688226700,9.81283664703369,-5.43390703201294,0.03464325517416,-0.45163020491600
497,1956398080,-1.50427544116974,0.03088283352554,21.00168037414551,0.01668383367360,-0.35985818505287,9.81617546081543,-5.36601543426514,0.12307639420033,-0.40164399147034
498,1956406413,-1.50452792644501,0.03109870851040,21.00252532958984,-0.00256088352762,-0.35563299059868,9.80580043792725,-5.43625020980835,0.11600686609745,-0.28463819622993
499,1956414746,-1.50425946712494,0.02997711673379,21.00290107727051,-0.00320210587233,-0.33023300766945,9.82210159301758,-5.34644651412964,-0.04278857633471,-0.34665027260780
500,1956423079,-1.50395441055298,0.02987292595208,21.00231361389160,-0.00288586481474,-0.32533860206604,9.77765655517578,-5.36944770812988,0.08209361881018,-0.45717567205429
501,1956431412,-1.50387060642242,0.02988133393228,21.00241470336914,-0.02368956431746,-0.33646419644356,9.79895305633545,-5.36780881881714,0.09472144395113,-0.38522532582283
502,1956439745,-1.50388371944427,0.03003490716219,21.00232696533203,-0.02414297685027,-0.35471469163895,9.79042053222656,-5.40797185897827,0.11190858483315,-0.39723834395409
503,1956448078,-1.50262570381165,0.03018727526069,21.00316238403320,-0.01740939542651,-0.36565008759499,9.80478954315186,-5.22658395767212,0.10772066563368,-0.29530647397041
504,1956456411,-1.50328683853149,0.02982010319829,21.00340270996094,-0.01857049949467,-0.33929878473282,9.77851200103760,-5.48582553863525,0.04732229560614,-0.35811257362366
505,1956464744,-1.50303506851196,0.02983098477125,21.00391578674316,0.00243825674988,-0.34448304772377,9.80349922180176,-5.34827804565430,0.09347914159298,-0.30119779706001
506,1956473077,-1.50290155410767,0.02944313175976,21.00395202636719,-0.00499293487519,-0.34502094984055,9.78641986846924,-5.39015722274780,0.04506824910641,-0.38347074389458
507,1956481410,-1.50315451622009,0.02905458398163,21.00428581237793,-0.00151831097901,-0.34865838289261,9.78491687774658,-5.41007280349731,0.04638738185167,-0.34390953183174
508,1956489743,-1.50320911407471,0.02879103831947,21.00447845458984,-0.00167812756263,-0.34151005744934,9.78674221038818,-5.41212177276611,0.06101310625672,-0.36368370056152
509,1956498076,-1.50295960903168,0.02933078445494,21.00414657592773,0.00476426910609,-0.35244473814964,9.78382682800293,-5.34831666946411,0.15827034413815,-0.42029115557671
510,1956506409,-1.50240755081177,0.02939593419433,21.00429725646973,0.01529567316175,-0.33899366855621,9.81519031524658,-5.33986282348633,0.10012603551149,-0.36775636672974
511,1956514742,-1.50226700305939,0.02964032627642,21.00465583801270,0.01101107895374,-0.35564708709717,9.77869701385498,-5.36071395874023,0.12187253683805,-0.34831517934799
512,1956523075,-1.50201928615570,0.03014277666807,21.00484085083008,-0.00328593701124,-0.33383169770241,9.77750301361084,-5.37688875198364,0.15131609141827,-0.36272314190865
513,1956531408,-1.50301468372345,0.03007820621133,21.00426673889160,-0.00981148704886,-0.34916457533836,9.81015396118164,-5.49608421325684,0.08849718421698,-0.45399948954582
514,1956539741,-1.50304841995239,0.03018239699304,21.00471878051758,-0.01374640222639,-0.33124923706055,9.80473518371582,-5.40966224670410,0.10330220311880,-0.33143535256386
515,1956548074,-1.50333762168884,0.02838722616434,21.00397682189941,-0.01371146272868,-0.36472406983376,9.81528186798096,-5.41406774520874,-0.11965689808130,-0.48330217599869
516,1956556407,-1.50348734855652,0.02748294733465,21.00438117980957,-0.01005763094872,-0.36186102032661,9.78313064575195,-5.42308378219604,-0.01801961101592,-0.33960631489754
517,1956564740,-1.50361883640289,0.02733863331378,21.00511169433594,-0.01100958324969,-0.33654826879501,9.78261756896973,-5.39416551589966,0.07443496584892,-0.29122102260590
518,1956573073,-1.50372374057770,0.02716689184308,21.00483322143555,-0.02211236022413,-0.35240751504898,9.78384876251221,-5.41867876052856,0.07207845151424,-0.42031678557396
519,1956581406,-1.50318360328674,0.02689272537827,21.00478553771973,-0.00803686492145,-0.35882425308228,9.77654075622559,-5.31334018707275,0.06079538911581,-0.39048901200294
520,1956589739,-1.50301599502563,0.02795065566897,21.00531005859375,-0.01533421874046,-0.35960644483566,9.78089904785156,-5.38598203659058,0.21770820021629,-0.32048532366753
521,1956598072,-1.50312364101410,0.02645185589790,21.00626754760742,0.01284273061901,-0.34534975886345,9.78651142120361,-5.39123249053955,-0.08865085989237,-0.28014284372330
522,1956606405,-1.50295555591583,0.02656567655504,21.00579643249512,-0.00585671095178,-0.33968189358711,9.77074241638184,-5.38568735122681,0.10709312558174,-0.44242191314697
523,1956614738,-1.50386822223663,0.02673685550690,21.00577735900879,0.01064124703407,-0.35238927602768,9.81634616851807,-5.48837566375732,0.11390650272369,-0.38545584678650
524,1956623071,-1.50336027145386,0.02680275589228,21.00580596923828,0.00794365536422,-0.33575814962387,9.80198574066162,-5.34460306167603,0.09938323497772,-0.38279196619987
525,1956631404,-1.50369024276733,0.02738633751869,21.00593376159668,0.01172095444053,-0.33295905590057,9.79789066314697,-5.41782045364380,0.16338039934635,-0.36889618635178
526,1956639737,-1.50469076633453,0.02759618125856,21.00652313232422,-0.00850189756602,-0.37244457006454,9.80478000640869,-5.52609205245972,0.11676248908043,-0.31495264172554
527,1956648070,-1.50450241565704,0.02719538658857,21.00632286071777,0.00800319667906,-0.34157860279083,9.78564739227295,-5.35634708404541,0.04637457802892,-0.41126218438148
528,1956656403,-1.50401508808136,0.02733604423702,21.00776481628418,-0.00987349357456,-0.34869739413261,9.77112293243408,-5.34733057022095,0.10336625576019,-0.21229079365730
529,1956664736,-1.50395750999451,0.02698306366801,21.00798797607422,-0.01642099395394,-0.34468615055084,9.80897903442383,-5.37120246887207,0.05149741843343,-0.37220045924187
530,1956673069,-1.50342953205109,0.02664310112596,21.00894927978516,-0.01412540208548,-0.34924301505089,9.77200984954834,-5.34133625030518,0.04844931885600,-0.27169016003609
531,1956681402,-1.50388562679291,0.02627744898200,21.00940895080566,-0.01784206181765,-0.37237152457237,9.78981494903564,-5.43436765670776,0.04837248474360,-0.32806712388992
532,1956689735,-1.50379920005798,0.02618505433202,21.00893211364746,-0.02397177927196,-0.35457891225815,9.77974891662598,-5.39554882049561,0.08270836621523,-0.44462472200394
533,1956698068,-1.50373160839081,0.02684805914760,21.00799179077148,-0.01922122947872,-0.35110008716583,9.80460643768311,-5.37049818038940,0.17481715977192,-0.48140671849251
534,1956706401,-1.50374841690063,0.02693930640817,21.00764083862305,-0.02596970275044,-0.34489405155182,9.79828643798828,-5.40779304504395,0.10596609860659,-0.42764249444008
535,1956714734,-1.50431919097900,0.02710544690490,21.00759506225586,0.01108501013368,-0.36145526170731,9.77217388153076,-5.44712352752686,0.11297159641981,-0.38843986392021
536,1956723067,-1.50473582744598,0.02664739824831,21.00770568847656,-0.00382117507979,-0.34164035320282,9.77461338043213,-5.45555019378662,0.03669239208102,-0.37407028675079
537,1956731400,-1.50471556186676,0.02575621940196,21.00737762451172,0.01670012250543,-0.36315092444420,9.78555393218994,-5.37635135650635,-0.01293518859893,-0.42299351096153
538,1956739733,-1.50425314903259,0.02620455808938,21.00808334350586,-0.00979924481362,-0.35791358351707,9.78540420532227,-5.35046815872192,0.14395199716091,-0.30062150955200
539,1956748066,-1.50401568412781,0.02661874145269,21.00844955444336,0.00166161893867,-0.35176640748978,9.80249500274658,-5.34859848022461,0.14215901494026,-0.34111759066582
540,1956756399,-1.50356841087341,0.02575152367353,21.00865745544434,-0.00225009396672,-0.33929193019867,9.80934524536133,-5.35305500030518,-0.01230764016509,-0.36460581421852
541,1956764732,-1.50396668910980,0.02486941404641,21.00827598571777,-0.00266572250985,-0.33302924036980,9.81310462951660,-5.42564582824707,-0.01010481640697,-0.42456871271133
542,1956773065,-1.50399518013000,0.02514707669616,21.00737571716309,0.01272888295352,-0.36058309674263,9.79519844055176,-5.40907382965088,0.12794309854507,-0.49339419603348
543,1956781398,-1.50412213802338,0.02496695891023,21.00778770446777,-0.01678505726159,-0.35715267062187,9.78248119354248,-5.39344835281372,0.07087458670139,-0.33643016219139
544,1956789731,-1.50393676757812,0.02504726685584,21.00784873962402,-0.01252757757902,-0.35745623707771,9.76581382751465,-5.38330507278442,0.10140675306320,-0.37887293100357
545,1956798064,-1.50497698783875,0.02568434365094,21.00806427001953,-0.00277077290229,-0.35562047362328,9.77997970581055,-5.50330781936646,0.16943816840649,-0.36921635270119
546,1956806397,-1.50492811203003,0.02529894374311,21.00795364379883,-0.01791840419173,-0.34914478659630,9.81820487976074,-5.40021038055420,0.04625930637121,-0.40138787031174
547,1956814730,-1.50444221496582,0.02440568245947,21.00836181640625,0.00599964195862,-0.35883563756943,9.78678417205811,-5.31941032409668,-0.01557345315814,-0.34443458914757
548,1956823063,-1.50503706932068,0.02357538603246,21.00904846191406,-0.01673134602606,-0.34343707561493,9.78055572509766,-5.47674608230591,-0.00951568875462,-0.30594927072525
549,1956831396,-1.50497341156006,0.02395870536566,21.00930786132812,-0.00675392197445,-0.36014983057976,9.77032661437988,-5.37103605270386,0.13952073454857,-0.35195240378380
550,1956839729,-1.50476360321045,0.02428167127073,21.00985717773438,0.00456770090386,-0.34678217768669,9.82059383392334,-5.38057756423950,0.12923662364483,-0.31984496116638
551,1956848062,-1.50389099121094,0.02480321936309,21.00978469848633,0.02049037627876,-0.34232544898987,9.80721855163574,-5.27348423004150,0.15567050874233,-0.36825585365295
552,1956856395,-1.50443375110626,0.02461752481759,21.01016044616699,0.01006227172911,-0.34475034475327,9.79252910614014,-5.47098302841187,0.06826193630695,-0.34180915355682
553,1956864728,-1.50379610061646,0.02374998293817,21.00962066650391,0.01844331435859,-0.35692378878593,9.80011749267578,-5.30290269851685,-0.00849111843854,-0.45002931356430
554,1956873061,-1.50373911857605,0.02352808043361,21.00992774963379,0.00941318552941,-0.34967374801636,9.76766204833984,-5.39926290512085,0.06480401754379,-0.35056921839714
555,1956881394,-1.50326490402222,0.02284487523139,21.00999259948730,0.02032278105617,-0.35296636819839,9.74833297729492,-5.31991004943848,0.01119342073798,-0.37354519963264
556,1956889727,-1.50315177440643,0.02317027188838,21.00969696044922,-0.01289812009782,-0.34322267770767,9.79582595825195,-5.39168119430542,0.13163156807423,-0.42075228691101
557,1956898060,-1.50302433967590,0.02300898730755,21.01050949096680,-0.00244633643888,-0.34900590777397,9.79681015014648,-5.36408138275146,0.07204004377127,-0.29026052355766
558,1956906393,-1.50277471542358,0.02260896936059,21.01045227050781,-0.02207366749644,-0.33658152818680,9.80283832550049,-5.37612104415894,0.04450473934412,-0.39425435662270
559,1956914726,-1.50242543220520,0.02215972356498,21.01000785827637,0.00651304284111,-0.36999145150185,9.77917003631592,-5.33659791946411,0.04132856801152,-0.43239393830299
560,1956923059,-1.50131738185883,0.02295970730484,21.00988006591797,-0.00649107387289,-0.35636633634567,9.79622554779053,-5.27231979370117,0.18877692520618,-0.39795559644699
561,1956931392,-1.50053811073303,0.02283271029592,21.00988006591797,-0.01635372638702,-0.36339962482452,9.79419231414795,-5.28507471084595,0.07789288461208,-0.39413902163506
562,1956939725,-1.50042998790741,0.02189900167286,21.01103782653809,-0.02675842121243,-0.33640584349632,9.79156494140625,-5.39307737350464,-0.02312965504825,-0.25078898668289
563,1956948058,-1.50052726268768,0.02259981632233,21.01152992248535,-0.01000563427806,-0.33529996871948,9.78281784057617,-5.39090013504028,0.17608505487442,-0.32617166638374
564,1956956391,-1.50029647350311,0.02262668311596,21.01136016845703,0.01030849386007,-0.35856145620346,9.81227111816406,-5.37813138961792,0.09574600309134,-0.40522998571396
565,1956964724,-1.50062501430511,0.02343128435314,21.01119422912598,0.00091034424258,-0.36369147896767,9.80058193206787,-5.41750049591064,0.19115903973579,-0.40628018975258
566,1956973057,-1.50004541873932,0.02314764633775,21.01170349121094,0.00899539142847,-0.36311268806458,9.77428722381592,-5.33517694473267,0.05699167773128,-0.32603085041046
567,1956981390,-1.50017845630646,0.02368138916790,21.01189231872559,0.01535144727677,-0.33947202563286,9.78652858734131,-5.39561319351196,0.15674631297588,-0.36753866076469
568,1956989723,-1.50015091896057,0.02391633391380,21.01261138916016,0.00100626586936,-0.35371023416519,9.79009246826172,-5.40258073806763,0.11852987855673,-0.29909741878510
569,1956998056,-1.50088834762573,0.02432561479509,21.01290893554688,0.00311060645618,-0.35750561952591,9.81268215179443,-5.46747350692749,0.14149302244186,-0.33297222852707
570,1957006389,-1.50095593929291,0.02393036894500,21.01301193237305,0.00570854265243,-0.35643100738525,9.79215908050537,-5.41347885131836,0.04423578083515,-0.37497961521149
571,1957014722,-1.50083637237549,0.02316272072494,21.01313209533691,0.00764128519222,-0.36131724715233,9.81626796722412,-5.36345386505127,0.00038421351928,-0.37134236097336
572,1957023055,-1.50118827819824,0.02271187491715,21.01357650756836,-0.01556039135903,-0.34751531481743,9.81602478027344,-5.44839143753052,0.03737116977572,-0.33481648564339
573,1957031388,-1.50187253952026,0.02201858162880,21.01369285583496,-0.01612776517868,-0.34390249848366,9.78753757476807,-5.46066045761108,0.01027130894363,-0.37485152482986
574,1957039721,-1.50159013271332,0.02272580191493,21.01472282409668,-0.00384067231789,-0.34021389484406,9.79072570800781,-5.37120294570923,0.17357486486435,-0.25985640287399
575,1957048054,-1.50051867961884,0.02331680059433,21.01524925231934,-0.00088317901827,-0.33995968103409,9.79411411285400,-5.25086784362793,0.16363653540611,-0.31672003865242
576,1957056387,-1.50022280216217,0.02314812690020,21.01589775085449,-0.02738561667502,-0.35591411590576,9.80707168579102,-5.37055015563965,0.06920966506004,-0.30917665362358
577,1957064720,-1.50019240379333,0.02354497089982,21.01598739624023,-0.01806384883821,-0.34374928474426,9.80395793914795,-5.37436580657959,0.14159548282623,-0.38010242581367
578,1957073053,-1.50068521499634,0.02356073819101,21.01676177978516,-0.01166288647801,-0.35308900475502,9.78618907928467,-5.46473312377930,0.09093053638935,-0.29314208030701
579,1957081386,-1.50175881385803,0.02298638969660,21.01688957214355,-0.00375617062673,-0.34964019060135,9.77937507629395,-5.50776481628418,0.02566546201706,-0.37787395715714
580,1957089719,-1.50131773948669,0.02266344986856,21.01732254028320,-0.00437663774937,-0.35898154973984,9.77804374694824,-5.35269689559937,0.05197128653526,-0.33502143621445
581,1957098052,-1.50210046768188,0.02292982675135,21.01719093322754,-0.00063198065618,-0.35171401500702,9.78162574768066,-5.47257137298584,0.12525360286236,-0.38881129026413
582,1957106385,-1.50182282924652,0.02247319184244,21.01702499389648,-0.00996575225145,-0.36175492405891,9.76678562164307,-5.37126636505127,0.03837012127042,-0.40571665763855
583,1957114718,-1.50158309936523,0.02300824038684,21.01660156250000,0.00902072433382,-0.36789590120316,9.78940010070801,-5.34943103790283,0.15825755894184,-0.42250683903694
584,1957123051,-1.50142145156860,0.02311659045517,21.01648330688477,0.00160326925106,-0.34123474359512,9.82133388519287,-5.38744258880615,0.10577399283648,-0.40140068531036
585,1957131384,-1.50145554542542,0.02270947396755,21.01695632934570,0.00671588350087,-0.35174199938774,9.78017902374268,-5.38221740722656,0.04514509066939,-0.36479797959328
586,1957139717,-1.50083184242249,0.02278569899499,21.01736259460449,0.00937266927212,-0.33579504489899,9.76936912536621,-5.33106517791748,0.09980586171150,-0.33782613277435
587,1957148050,-1.50026416778564,0.02325156703591,21.01680564880371,-0.00345730967820,-0.34139308333397,9.77661895751953,-5.31003570556641,0.15105995535851,-0.44924813508987
588,1957156383,-1.50019788742065,0.02357421256602,21.01640319824219,-0.01696676760912,-0.35510155558586,9.74703979492188,-5.39743185043335,0.13159313797951,-0.43280377984047
589,1957164716,-1.50075256824493,0.02390947751701,21.01603889465332,-0.01995781064034,-0.36495167016983,9.79606914520264,-5.44591999053955,0.13502545654774,-0.42965316772461
590,1957173049,-1.50032579898834,0.02403826639056,21.01626777648926,-0.03354806080461,-0.35127362608910,9.79381179809570,-5.35390043258667,0.10691382735968,-0.35730579495430
591,1957181382,-1.50042974948883,0.02312152646482,21.01624107360840,-0.01676723361015,-0.34024357795715,9.79170703887939,-5.39124488830566,-0.01617538928986,-0.39516359567642
592,1957189715,-1.49959719181061,0.02267014607787,21.01576805114746,-0.00392268970609,-0.34263095259666,9.81568050384521,-5.30523347854614,0.03967645019293,-0.44283169507980
593,1957198048,-1.49947273731232,0.02323630638421,21.01655387878418,-0.00853639561683,-0.33029419183731,9.80761146545410,-5.36323642730713,0.15894913673401,-0.31654071807861
594,1957206381,-1.49917221069336,0.02388581447303,21.01566314697266,-0.01141510251909,-0.36700233817101,9.77380084991455,-5.37012720108032,0.17311380803585,-0.49169087409973
595,1957214714,-1.49876606464386,0.02405600808561,21.01571273803711,-0.01177210547030,-0.35404965281487,9.81650543212891,-5.32983589172363,0.11315088719130,-0.38239490985870
596,1957223047,-1.49844110012054,0.02423610165715,21.01563262939453,0.00658990163356,-0.35654407739639,9.79000568389893,-5.36715555191040,0.11455967277288,-0.39520204067230
597,1957231380,-1.49795019626617,0.02400961145759,21.01520347595215,0.01892627775669,-0.35209739208221,9.78935432434082,-5.31942367553711,0.06587981432676,-0.41826766729355
598,1957239713,-1.49746513366699,0.02309951558709,21.01523971557617,0.00675130914897,-0.33997514843941,9.74137878417969,-5.34841918945312,-0.01614977605641,-0.38450807332993
599,1957248046,-1.49720120429993,0.02225454524159,21.01502037048340,-0.00200105435215,-0.35850107669830,9.81717777252197,-5.34578084945679,-0.00813252013177,-0.40699741244316
600,1957256379,-1.49623823165894,0.02240069955587,21.01443672180176,0.01155370939523,-0.33793646097183,9.79178428649902,-5.29023647308350,0.11358632892370,-0.45577970147133
601,1957264712,-1.49604511260986,0.02254474908113,21.01451110839844,-0.00041752535617,-0.34916001558304,9.77743244171143,-5.35533475875854,0.11011560261250,-0.38330420851707
602,1957273045,-1.49593889713287,0.02268708683550,21.01445007324219,-0.01252600830048,-0.34165441989899,9.82084751129150,-5.39238595962524,0.10907822847366,-0.39258939027786
603,1957281378,-1.49589240550995,0.02243594639003,21.01497650146484,0.00573747931048,-0.34159097075462,9.76907348632812,-5.37245798110962,0.06169189140201,-0.32279062271118
604,1957289711,-1.49580574035645,0.02244864404202,21.01451492309570,-0.00875921081752,-0.34577211737633,9.81307792663574,-5.39490842819214,0.09454215317965,-0.44111552834511
605,1957298044,-1.49606406688690,0.02177093550563,21.01485252380371,-0.00367643753998,-0.36108645796776,9.77265071868896,-5.40945768356323,0.01237167604268,-0.33976003527641
606,1957306377,-1.49573540687561,0.02136571332812,21.01504325866699,-0.01384635549039,-0.35154417157173,9.79326152801514,-5.36606740951538,0.04162313416600,-0.36332511901855
607,1957314710,-1.49542880058289,0.02079680748284,21.01489448547363,-0.02527917735279,-0.34371411800385,9.80115318298340,-5.34240007400513,0.02551177889109,-0.39590644836426
608,1957323043,-1.49452316761017,0.02070860192180,21.01599693298340,-0.00781740341336,-0.36262792348862,9.80597305297852,-5.29698610305786,0.07853324711323,-0.25413164496422
609,1957331376,-1.49494647979736,0.02057952247560,21.01592636108398,-0.00515805045143,-0.35267633199692,9.80698204040527,-5.43058967590332,0.07807219028473,-0.37943652272224
610,1957339709,-1.49561274051666,0.02089685946703,21.01556205749512,-0.00404734397307,-0.33863300085068,9.78129577636719,-5.48583889007568,0.13191330432892,-0.42820596694946
611,1957348042,-1.49556994438171,0.02101336978376,21.01586341857910,0.00615138094872,-0.35618650913239,9.78789520263672,-5.37316179275513,0.10568433254957,-0.34529268741608
612,1957356375,-1.49490451812744,0.02098703756928,21.01571846008301,0.00855911895633,-0.34851592779160,9.80104446411133,-5.32494354248047,0.08940649032593,-0.40301439166069
613,1957364708,-1.49438238143921,0.02117337286472,21.01557540893555,0.01036329753697,-0.34043025970459,9.79848575592041,-5.31597805023193,0.11704424768686,-0.40514034032822
614,1957373041,-1.49426877498627,0.02002520859241,21.01482009887695,-0.00032430034480,-0.33212268352509,9.77746868133545,-5.39296197891235,-0.04299349337816,-0.48109936714172
615,1957381374,-1.49536776542664,0.01962078735232,21.01477813720703,0.02655934356153,-0.35019060969353,9.80747127532959,-5.50998020172119,0.04519631713629,-0.39077076315880
616,1957389707,-1.49498915672302,0.02052744105458,21.01504325866699,0.00096446386306,-0.35583364963531,9.78966903686523,-5.36117458343506,0.19997033476830,-0.35115835070610
617,1957398040,-1.49492955207825,0.02056047134101,21.01521492004395,0.00772479362786,-0.34865817427635,9.77628231048584,-5.37001132965088,0.09595091640949,-0.36173704266548
618,1957406373,-1.49558007717133,0.02134661003947,21.01501655578613,-0.02107168547809,-0.35173764824867,9.79788398742676,-5.48400783538818,0.18630513548851,-0.40731754899025
619,1957414706,-1.49561977386475,0.02093570493162,21.01555633544922,-0.01812597364187,-0.35246992111206,9.80555725097656,-5.38471364974976,0.04341612756252,-0.31780859827995
620,1957423039,-1.49526596069336,0.02047645486891,21.01589775085449,-0.01478740759194,-0.35019719600677,9.79711055755615,-5.36337709426880,0.03647466748953,-0.34626600146294
621,1957431372,-1.49655473232269,0.02133809775114,21.01656150817871,0.00324877281673,-0.34838753938675,9.77552795410156,-5.53104829788208,0.19507801532745,-0.30482223629951
622,1957439705,-1.49712431430817,0.02167371101677,21.01638603210449,-0.02687309123576,-0.35129895806313,9.80636119842529,-5.47426128387451,0.13232313096523,-0.40622895956039
623,1957448038,-1.49699199199677,0.02157216705382,21.01621055603027,0.00577558949590,-0.33112743496895,9.77838420867920,-5.36207151412964,0.08173503726721,-0.41901046037674
624,1957456371,-1.49708402156830,0.02173569239676,21.01629829406738,0.00109893956687,-0.36346748471260,9.79608345031738,-5.41673183441162,0.11224156618118,-0.37467223405838
625,1957464704,-1.49713993072510,0.02144207432866,21.01687049865723,-0.00151238858234,-0.34130612015724,9.79362392425537,-5.38578987121582,0.05686360597610,-0.31178927421570
626,1957473037,-1.49633479118347,0.02160540968180,21.01620292663574,0.00392323080450,-0.35863348841667,9.78089046478271,-5.30803823471069,0.11338140815496,-0.46582046151161
627,1957481370,-1.49638724327087,0.02148145250976,21.01630401611328,0.00634221220389,-0.32945424318314,9.78897190093994,-5.38454771041870,0.07823868095875,-0.37232854962349
628,1957489703,-1.49682104587555,0.02130119875073,21.01669120788574,0.02697844244540,-0.36413845419884,9.78083419799805,-5.45814990997314,0.06908158957958,-0.34004178643227
629,1957498036,-1.49660634994507,0.02125114761293,21.01647567749023,-0.00553901400417,-0.34669500589371,9.80289745330811,-5.35179996490479,0.09021334350109,-0.41150552034378
630,1957506369,-1.49586701393127,0.02208779193461,21.01608657836914,-0.00841624848545,-0.32400679588318,9.79399299621582,-5.31695222854614,0.19319537281990,-0.43031919002533
631,1957514702,-1.49617218971252,0.02169356122613,21.01589393615723,0.01036342699081,-0.34451279044151,9.80001068115234,-5.41537427902222,0.04725826904178,-0.40622895956039
632,1957523035,-1.49571573734283,0.02112953737378,21.01564025878906,-0.01539310254157,-0.34342870116234,9.76842212677002,-5.35067319869995,0.02517879381776,-0.41783222556114
633,1957531368,-1.49486291408539,0.02088015712798,21.01613426208496,-0.01055770833045,-0.35325771570206,9.80199146270752,-5.27608442306519,0.06201206147671,-0.33668634295464
634,1957539701,-1.49512040615082,0.02139852941036,21.01621818542480,-0.01044477242976,-0.36506435275078,9.80090427398682,-5.43658208847046,0.15386468172073,-0.37387815117836
635,1957548034,-1.49494421482086,0.02147392742336,21.01659393310547,0.01071059703827,-0.37230804562569,9.79193019866943,-5.35661554336548,0.10135553777218,-0.34078463912010
636,1957556367,-1.49473559856415,0.02056882344186,21.01649284362793,-0.01122318767011,-0.33681038022041,9.77436256408691,-5.38018035888672,-0.01681574620306,-0.40110611915588
637,1957564700,-1.49534440040588,0.01992195658386,21.01663208007812,-0.01120342127979,-0.33971142768860,9.77748870849609,-5.45073509216309,0.01684136129916,-0.39789152145386
638,1957573033,-1.49539935588837,0.02009513974190,21.01671791076660,-0.02013161405921,-0.34262797236443,9.79714965820312,-5.41231346130371,0.11263860017061,-0.37524852156639
639,1957581366,-1.49518537521362,0.02003140002489,21.01672363281250,0.00098670739681,-0.35054779052734,9.79223918914795,-5.35290145874023,0.08631996810436,-0.38927230238914
640,1957589699,-1.49456381797791,0.02002891711891,21.01702117919922,0.00351393269375,-0.35578650236130,9.82415199279785,-5.33036136627197,0.09108421951532,-0.35015940666199
641,1957598032,-1.49480617046356,0.01956478506327,21.01664352416992,0.01036409288645,-0.36295151710510,9.76818752288818,-5.40707540512085,0.03737116605043,-0.42695087194443
642,1957606365,-1.49417328834534,0.01908240281045,21.01660919189453,0.00454100687057,-0.34952393174171,9.80276012420654,-5.32977151870728,0.03568062931299,-0.39196184277534
643,1957614698,-1.49409615993500,0.01902357302606,21.01669120788574,0.00161682337057,-0.36175623536110,9.78232765197754,-5.36934566497803,0.08606383204460,-0.38230526447296
644,1957623031,-1.49397718906403,0.01923082582653,21.01734542846680,-0.01044337451458,-0.35473862290382,9.78552913665771,-5.39160442352295,0.11539214104414,-0.30600047111511
645,1957631364,-1.49390637874603,0.01958084665239,21.01759147644043,0.02498642541468,-0.34143227338791,9.78998947143555,-5.36919260025024,0.13373193144798,-0.34649658203125
646,1957639697,-1.49387609958649,0.02027608454227,21.01809883117676,0.01254906319082,-0.34740388393402,9.76979541778564,-5.40243911743164,0.17471469938755,-0.32364869117737
647,1957648030,-1.49411416053772,0.02017171122134,21.01746559143066,-0.00361491320655,-0.33404830098152,9.79759693145752,-5.40722894668579,0.08209361881018,-0.44662263989449
648,1957656363,-1.49458396434784,0.02033091336489,21.01799011230469,0.00155049271416,-0.33739691972733,9.79243183135986,-5.46204376220703,0.10955207794905,-0.32167637348175
649,1957664696,-1.49497151374817,0.02041709236801,21.01855087280273,-0.02904470451176,-0.35374101996422,9.76068115234375,-5.42490291595459,0.10209834575653,-0.31698897480965
650,1957673029,-1.49481809139252,0.02051108703017,21.01833724975586,-0.01327949296683,-0.35953217744827,9.78613471984863,-5.38742971420288,0.10394256561995,-0.41147989034653
651,1957681362,-1.49576163291931,0.02071076259017,21.01855468750000,-0.01211427059025,-0.36033174395561,9.79809665679932,-5.49046230316162,0.11660880595446,-0.34766203165054
652,1957689695,-1.49549925327301,0.02029145322740,21.01932334899902,-0.00876812078059,-0.34295943379402,9.82885742187500,-5.37491655349731,0.03933065757155,-0.29587000608444
653,1957698028,-1.49574339389801,0.02134322002530,21.01937103271484,-0.01130615361035,-0.35707458853722,9.79548454284668,-5.40844535827637,0.21952676773071,-0.36904987692833
654,1957706361,-1.49567639827728,0.02224357798696,21.01985359191895,0.01005036756396,-0.34604966640472,9.77684879302979,-5.39748334884644,0.19865117967129,-0.32535201311111
655,1957714694,-1.49522745609283,0.02318139746785,21.01990318298340,-0.00974096637219,-0.35896328091621,9.77764987945557,-5.32454681396484,0.20560546219349,-0.37820696830750
656,1957723027,-1.49436628818512,0.02332392334938,21.01997184753418,-0.00596175994724,-0.35941970348358,9.79978752136230,-5.30315876007080,0.10932156443596,-0.37846314907074
657,1957731360,-1.49384391307831,0.02279034070671,21.02025794982910,0.00811460334808,-0.35767504572868,9.81423759460449,-5.31511974334717,0.02835495769978,-0.35423204302788
658,1957739693,-1.49384593963623,0.02211727388203,21.02068519592285,-0.00574943982065,-0.35708230733871,9.82624912261963,-5.40592336654663,0.01004078052938,-0.33740353584290
659,1957748026,-1.50113093852997,0.02706740051508,20.99757385253906,0.00520887598395,-0.34341248869896,9.77707004547119,-5.33212852478027,0.08455260097980,-0.43752959370613
660,1957756359,-1.50144481658936,0.02695921063423,20.99745368957520,0.00438359845430,-0.34928861260414,9.78717708587646,-5.44385719299316,0.07966027408838,-0.40143913030624
661,1957764692,-1.50123095512390,0.02747256867588,20.99751091003418,0.00086738076061,-0.35272070765495,9.76850509643555,-5.35154390335083,0.15481244027615,-0.37380135059357
662,1957773025,-1.50152635574341,0.02721483819187,20.99769973754883,0.01112614106387,-0.36084169149399,9.81432533264160,-5.44142436981201,0.06106434017420,-0.36345323920250
663,1957781358,-1.50158405303955,0.02675494551659,20.99858093261719,-0.00742656132206,-0.37210857868195,9.78869724273682,-5.38441944122314,0.03387482836843,-0.27412354946136
664,1957789691,-1.50113940238953,0.02758089080453,20.99926376342773,0.00073328852886,-0.35233709216118,9.82031345367432,-5.35224866867065,0.18948131799698,-0.30040377378464
665,1957798024,-1.50100922584534,0.02694170735776,20.99914360046387,-0.00708999531344,-0.35204324126244,9.80565738677979,-5.36263465881348,0.01570152677596,-0.37961578369141
666,1957806357,-1.50096011161804,0.02621453627944,20.99968719482422,-0.00917193666101,-0.33614447712898,9.78774547576904,-5.39934015274048,0.00338107929565,-0.32077988982201
667,1957814690,-1.50139987468719,0.02681764587760,20.99929809570312,-0.01048114057630,-0.34041833877563,9.81079959869385,-5.43125486373901,0.16559602320194,-0.41626974940300
668,1957823023,-1.50116491317749,0.02683741413057,20.99955940246582,-0.00091461016564,-0.37501886487007,9.81332302093506,-5.37795257568359,0.09477267414331,-0.35392469167709
669,1957831356,-1.50086069107056,0.02722865529358,21.00011253356934,-0.01717008277774,-0.35514152050018,9.79772281646729,-5.34090137481689,0.13850897550583,-0.31723231077194
670,1957839689,-1.50012636184692,0.02740882895887,21.00106620788574,-0.00683773774654,-0.34473234415054,9.79482936859131,-5.31733560562134,0.10994909703732,-0.27015331387520
671,1957848022,-1.49976146221161,0.02741328440607,21.00091171264648,0.00389973097481,-0.34011781215668,9.80159091949463,-5.33379364013672,0.09408109635115,-0.42095717787743
672,1957856355,-1.49913942813873,0.02721385098994,21.00092697143555,-0.00060343689984,-0.34513431787491,9.80935668945312,-5.33092355728149,0.06798017770052,-0.38412386178970
673,1957864688,-1.49941325187683,0.02798669971526,21.00156402587891,0.00330840423703,-0.36424091458321,9.81753444671631,-5.41076469421387,0.18352599442005,-0.30694818496704
674,1957873021,-1.49877202510834,0.02753489650786,21.00126075744629,-0.00272143329494,-0.34121274948120,9.79035377502441,-5.32831144332886,0.03977890685201,-0.42177677154541
675,1957881354,-1.49869072437286,0.02724047563970,21.00107574462891,-0.01702538318932,-0.36422634124756,9.77970886230469,-5.36898708343506,0.05704290047288,-0.36035385727882
676,1957889687,-1.49832618236542,0.02738913893700,21.00036621093750,-0.01032960321754,-0.36064690351486,9.78958129882812,-5.36015081405640,0.11142192780972,-0.46844595670700
677,1957898020,-1.49809086322784,0.02803693898022,21.00020217895508,-0.02690474130213,-0.32951864600182,9.79675292968750,-5.35051822662354,0.17156413197517,-0.39990219473839
678,1957906353,-1.49848830699921,0.02756779082119,21.00018882751465,-0.01624435000122,-0.34295147657394,9.81552600860596,-5.45251512527466,0.03506588563323,-0.38689023256302
679,1957914686,-1.49870657920837,0.02710856683552,21.00043106079102,0.00981830805540,-0.34581187367439,9.79669857025146,-5.40438604354858,0.03696133941412,-0.35123521089554
680,1957923019,-1.49821650981903,0.02682169899344,21.00082969665527,-0.01330742053688,-0.34678208827972,9.79416465759277,-5.34647226333618,0.05722220614552,-0.33709615468979
681,1957931352,-1.49868476390839,0.02627550065517,21.00131034851074,-0.01342777442187,-0.35523459315300,9.79788970947266,-5.43448257446289,0.02589599229395,-0.34921166300774
682,1957939685,-1.49713563919067,0.02648632600904,21.00138664245605,0.00479459343478,-0.35726898908615,9.83452033996582,-5.21855449676514,0.11749248951674,-0.37423676252365
683,1957948018,-1.49796164035797,0.02659531682730,21.00123405456543,-0.00426670722663,-0.35949620604515,9.78904056549072,-5.47688722610474,0.10595329105854,-0.39594489336014
684,1957956351,-1.49806952476501,0.02682965062559,21.00086784362793,0.01002777088434,-0.34007743000984,9.79438972473145,-5.41829490661621,0.12089919298887,-0.42651540040970
685,1957964684,-1.49748587608337,0.02723818086088,21.00085639953613,-0.00763027975336,-0.36523088812828,9.80494308471680,-5.30792284011841,0.14328603446484,-0.39429274201393
686,1957973017,-1.49669992923737,0.02756389603019,21.00096321105957,-0.00531921954826,-0.33964815735817,9.77449607849121,-5.31130361557007,0.13081188499928,-0.37152165174484
687,1957981350,-1.49712383747101,0.02831649780273,21.00134658813477,0.01357602514327,-0.35393279790878,9.77554416656494,-5.42745161056519,0.18131035566330,-0.33523911237717
688,1957989683,-1.49697971343994,0.02840814366937,21.00116920471191,0.00207828939892,-0.36013182997704,9.80230712890625,-5.38795423507690,0.10272588580847,-0.40529400110245
689,1957998016,-1.49767518043518,0.02875317633152,21.00039100646973,0.00210108840838,-0.35784551501274,9.77909851074219,-5.46180057525635,0.13902127742767,-0.49409860372543
