sep=,
DeviceTag:,thirdfloor
FirmwareVersion:,2.2.1
AppVersion:,2023.6.0
StartTime: ,2025-04-03_11:56:43_000 PDT
© Movella Technologies B. V. 2005-2025

PacketCounter,SampleTimeFine,Euler_X,Euler_Y,Euler_Z,Acc_X,Acc_Y,Acc_Z,Gyr_X,Gyr_Y,Gyr_Z
0,2549622740,3.13778996467590,1.26649355888367,87.28723907470703,0.00000000000000,0.00000000000000,0.00000000000000,0.00000000000000,0.00000000000000,0.00000000000000
1,2549631073,3.13953375816345,1.25987851619720,87.30899047851562,-0.21531330049038,0.56899511814117,10.15731143951416,0.15072697401047,-0.64924401044846,2.64906263351440
2,2549639406,3.15132594108582,1.24130952358246,87.32183074951172,-0.22156123816967,0.54546064138412,10.14085578918457,0.03933066129684,-0.57370769977570,2.59337759017944
3,2549647739,3.15405130386353,1.23532104492188,87.34321594238281,-0.19487890601158,0.54749369621277,10.13534736633301,0.27208724617958,-0.57568001747131,2.59988355636597
4,2549656072,3.15094375610352,1.21485280990601,87.35806274414062,-0.17733512818813,0.55702483654022,10.14815235137939,0.18861043453217,-0.48702910542488,2.58021163940430
5,2549664405,3.15247011184692,1.20972728729248,87.37940979003906,-0.19843924045563,0.55008262395859,10.12437057495117,0.12964646518230,-0.47378653287888,2.59004735946655
6,2549672738,3.14895129203796,1.18251609802246,87.39143371582031,-0.18291047215462,0.53928548097610,10.14633178710938,0.08210643380880,-0.48843789100647,2.62122011184692
7,2549681071,3.15084266662598,1.17733240127563,87.41311645507812,-0.18571816384792,0.52671980857849,10.14451217651367,0.17229415476322,-0.47880688309669,2.63266944885254
8,2549689404,3.13962316513062,1.15120065212250,87.42642211914062,-0.20284880697727,0.56736123561859,10.16649055480957,0.05080583691597,-0.53590101003647,2.55900287628174
9,2549697737,3.14065432548523,1.14553356170654,87.44826507568359,-0.20383599400520,0.54371583461761,10.16102504730225,0.07214249670506,-0.53595232963562,2.65405774116516
10,2549706070,3.13485908508301,1.12849032878876,87.46270751953125,-0.21195752918720,0.54580765962601,10.16287040710449,0.10813049972057,-0.55572646856308,2.59499073028564
11,2549714403,3.13661146163940,1.12180197238922,87.48324584960938,-0.24931955337524,0.55180054903030,10.12080574035645,0.16184355318546,-0.66573959589005,2.50480318069458
12,2549722736,3.13313508033752,1.11536908149719,87.49786376953125,-0.24991314113140,0.56130653619766,10.17941474914551,0.16540391743183,-0.63295334577560,2.72941446304321
13,2549731069,3.13347649574280,1.10877633094788,87.51921844482422,-0.22336643934250,0.52657043933868,10.13363456726074,-0.00850392598659,-0.65042227506638,2.60331559181213
14,2549739402,3.12962484359741,1.10907208919525,87.53086090087891,-0.23855127394199,0.54515671730042,10.15380859375000,0.11130666732788,-0.59343063831329,2.56059122085571
15,2549747735,3.13143539428711,1.10262060165405,87.55158233642578,-0.24479950964451,0.54365622997284,10.14283561706543,0.16850323975086,-0.63792246580124,2.52613973617554
16,2549756068,3.12777709960938,1.10676908493042,87.56521606445312,-0.21621564030647,0.54372382164001,10.16843605041504,0.06727578490973,-0.54243266582489,2.60487794876099
17,2549764401,3.12936401367188,1.10173034667969,87.58722686767578,-0.21712756156921,0.54760420322418,10.13183116912842,0.13981530070305,-0.45913514494896,2.67037343978882
18,2549772734,3.12724184989929,1.10453784465790,87.60039520263672,-0.19780161976814,0.54596078395844,10.18125057220459,0.18689423799515,-0.56097728013992,2.65561962127686
19,2549781067,3.12916135787964,1.09854710102081,87.62160491943359,-0.18214513361454,0.54616850614548,10.14825344085693,0.18184827268124,-0.57898420095444,2.58349037170410
20,2549789400,3.12754464149475,1.09904730319977,87.63423919677734,-0.20296703279018,0.56319743394852,10.14280223846436,0.18725284934044,-0.46428361535072,2.54573464393616
21,2549797733,3.12799167633057,1.09414756298065,87.65514373779297,-0.18585893511772,0.53580927848816,10.14643383026123,0.00534056825563,-0.45032387971878,2.53938269615173
22,2549806066,3.12603592872620,1.09324681758881,87.66831207275391,-0.17769290506840,0.53402721881866,10.15741920471191,0.06612314283848,-0.43746557831764,2.57864904403687
23,2549814399,3.12829828262329,1.08738696575165,87.68959808349609,-0.21702764928341,0.54018861055374,10.15019130706787,0.22285664081573,-0.56284719705582,2.59166121482849
24,2549822732,3.12620973587036,1.08456349372864,87.70298004150391,-0.20501048862934,0.53857600688934,10.15200519561768,0.08510328829288,-0.56866157054901,2.58359241485596
25,2549831065,3.12736034393311,1.07819604873657,87.72451782226562,-0.21673916280270,0.54257625341415,10.14105510711670,0.08976508677006,-0.62281018495560,2.62457537651062
26,2549839398,3.12514972686768,1.07599508762360,87.73677062988281,-0.24293752014637,0.55044895410538,10.17775058746338,0.05746553838253,-0.52101910114288,2.53610372543335
27,2549847731,3.12617015838623,1.07047796249390,87.75759887695312,-0.23104049265385,0.54865550994873,10.16125488281250,0.07544672489166,-0.52603954076767,2.53607797622681
28,2549856064,3.12439036369324,1.06878614425659,87.77159881591797,-0.23176969587803,0.55983126163483,10.15577697753906,0.05390515923500,-0.59960371255875,2.65579938888550
29,2549864397,3.12594413757324,1.06257784366608,87.79351043701172,-0.24710945785046,0.56575179100037,10.14483833312988,0.13748441636562,-0.60016715526581,2.67047619819641
30,2549872730,3.12548589706421,1.06192255020142,87.80764770507812,-0.20224954187870,0.55080538988113,10.14840030670166,0.10313571989536,-0.58679658174515,2.67705893516541
31,2549881063,3.12688660621643,1.05593371391296,87.82840728759766,-0.20667618513107,0.55112618207932,10.13011646270752,0.12265377491713,-0.58208352327347,2.53274846076965
32,2549889396,3.12698006629944,1.05499422550201,87.84158325195312,-0.19269590079784,0.56219351291656,10.13008022308350,0.13935424387455,-0.55590575933456,2.62946772575378
33,2549897729,3.12715744972229,1.04922127723694,87.86222076416016,-0.18600340187550,0.56412947177887,10.16303157806396,-0.02474335022271,-0.55644369125366,2.51986455917358
34,2549906062,3.12780261039734,1.04703712463379,87.87540435791016,-0.19060860574245,0.55337131023407,10.16306114196777,0.14219743013382,-0.60518753528595,2.57045269012451
35,2549914395,3.12885093688965,1.04142177104950,87.89617919921875,-0.18216505646706,0.55351501703262,10.17952823638916,0.08033905178308,-0.53587543964386,2.53446435928345
36,2549922728,3.12931585311890,1.03903400897980,87.90917205810547,-0.18840235471725,0.56297475099564,10.16124534606934,0.10815609991550,-0.54430246353149,2.52785611152649
37,2549931061,3.13012766838074,1.03382658958435,87.93048858642578,-0.19318401813507,0.54860413074493,10.15578937530518,0.05139495804906,-0.48482620716095,2.60006237030029
38,2549939394,3.13046741485596,1.03093314170837,87.94345092773438,-0.19780780375004,0.54336136579514,10.15398693084717,0.07375619560480,-0.54891306161880,2.57547283172607
39,2549947727,3.13162207603455,1.02468419075012,87.96424865722656,-0.22593218088150,0.54770541191101,10.17058277130127,0.09286440908909,-0.61299985647202,2.54593992233276
40,2549956060,3.13174414634705,1.02236247062683,87.97754669189453,-0.22503450512886,0.54240590333939,10.15777873992920,0.06117960438132,-0.49471339583397,2.61317729949951
41,2549964393,3.13304376602173,1.01595890522003,87.99797058105469,-0.24397017061710,0.55394464731216,10.15235042572021,0.11228000372648,-0.63290208578110,2.50659632682800
42,2549972726,3.13336801528931,1.01321971416473,88.01086425781250,-0.25015994906425,0.55249148607254,10.16705799102783,0.08956016600132,-0.61630409955978,2.55744004249573
43,2549981059,3.13443970680237,1.00799226760864,88.03266906738281,-0.24931497871876,0.55085295438766,10.13043975830078,0.08274678885937,-0.48175257444382,2.66233086585999
44,2549989392,3.13522148132324,1.00648534297943,88.04560089111328,-0.21703244745731,0.55604553222656,10.15229797363281,0.13781738281250,-0.54622352123260,2.61963176727295
45,2549997725,3.13597726821899,1.00046324729919,88.06648254394531,-0.22525127232075,0.54548835754395,10.17433166503906,0.04716861620545,-0.58472174406052,2.56410026550293
46,2550006058,3.13595318794250,0.99885308742523,88.07870483398438,-0.22043940424919,0.55652028322220,10.14318847656250,0.03910012543201,-0.56991672515869,2.54606771469116
47,2550014391,3.13691830635071,0.99270111322403,88.09947967529297,-0.21770216524601,0.55114555358887,10.13221549987793,0.07160459458828,-0.59973168373108,2.55423879623413
48,2550022724,3.13744473457336,0.99193513393402,88.11238861083984,-0.19828192889690,0.55100578069687,10.15778255462646,0.09601496160030,-0.46715238690376,2.61148667335510
49,2550031057,3.13821482658386,0.98621922731400,88.13433074951172,-0.18806202709675,0.55833327770233,10.15774917602539,0.04791142418981,-0.54043471813202,2.69363141059875
50,2550039390,3.13937354087830,0.98464584350586,88.14730834960938,-0.19656957685947,0.54407495260239,10.14316177368164,0.16437935829163,-0.52030193805695,2.64744901657104
51,2550047723,3.14099121093750,0.97849929332733,88.16845703125000,-0.19008868932724,0.54791581630707,10.11749839782715,0.15039399266243,-0.59724718332291,2.60490369796753
52,2550056056,3.14231491088867,0.97610759735107,88.18126678466797,-0.21430812776089,0.55247819423676,10.17071437835693,0.18978868424892,-0.58946043252945,2.59657907485962
53,2550064389,3.14371323585510,0.96941941976547,88.20164489746094,-0.20748345553875,0.56548374891281,10.15055274963379,0.12647028267384,-0.66586762666702,2.51976180076599
54,2550072722,3.14457845687866,0.96769398450851,88.21349334716797,-0.21415713429451,0.54942148923874,10.13045978546143,0.12490782141685,-0.51172119379044,2.51802039146423
55,2550081055,3.14597630500793,0.96153378486633,88.23431396484375,-0.24579431116581,0.55595219135284,10.17456626892090,0.12567624449730,-0.60026961565018,2.57055521011353
56,2550089388,3.14691925048828,0.96008616685867,88.24685668945312,-0.22503377497196,0.54111093282700,10.15984249114990,0.13353981077671,-0.49376565217972,2.60490369796753
57,2550097721,3.14808130264282,0.95458018779755,88.26822662353516,-0.24545273184776,0.57115304470062,10.14344310760498,0.09560513496399,-0.51955914497375,2.63948297500610
58,2550106054,3.14814853668213,0.95259702205658,88.28144073486328,-0.23235595226288,0.53810572624207,10.15258789062500,0.02273263595998,-0.58098208904266,2.63474440574646
59,2550114387,3.14964127540588,0.94638448953629,88.30310821533203,-0.22491423785686,0.56929498910904,10.18000030517578,0.13571703433990,-0.60198575258255,2.68038916587830
60,2550122720,3.15053343772888,0.94438958168030,88.31490325927734,-0.19464793801308,0.56519937515259,10.16521549224854,0.12232079356909,-0.59863030910492,2.55907988548279
61,2550131053,3.15142631530762,0.93840599060059,88.33638000488281,-0.19026285409927,0.55250644683838,10.16339969635010,0.06386909633875,-0.57488590478897,2.66417503356934
62,2550139386,3.15145659446716,0.93507945537567,88.34857940673828,-0.17860281467438,0.53587526082993,10.15054130554199,0.01420309301466,-0.73008251190186,2.59227609634399
63,2550147719,3.15277099609375,0.92993712425232,88.36962890625000,-0.20106804370880,0.54578185081482,10.14153194427490,0.11586599797010,-0.47557950019836,2.60989856719971
64,2550156052,3.15325522422791,0.92795646190643,88.38105773925781,-0.17419250309467,0.55450677871704,10.15052318572998,0.08041589707136,-0.54566007852554,2.56087303161621
65,2550164385,3.15470337867737,0.92184352874756,88.40214538574219,-0.19927439093590,0.53709810972214,10.15436458587646,0.13241279125214,-0.59220111370087,2.62634277343750
66,2550172718,3.15552949905396,0.92026096582413,88.41347503662109,-0.20188672840595,0.53200405836105,10.17820453643799,0.12716187536716,-0.47414511442184,2.52793312072754
67,2550181051,3.15646600723267,0.91409885883331,88.43393707275391,-0.21902425587177,0.54368603229523,10.16365909576416,0.07301337271929,-0.60293346643448,2.55600571632385
68,2550189384,3.15736913681030,0.91232568025589,88.44565582275391,-0.24504981935024,0.55749642848969,10.17296791076660,0.14842168986797,-0.49409854412079,2.59670710563660
69,2550197717,3.15892720222473,0.90645086765289,88.46580505371094,-0.26343461871147,0.52534455060959,10.14565467834473,0.14878028631210,-0.56953257322311,2.52298951148987
70,2550206050,3.15946412086487,0.90474092960358,88.47777557373047,-0.25239157676697,0.55650228261948,10.14923667907715,0.11202385276556,-0.51981526613235,2.60503172874451
71,2550214383,3.16051673889160,0.89983600378036,88.49855804443359,-0.23721471428871,0.53622257709503,10.17665386199951,0.08676822483540,-0.45060563087463,2.59524703025818
72,2550222716,3.16020441055298,0.89760309457779,88.50991821289062,-0.24309040606022,0.55672925710678,10.16203117370605,0.01389572303742,-0.60859423875809,2.56281924247742
73,2550231049,3.16089057922363,0.89198619127274,88.53076171875000,-0.23702403903008,0.54203885793686,10.15287971496582,0.04301910847425,-0.53359580039978,2.61512374877930
74,2550239382,3.16099429130554,0.88957607746124,88.54288482666016,-0.20649009943008,0.54501056671143,10.17102622985840,0.06299821287394,-0.64043271541595,2.69055747985840
75,2550247715,3.16286063194275,0.88347512483597,88.56298065185547,-0.21427260339260,0.55286049842834,10.16558647155762,0.18613864481449,-0.59646588563919,2.53606581687927
76,2550256048,3.16308736801147,0.88130056858063,88.57455444335938,-0.19476211071014,0.56171470880508,10.14531707763672,0.07972431182861,-0.60787701606750,2.64785885810852
77,2550264381,3.16420459747314,0.87532615661621,88.59550476074219,-0.18135286867619,0.54140800237656,10.16357707977295,0.09496477991343,-0.57696068286896,2.64291501045227
78,2550272714,3.16499519348145,0.87333983182907,88.60636138916016,-0.18721219897270,0.55286788940430,10.16911315917969,0.14724342525005,-0.56963503360748,2.55913114547729
79,2550281047,3.16636705398560,0.86800873279572,88.62667846679688,-0.17154192924500,0.55997037887573,10.13787555694580,0.12700818479061,-0.50372952222824,2.56735324859619
80,2550289380,3.16705632209778,0.86596590280533,88.63693237304688,-0.19436195492744,0.55553001165390,10.16185283660889,0.13095277547836,-0.55626440048218,2.52473115921021
81,2550297713,3.16774010658264,0.86024677753448,88.65718078613281,-0.23148299753666,0.56430768966675,10.16945266723633,0.04591351747513,-0.55162817239761,2.56768631935120
82,2550306046,3.16779875755310,0.85787016153336,88.66769409179688,-0.23652257025242,0.54816734790802,10.16036987304688,0.05008864030242,-0.59430146217346,2.55131888389587
83,2550314379,3.16911363601685,0.85169559717178,88.68798065185547,-0.21932573616505,0.54048705101013,10.14562511444092,0.12050215899944,-0.60528999567032,2.58218383789062
84,2550322712,3.16934418678284,0.84890586137772,88.69828796386719,-0.24161233007908,0.54885387420654,10.16411113739014,0.07542110979557,-0.65211278200150,2.56932520866394
85,2550331045,3.17053103446960,0.84323465824127,88.71786499023438,-0.24570859968662,0.55840659141541,10.15683460235596,0.10641434788704,-0.54937416315079,2.50190901756287
86,2550339378,3.17103862762451,0.84172803163528,88.72826385498047,-0.23400668799877,0.55458974838257,10.14028167724609,0.10723399370909,-0.51494854688644,2.55761981010437
87,2550347711,3.17310523986816,0.83695507049561,88.74837493896484,-0.22734323143959,0.56021028757095,10.14938926696777,0.21186816692352,-0.43802905082703,2.56707167625427
88,2550356044,3.17381715774536,0.83429670333862,88.75878906250000,-0.21930514276028,0.54935187101364,10.16583156585693,0.12769974768162,-0.66115456819534,2.59048271179199
89,2550364377,3.17461204528809,0.82860416173935,88.77954101562500,-0.18708728253841,0.55393362045288,10.14179801940918,0.05790097638965,-0.54348284006119,2.65789937973022
90,2550372710,3.17607092857361,0.82679325342178,88.78995513916016,-0.20989906787872,0.54774057865143,10.16763782501221,0.21676045656204,-0.54960465431213,2.63761281967163
91,2550381043,3.17818045616150,0.82169806957245,88.81024932861328,-0.19446656107903,0.54394555091858,10.16019630432129,0.21796432137489,-0.47586125135422,2.60641479492188
92,2550389376,3.17920017242432,0.81957775354385,88.81954193115234,-0.18928003311157,0.56064414978027,10.15098667144775,0.16808059811592,-0.58651477098465,2.51982593536377
93,2550397709,3.18008542060852,0.81367605924606,88.83912658691406,-0.18306599557400,0.55155056715012,10.15096759796143,0.07320547848940,-0.57821565866470,2.53491258621216
94,2550406042,3.18087792396545,0.81203013658524,88.84864044189453,-0.19841712713242,0.55785971879959,10.13828372955322,0.13996900618076,-0.51715141534805,2.54611921310425
95,2550414375,3.18188071250916,0.80637305974960,88.86885070800781,-0.20271998643875,0.55652046203613,10.17312717437744,0.08402750641108,-0.54225337505341,2.61850500106812
96,2550422708,3.18201184272766,0.80341577529907,88.87805938720703,-0.21435509622097,0.55903238058090,10.17689323425293,0.05856694653630,-0.66807049512863,2.58594918251038
97,2550431041,3.18279457092285,0.79752862453461,88.89807128906250,-0.21398970484734,0.54633742570877,10.14030456542969,0.06043678149581,-0.57301598787308,2.60387897491455
98,2550439374,3.18277788162231,0.79586207866669,88.90785980224609,-0.23249766230583,0.56192010641098,10.14595603942871,0.03886960446835,-0.51023554801941,2.63999533653259
99,2550447707,3.18373727798462,0.79012143611908,88.92715454101562,-0.21686162054539,0.55605435371399,10.16782855987549,0.08329748362303,-0.56040102243423,2.52512812614441
100,2550456040,3.18413615226746,0.78825461864471,88.93595123291016,-0.24849538505077,0.56670510768890,10.15895175933838,0.08857402950525,-0.54736334085464,2.54310941696167
101,2550464373,3.18545842170715,0.78166919946671,88.95545959472656,-0.22612953186035,0.54960370063782,10.15880870819092,0.12575307488441,-0.65959215164185,2.56602144241333
102,2550472706,3.18542385101318,0.78095585107803,88.96437835693359,-0.22912934422493,0.54445213079453,10.13872337341309,0.03388763219118,-0.41833168268204,2.56951761245728
103,2550481039,3.18603324890137,0.77540177106857,88.98394012451172,-0.22939105331898,0.55750238895416,10.15703582763672,0.04135418683290,-0.53656703233719,2.57286024093628
104,2550489372,3.18625473976135,0.77314889431000,88.99260711669922,-0.20852777361870,0.54952251911163,10.15871524810791,0.06626401841640,-0.60918337106705,2.60724735260010
105,2550497705,3.18733716011047,0.76736569404602,89.01242065429688,-0.20223927497864,0.54580521583557,10.14403724670410,0.09675776958466,-0.56225800514221,2.61527729034424
106,2550506038,3.18773126602173,0.76462393999100,89.02043914794922,-0.20051485300064,0.55885171890259,10.15134048461914,0.09081527590752,-0.67042696475983,2.52032566070557
107,2550514371,3.18798351287842,0.75820374488831,89.03916168212891,-0.19080843031406,0.54215013980865,10.15863227844238,-0.00056351313833,-0.64558124542236,2.49777197837830
108,2550522704,3.18880581855774,0.75601357221603,89.04763031005859,-0.20537081360817,0.56311357021332,10.15326309204102,0.14200532436371,-0.59440392255783,2.60038280487061
109,2550531037,3.19049191474915,0.75039792060852,89.06744384765625,-0.21589438617229,0.54563498497009,10.17355346679688,0.17110310494900,-0.54256075620651,2.63140177726746
110,2550539370,3.19077038764954,0.74878424406052,89.07584381103516,-0.21664339303970,0.54964494705200,10.16440105438232,0.07620235532522,-0.52740991115570,2.59905099868774
111,2550547703,3.19184517860413,0.74339729547501,89.09449768066406,-0.22341018915176,0.54464375972748,10.14069652557373,0.09881971776485,-0.52141624689102,2.50217771530151
112,2550556036,3.19173026084900,0.74126034975052,89.10308837890625,-0.22574089467525,0.54868221282959,10.16087722778320,0.03232516348362,-0.59199619293213,2.64028978347778
113,2550564369,3.19289016723633,0.73563611507416,89.12198638916016,-0.22481466829777,0.54157137870789,10.17737674713135,0.10824575275183,-0.54947656393051,2.54318594932556
114,2550572702,3.19360184669495,0.73369222879410,89.12936401367188,-0.23012319207191,0.53285235166550,10.13351535797119,0.13556334376335,-0.57959890365601,2.56763505935669
115,2550581035,3.19429612159729,0.72757875919342,89.14787292480469,-0.21544414758682,0.54717361927032,10.14619255065918,0.05423814430833,-0.61059212684631,2.51069450378418
116,2550589368,3.19467592239380,0.72641855478287,89.15496826171875,-0.22741411626339,0.54427838325500,10.14450931549072,0.09970341622829,-0.49192142486572,2.53992056846619
117,2550597701,3.19555258750916,0.71986883878708,89.17372894287109,-0.23245200514793,0.56682169437408,10.17018318176270,0.07624077051878,-0.66189748048782,2.55656957626343
118,2550606034,3.19614410400391,0.71768176555634,89.18077850341797,-0.19962184131145,0.53809231519699,10.16992282867432,0.12465168535709,-0.62204170227051,2.54811692237854
119,2550614367,3.19711852073669,0.71150976419449,89.19998931884766,-0.20004454255104,0.54391080141068,10.17543029785156,0.08743419498205,-0.61456233263016,2.61553359031677
120,2550622700,3.19791436195374,0.70985746383667,89.20675659179688,-0.19925037026405,0.54228121042252,10.15347003936768,0.15412086248398,-0.55552148818970,2.54958987236023
121,2550631033,3.19877076148987,0.70402151346207,89.22546386718750,-0.19810321927071,0.54255306720734,10.16446685791016,0.07330793887377,-0.57820302248001,2.56313967704773
122,2550639366,3.19894719123840,0.70181429386139,89.23281097412109,-0.19615545868874,0.56103742122650,10.16626834869385,0.08256748318672,-0.61607354879379,2.63364267349243
123,2550647699,3.19983124732971,0.69590187072754,89.25134277343750,-0.21678900718689,0.56956785917282,10.15001010894775,0.07790570706129,-0.58815407752991,2.55329108238220
124,2550656032,3.20004081726074,0.69517660140991,89.25750732421875,-0.20032764971256,0.54341596364975,10.17187500000000,0.08437330275774,-0.44730141758919,2.50397086143494
125,2550664365,3.20109415054321,0.68895798921585,89.27591705322266,-0.20655764639378,0.55488640069962,10.13531875610352,0.09829462319613,-0.62470555305481,2.54998660087585
126,2550672698,3.20108175277710,0.68663561344147,89.28227996826172,-0.21069514751434,0.55175852775574,10.17201328277588,0.05872062593699,-0.63684666156769,2.56166672706604
127,2550681031,3.20204639434814,0.68039441108704,89.29981994628906,-0.22306853532791,0.54338663816452,10.14471817016602,0.08935526013374,-0.63443893194199,2.45818543434143
128,2550689364,3.20216155052185,0.67875456809998,89.30634307861328,-0.21455928683281,0.54143214225769,10.16663360595703,0.07396110147238,-0.55851840972900,2.59268593788147
129,2550697697,3.20355486869812,0.67363566160202,89.32478332519531,-0.19683380424976,0.54813802242279,10.15728855133057,0.14101918041706,-0.49463653564453,2.56768631935120
130,2550706030,3.20400404930115,0.67178398370743,89.33139038085938,-0.23208074271679,0.56119900941849,10.13935852050781,0.11783827841282,-0.58251893520355,2.63348913192749
131,2550714363,3.20515990257263,0.66622823476791,89.34993743896484,-0.21330015361309,0.54047435522079,10.17949962615967,0.11197264492512,-0.54635161161423,2.59414553642273
132,2550722696,3.20517921447754,0.66380184888840,89.35645294189453,-0.19981774687767,0.54178571701050,10.13908100128174,0.06525226682425,-0.65656965970993,2.66509723663330
133,2550731029,3.20674109458923,0.65750551223755,89.37435150146484,-0.21055053174496,0.55732911825180,10.14834880828857,0.16171547770500,-0.63956183195114,2.53333759307861
134,2550739362,3.20690202713013,0.65656840801239,89.37987518310547,-0.20949620008469,0.55940830707550,10.13920783996582,0.08556436002254,-0.48500555753708,2.56148767471313
135,2550747695,3.20794606208801,0.65014022588730,89.39811706542969,-0.21956372261047,0.56380701065063,10.11370277404785,0.10094568878412,-0.65430277585983,2.58455300331116
136,2550756028,3.20886635780334,0.64819830656052,89.40402984619141,-0.20125091075897,0.53754776716232,10.13552284240723,0.17311380803585,-0.60529005527496,2.65464663505554
137,2550764361,3.20935106277466,0.64267313480377,89.42222595214844,-0.20942404866219,0.56404632329941,10.16489696502686,0.03326008841395,-0.54752987623215,2.58651280403137
138,2550772694,3.21028590202332,0.64150726795197,89.42680358886719,-0.20638647675514,0.57145762443542,10.14655780792236,0.17766033113003,-0.52360612154007,2.49218845367432
139,2550781027,3.21114230155945,0.63488137722015,89.44441986083984,-0.21835131943226,0.56512731313705,10.16138458251953,0.08015975356102,-0.68169730901718,2.53395247459412
140,2550789360,3.21203351020813,0.63385158777237,89.44913482666016,-0.21366256475449,0.56517529487610,10.15401935577393,0.16854165494442,-0.51020991802216,2.54638791084290
141,2550797693,3.21310257911682,0.62804388999939,89.46751403808594,-0.21765686571598,0.54369401931763,10.14497375488281,0.10480064898729,-0.58057224750519,2.63374519348145
142,2550806026,3.21380543708801,0.62740904092789,89.47213745117188,-0.21974012255669,0.55694508552551,10.13216781616211,0.14675676822662,-0.46699875593185,2.54809141159058
143,2550814359,3.21533060073853,0.62177401781082,89.48973083496094,-0.23052574694157,0.54504227638245,10.12685489654541,0.15885949134827,-0.56414073705673,2.54982066154480
144,2550822692,3.21550154685974,0.62044960260391,89.49480438232422,-0.21132047474384,0.54065543413162,10.13762760162354,0.08427082747221,-0.55372852087021,2.63885521888733
145,2550831025,3.21673321723938,0.61517804861069,89.51180267333984,-0.21707345545292,0.54682767391205,10.15419292449951,0.12513835728168,-0.52555292844772,2.48930668830872
146,2550839358,3.21585845947266,0.61335080862045,89.51608276367188,-0.22308370471001,0.54925733804703,10.16893482208252,-0.03626975789666,-0.62257963418961,2.55931043624878
147,2550847691,3.21707272529602,0.60833758115768,89.53405761718750,-0.20926448702812,0.55045753717422,10.15963554382324,0.12203902006149,-0.48925751447678,2.61230611801147
148,2550856024,3.21679711341858,0.60761988162994,89.53836059570312,-0.21297971904278,0.53623896837234,10.14691352844238,0.03628256544471,-0.49504634737968,2.57183575630188
149,2550864357,3.21809029579163,0.60172748565674,89.55607604980469,-0.19571316242218,0.56118971109390,10.16131019592285,0.13197736442089,-0.59619694948196,2.59929394721985
150,2550872690,3.21818327903748,0.59979760646820,89.56038665771484,-0.20638573169708,0.54744911193848,10.16333580017090,0.08145327121019,-0.64227694272995,2.60291862487793
151,2550881023,3.21916556358337,0.59340459108353,89.57752990722656,-0.20903016626835,0.57541429996490,10.16700553894043,0.09693707525730,-0.66084730625153,2.54711794853210
152,2550889356,3.21992444992065,0.59151512384415,89.58119201660156,-0.20806424319744,0.54264301061630,10.15975761413574,0.16140809655190,-0.64468467235565,2.54506897926331
153,2550897689,3.22074937820435,0.58560484647751,89.59815979003906,-0.22271241247654,0.55304718017578,10.16910266876221,0.07884062081575,-0.60619932413101,2.53409337997437
154,2550906022,3.22042655944824,0.58443123102188,89.60193634033203,-0.21819038689137,0.55659312009811,10.13793754577637,0.03315763175488,-0.56043946743011,2.61963200569153
155,2550914355,3.22162652015686,0.57923668622971,89.61940765380859,-0.23295579850674,0.56692057847977,10.14729785919189,0.12288429588079,-0.51725393533707,2.59929418563843
156,2550922688,3.22236633300781,0.57859075069427,89.62293243408203,-0.23043057322502,0.52864003181458,10.16384124755859,0.15915405750275,-0.50688016414642,2.58103132247925
157,2550931021,3.22344350814819,0.57363915443420,89.63972473144531,-0.22470581531525,0.54698872566223,10.16374206542969,0.11002595722675,-0.49399617314339,2.53049445152283
158,2550939354,3.22326469421387,0.57250905036926,89.64269256591797,-0.20857204496861,0.56267923116684,10.12872505187988,0.05521148815751,-0.57591050863266,2.55559635162354
159,2550947687,3.22528576850891,0.56694519519806,89.65924835205078,-0.23114837706089,0.55718022584915,10.17118549346924,0.22248524427414,-0.56797003746033,2.51511287689209
160,2550956020,3.22565627098083,0.56651365756989,89.66165924072266,-0.22365075349808,0.54972916841507,10.14365005493164,0.12112972140312,-0.50253850221634,2.50753140449524
161,2550964353,3.22691917419434,0.56066524982452,89.67892456054688,-0.20287968218327,0.54324984550476,10.14705467224121,0.13199016451836,-0.59950113296509,2.61749315261841
162,2550972686,3.22669148445129,0.55914098024368,89.68148040771484,-0.21464911103249,0.54426485300064,10.13992023468018,0.05019109696150,-0.63474637269974,2.56891560554504
163,2550981019,3.22753524780273,0.55424135923386,89.69876861572266,-0.18235363066196,0.54250448942184,10.15231895446777,0.08311819285154,-0.48649123311043,2.62428092956543
164,2550989352,3.22755384445190,0.55278390645981,89.70168304443359,-0.20442596077919,0.55516517162323,10.15262889862061,0.08218327909708,-0.62580704689026,2.65239262580872
165,2550997685,3.22766399383545,0.54703277349472,89.71840667724609,-0.21656660735607,0.55243688821793,10.13452053070068,-0.00427757715806,-0.59363555908203,2.57585740089417
166,2551006018,3.22699522972107,0.54618090391159,89.71999359130859,-0.22101397812366,0.54742783308029,10.15477752685547,0.00094772677403,-0.56767547130585,2.49871993064880
167,2551014351,3.22844099998474,0.54159533977509,89.73628997802734,-0.21607834100723,0.55285412073135,10.15288925170898,0.15724577009678,-0.45785441994667,2.52863717079163
168,2551022684,3.22851967811584,0.54165709018707,89.73867034912109,-0.21287693083286,0.55488300323486,10.18031501770020,0.09218563884497,-0.45891746878624,2.61114048957825
169,2551031017,3.22886443138123,0.53667330741882,89.75498199462891,-0.20353718101978,0.55254662036896,10.13809490203857,0.02458966709673,-0.50602197647095,2.54608058929443
170,2551039350,3.22942972183228,0.53675329685211,89.75666809082031,-0.21684506535530,0.55737835168839,10.14745998382568,0.15199486911297,-0.46756225824356,2.53037905693054
171,2551047683,3.22983074188232,0.53140759468079,89.77339172363281,-0.21176022291183,0.53170710802078,10.17309379577637,0.03191533684731,-0.54551917314529,2.60845112800598
172,2551056016,3.23019433021545,0.53028064966202,89.77587890625000,-0.21625389158726,0.55979299545288,10.17129516601562,0.12999223172665,-0.61435735225677,2.65048408508301
173,2551064349,3.23139238357544,0.52531421184540,89.79177093505859,-0.20599293708801,0.53736227750778,10.14741134643555,0.12768696248531,-0.50782781839371,2.52079916000366
174,2551072682,3.23175621032715,0.52481788396835,89.79350280761719,-0.22878542542458,0.53380203247070,10.17341995239258,0.13345016539097,-0.54567283391953,2.58480882644653
175,2551081015,3.23421263694763,0.51918810606003,89.80969238281250,-0.21482591331005,0.56626635789871,10.15667724609375,0.27960500121117,-0.58670693635941,2.57228398323059
176,2551089348,3.23512959480286,0.51839548349380,89.81053924560547,-0.21421220898628,0.53189378976822,10.15858268737793,0.20176333189011,-0.59560781717300,2.51060485839844
177,2551097681,3.23675131797791,0.51247012615204,89.82717895507812,-0.22766448557377,0.55897194147110,10.17157363891602,0.17886421084404,-0.62091475725174,2.63875317573547
178,2551106014,3.23662638664246,0.51282304525375,89.82856750488281,-0.20090962946415,0.53543949127197,10.15842056274414,0.07908395677805,-0.46005731821060,2.59665608406067
179,2551114347,3.23814821243286,0.50755751132965,89.84388732910156,-0.22568720579147,0.59246957302094,10.13854885101318,0.16865693032742,-0.55024492740631,2.48948574066162
180,2551122680,3.23894119262695,0.50687378644943,89.84449005126953,-0.21915601193905,0.55225574970245,10.20265293121338,0.18868727982044,-0.59683728218079,2.53369593620300
181,2551131013,3.24004387855530,0.50072520971298,89.86148071289062,-0.20349408686161,0.51278668642044,10.13842201232910,0.11774864792824,-0.64661860466003,2.70821881294250
182,2551139346,3.24015355110168,0.50111281871796,89.86151123046875,-0.19613337516785,0.61741083860397,10.18571472167969,0.11179332435131,-0.47944721579552,2.45050096511841
183,2551147679,3.24160981178284,0.49556180834770,89.87630462646484,-0.19683976471424,0.55154871940613,10.14012241363525,0.16203564405441,-0.59111249446869,2.45194816589355
184,2551156012,3.24200344085693,0.49474054574966,89.87678527832031,-0.20341087877750,0.51395595073700,10.17696094512939,0.14370867609978,-0.62150382995605,2.55221533775330
185,2551164345,3.24236416816711,0.48941618204117,89.89407348632812,-0.21623119711876,0.53521418571472,10.13500499725342,0.02813723497093,-0.54819583892822,2.75971627235413
186,2551172678,3.24237465858459,0.48897504806519,89.89374542236328,-0.22711500525475,0.59323751926422,10.15889453887939,0.10312290489674,-0.58906334638596,2.46554923057556
187,2551181011,3.24438953399658,0.48356369137764,89.90814971923828,-0.21323519945145,0.49165180325508,10.15527153015137,0.23109160363674,-0.58058500289917,2.42520689964294
188,2551189344,3.24427175521851,0.48259413242340,89.90969848632812,-0.21962958574295,0.51275873184204,10.17365741729736,0.08817700296640,-0.64719486236572,2.71020364761353
189,2551197677,3.24581980705261,0.47697728872299,89.92494964599609,-0.22999374568462,0.55971467494965,10.15726184844971,0.17388223111629,-0.59970611333847,2.54220008850098
190,2551206010,3.24572682380676,0.47643947601318,89.92492675781250,-0.24065275490284,0.57736027240753,10.14642810821533,0.09948568791151,-0.61503624916077,2.53790950775146
191,2551214343,3.24678921699524,0.47133743762970,89.93972015380859,-0.22374130785465,0.50102961063385,10.10973930358887,0.11658319085836,-0.54186916351318,2.49663257598877
192,2551222676,3.24639821052551,0.47094747424126,89.94065093994141,-0.20411562919617,0.56619954109192,10.17156219482422,0.06489366292953,-0.60044884681702,2.65795063972473
193,2551231009,3.24800515174866,0.46443584561348,89.95566558837891,-0.24481293559074,0.58222067356110,10.12093353271484,0.18124632537365,-0.71160191297531,2.54236674308777
194,2551239342,3.24728488922119,0.46415895223618,89.95528411865234,-0.20739634335041,0.46973052620888,10.15542697906494,0.02457685954869,-0.60237002372742,2.55003809928894
195,2551247675,3.24751281738281,0.45864978432655,89.97152709960938,-0.21173942089081,0.58967018127441,10.17537498474121,0.01655960455537,-0.58546459674835,2.69447708129883
196,2551256008,3.24788451194763,0.45944035053253,89.97120666503906,-0.21176615357399,0.55499082803726,10.15718078613281,0.16043478250504,-0.48116347193718,2.55861902236938
197,2551264341,3.24817299842834,0.45381826162338,89.98718261718750,-0.20995293557644,0.50358259677887,10.11335372924805,0.02402615360916,-0.60051298141479,2.67315316200256
198,2551272674,3.24902820587158,0.45347088575363,89.98650360107422,-0.20811580121517,0.56472814083099,10.20843029022217,0.22522597014904,-0.62804824113846,2.53370904922485
199,2551281007,3.24935197830200,0.44889721274376,90.00241088867188,-0.18175670504570,0.52790135145187,10.13485240936279,0.02871355786920,-0.47766709327698,2.67294812202454
200,2551289340,3.24893736839294,0.44742816686630,90.00159454345703,-0.22892528772354,0.62748908996582,10.19587039947510,0.07398672401905,-0.76668530702591,2.54670834541321
201,2551297673,3.25091934204102,0.44303473830223,90.01596069335938,-0.21520361304283,0.49072992801666,10.15021896362305,0.22946514189243,-0.46758785843849,2.49734973907471
202,2551306006,3.25024461746216,0.44298842549324,90.01558685302734,-0.21212750673294,0.51842367649078,10.15195751190186,0.04286542907357,-0.60293352603912,2.58615398406982
203,2551314339,3.25180220603943,0.43737810850143,90.02973175048828,-0.23518343269825,0.56457358598709,10.13944339752197,0.18099017441273,-0.61668831110001,2.49152231216431
204,2551322672,3.25238966941833,0.43693035840988,90.02873992919922,-0.22235450148582,0.59346717596054,10.15565109252930,0.19746015965939,-0.66488158702850,2.52756142616272
205,2551331005,3.25417947769165,0.43120685219765,90.04366302490234,-0.22121933102608,0.52403450012207,10.15401363372803,0.20779550075531,-0.62578141689301,2.59798789024353
206,2551339338,3.25397610664368,0.43192082643509,90.04362487792969,-0.24264088273048,0.57014596462250,10.13231372833252,0.10249535739422,-0.52632123231888,2.67749428749084
207,2551347671,3.25530886650085,0.42724812030792,90.05684661865234,-0.18653583526611,0.56431764364243,10.15517139434814,0.15471000969410,-0.51410335302353,2.39646792411804
208,2551356004,3.25604438781738,0.42819488048553,90.05670928955078,-0.23576082289219,0.55220532417297,10.18355941772461,0.21464730799198,-0.50787907838821,2.66014051437378
209,2551364337,3.25703978538513,0.42291191220284,90.07028961181641,-0.20418472588062,0.48742273449898,10.12642669677734,0.11454686522484,-0.58622020483017,2.45440745353699
210,2551372670,3.25626683235168,0.42237439751625,90.06928253173828,-0.20876672863960,0.58931213617325,10.17571258544922,0.04094435647130,-0.69783425331116,2.61771082878113
211,2551381003,3.25680756568909,0.41818675398827,90.08411407470703,-0.22739590704441,0.56686115264893,10.09739303588867,0.05922011658549,-0.44759598374367,2.60893797874451
212,2551389336,3.25676751136780,0.41813245415688,90.08174133300781,-0.13489785790443,0.55108022689819,10.25147724151611,0.12799434363842,-0.65900307893753,2.45612359046936
213,2551397669,3.25772166252136,0.41319110989571,90.09756469726562,-0.22751593589783,0.53636074066162,10.11767768859863,0.10947523266077,-0.53309625387192,2.74487280845642
214,2551406002,3.25700950622559,0.41386687755585,90.09587860107422,-0.15989820659161,0.54030865430832,10.12197017669678,0.04866704717278,-0.57031369209290,2.53714108467102
215,2551414335,3.25791525840759,0.40819802880287,90.10967254638672,-0.21599459648132,0.56754040718079,10.19071006774902,0.10491591691971,-0.63504099845886,2.51872467994690
216,2551422668,3.25789213180542,0.40912786126137,90.10705566406250,-0.24935886263847,0.53921723365784,10.14197731018066,0.13572983443737,-0.54948937892914,2.44938683509827
217,2551431001,3.25857043266296,0.40358993411064,90.12230682373047,-0.18550629913807,0.49932914972305,10.14644050598145,0.07634322345257,-0.61218023300171,2.70269894599915
218,2551439334,3.25898528099060,0.40438646078110,90.12043762207031,-0.24305626749992,0.60746723413467,10.16188049316406,0.19313135743141,-0.56973743438721,2.54080414772034
219,2551447667,3.25968313217163,0.39905557036400,90.13585662841797,-0.23469409346581,0.50593191385269,10.12723541259766,0.07928885519505,-0.58764177560806,2.73387122154236
220,2551456000,3.25859904289246,0.39927431941032,90.13339233398438,-0.22970207035542,0.54270923137665,10.16738128662109,0.01552222389728,-0.65261220932007,2.52131152153015
221,2551464333,3.25983834266663,0.39404717087746,90.14713287353516,-0.22446739673615,0.56288814544678,10.19839763641357,0.14641095697880,-0.58921706676483,2.54131627082825
222,2551472666,3.25984072685242,0.39525204896927,90.14533233642578,-0.21172623336315,0.53047209978104,10.08838558197021,0.14559131860733,-0.54149776697159,2.59213519096375
223,2551480999,3.26037120819092,0.38922318816185,90.15960693359375,-0.20735150575638,0.55101364850998,10.17252159118652,0.06276768445969,-0.68228638172150,2.62434482574463
224,2551489332,3.26003193855286,0.38981932401657,90.15748596191406,-0.22197195887566,0.57073003053665,10.12150669097900,0.10727242380381,-0.62528192996979,2.55658245086670
225,2551497665,3.26019692420959,0.38631010055542,90.17077636718750,-0.21053786575794,0.50780570507050,10.18375778198242,0.02008156105876,-0.38860636949539,2.49795150756836
226,2551505998,3.25947237014771,0.38721621036530,90.16967773437500,-0.20405460894108,0.55114090442657,10.09013366699219,0.06402278691530,-0.59035694599152,2.68825268745422
227,2551514331,3.26049518585205,0.38299334049225,90.18211364746094,-0.17535090446472,0.55123335123062,10.18851757049561,0.12343499064445,-0.48350706696510,2.41019701957703
228,2551522664,3.25920319557190,0.38298329710960,90.17952728271484,-0.22425475716591,0.49851500988007,10.12919330596924,-0.00003842135629,-0.71252399682999,2.55458474159241
229,2551530997,3.26065993309021,0.37822309136391,90.19438934326172,-0.20615024864674,0.49552318453789,10.16735267639160,0.17517577111721,-0.53284013271332,2.71997570991516
230,2551539330,3.25957560539246,0.37835043668747,90.19107055664062,-0.21943850815296,0.62570703029633,10.15811824798584,0.03358026221395,-0.71088469028473,2.46075940132141
231,2551547663,3.26099157333374,0.37416812777519,90.20414733886719,-0.20167946815491,0.54717528820038,10.14338207244873,0.17069327831268,-0.47728291153908,2.50988745689392
232,2551555996,3.26026916503906,0.37582734227180,90.20121765136719,-0.20677861571312,0.56849449872971,10.20936393737793,0.07479356974363,-0.53207170963287,2.51588153839111
233,2551564329,3.26061487197876,0.36983722448349,90.21380615234375,-0.27683463692665,0.51391589641571,10.11204147338867,0.04395402967930,-0.69981938600540,2.47548794746399
234,2551572662,3.26077222824097,0.37217450141907,90.21129608154297,-0.21865393221378,0.56804382801056,10.15290260314941,0.18198914825916,-0.46129962801933,2.57548570632935
235,2551580995,3.26087927818298,0.36735367774963,90.22390747070312,-0.23200884461403,0.52919995784760,10.16429042816162,0.01571433246136,-0.56064438819885,2.48049545288086
236,2551589328,3.25980877876282,0.36823394894600,90.22168731689453,-0.23136959969997,0.54228252172470,10.17893123626709,0.03667958453298,-0.64336556196213,2.65115022659302
237,2551597661,3.26005983352661,0.36303859949112,90.23461914062500,-0.20128335058689,0.51009184122086,10.11619377136230,0.03393886238337,-0.60573828220367,2.53294038772583
238,2551605994,3.26063919067383,0.36380434036255,90.23228454589844,-0.21643352508545,0.56171578168869,10.17315292358398,0.23869904875755,-0.66741728782654,2.61144804954529
239,2551614327,3.26158428192139,0.35968419909477,90.24397277832031,-0.24357980489731,0.56088495254517,10.14260673522949,0.11995147913694,-0.48681139945984,2.38750290870667
240,2551622660,3.26146745681763,0.36196354031563,90.24098968505859,-0.14852158725262,0.52311760187149,10.15361785888672,0.15578578412533,-0.49956724047661,2.58247876167297
241,2551630993,3.26255321502686,0.35682612657547,90.25491333007812,-0.18451428413391,0.58014696836472,10.15787601470947,0.13415455818176,-0.59686285257339,2.67150068283081
242,2551639326,3.26228165626526,0.35916391015053,90.25181579589844,-0.22404992580414,0.54183268547058,10.14600181579590,0.13939265906811,-0.49559697508812,2.56298589706421
243,2551647659,3.26274275779724,0.35425919294357,90.26397705078125,-0.18603491783142,0.54776245355606,10.13059806823730,0.06221698224545,-0.58242934942245,2.47041630744934
244,2551655992,3.26179718971252,0.35661351680756,90.26171875000000,-0.20974117517471,0.54681390523911,10.18972206115723,0.06021907180548,-0.49498233199120,2.67873692512512
245,2551664325,3.26207113265991,0.35152599215508,90.27391815185547,-0.21211467683315,0.57836574316025,10.14758014678955,0.03993259742856,-0.60602003335953,2.48547744750977
246,2551672658,3.26147246360779,0.35402238368988,90.27111053466797,-0.19760027527809,0.54780411720276,10.14007949829102,0.10252097249031,-0.49048697948456,2.62086129188538
247,2551680991,3.26160979270935,0.34865608811378,90.28482818603516,-0.26022192835808,0.51901054382324,10.13233947753906,0.02266859821975,-0.63107073307037,2.68109321594238
248,2551689324,3.26101946830750,0.35062313079834,90.28166961669922,-0.25510528683662,0.53551363945007,10.16152667999268,0.10686259716749,-0.56629240512848,2.58985567092896
249,2551697657,3.26278519630432,0.34600743651390,90.29465484619141,-0.21523188054562,0.55786788463593,10.15882492065430,0.21938592195511,-0.54866969585419,2.60015201568604
250,2551705990,3.26322484016418,0.34748148918152,90.29039764404297,-0.20604714751244,0.52987033128738,10.14775371551514,0.23472887277603,-0.64487683773041,2.46560072898865
251,2551714323,3.26494765281677,0.34277358651161,90.30245971679688,-0.23448169231415,0.52763658761978,10.15572166442871,0.21579992771149,-0.56841826438904,2.50015401840210
252,2551722656,3.26410913467407,0.34546074271202,90.29946899414062,-0.18623974919319,0.53817808628082,10.16933536529541,0.08429644256830,-0.49946475028992,2.63111996650696
253,2551730989,3.26522278785706,0.33955216407776,90.31191253662109,-0.23961225152016,0.57293975353241,10.13378047943115,0.14219743013382,-0.71243435144424,2.56361365318298
254,2551739322,3.26469659805298,0.34198391437531,90.30925750732422,-0.19348326325417,0.51751381158829,10.16778945922852,0.12379360198975,-0.53742510080338,2.65868091583252
255,2551747655,3.26488566398621,0.33647918701172,90.32250213623047,-0.18619568645954,0.55187147855759,10.13092041015625,0.03089076466858,-0.66091132164001,2.66651892662048
256,2551755988,3.26385021209717,0.33850479125977,90.31845092773438,-0.19262760877609,0.52528971433640,10.15499591827393,0.06691718846560,-0.59891206026077,2.52980303764343
257,2551764321,3.26445555686951,0.33360755443573,90.33010101318359,-0.25624495744705,0.56125563383102,10.14898967742920,0.08434768021107,-0.60152471065521,2.48207068443298
258,2551772654,3.26365303993225,0.33669328689575,90.32734680175781,-0.15381394326687,0.53870832920074,10.17798137664795,0.09582284837961,-0.47372245788574,2.65732312202454
259,2551780987,3.26464390754700,0.33269941806793,90.33979797363281,-0.24746179580688,0.54613435268402,10.11227703094482,0.12866032123566,-0.49029490351677,2.58150529861450
260,2551789320,3.26346850395203,0.33567574620247,90.33625793457031,-0.23247790336609,0.51206868886948,10.15419483184814,0.05448147654533,-0.49805596470833,2.59059786796570
261,2551797653,3.26439547538757,0.33006110787392,90.34966278076172,-0.20503810048103,0.57044732570648,10.17176818847656,0.12230798602104,-0.68009638786316,2.71662020683289
262,2551805986,3.26401257514954,0.33247226476669,90.34625244140625,-0.23903784155846,0.58533304929733,10.17801189422607,0.15281453728676,-0.57514208555222,2.62584352493286
263,2551814319,3.26421093940735,0.32751244306564,90.35877990722656,-0.27792459726334,0.52501660585403,10.14429187774658,0.03612887486815,-0.60867100954056,2.61735224723816
264,2551822652,3.26350378990173,0.32993102073669,90.35495758056641,-0.21981653571129,0.54516887664795,10.13381576538086,0.11367598921061,-0.59136861562729,2.57379531860352
265,2551830985,3.26456522941589,0.32577359676361,90.36728668212891,-0.19526192545891,0.54883599281311,10.18273830413818,0.14067338407040,-0.51716428995132,2.59800052642822
266,2551839318,3.26431989669800,0.32886168360710,90.36351013183594,-0.26197937130928,0.54296302795410,10.14766216278076,0.17187152802944,-0.51711297035217,2.59935855865479
267,2551847651,3.26550507545471,0.32320132851601,90.37568664550781,-0.21636709570885,0.52953153848648,10.14487361907959,0.15591382980347,-0.70181727409363,2.59989595413208
268,2551855984,3.26474809646606,0.32576751708984,90.37155151367188,-0.13140077888966,0.51761752367020,10.15949153900146,0.11352229118347,-0.59300798177719,2.56736612319946
269,2551864317,3.26557445526123,0.32222837209702,90.38459014892578,-0.21788845956326,0.61342275142670,10.17218875885010,0.11280508339405,-0.44331833720207,2.69674324989319
270,2551872650,3.26497721672058,0.32453539967537,90.38004302978516,-0.17555417120457,0.55589115619659,10.14578056335449,0.13245122134686,-0.63019984960556,2.52625513076782
271,2551880983,3.26595258712769,0.32016775012016,90.39275360107422,-0.18870551884174,0.50073629617691,10.17925548553467,0.13183647394180,-0.54779881238937,2.67217969894409
272,2551889316,3.26418948173523,0.32220414280891,90.38902282714844,-0.24528847634792,0.56226223707199,10.19688796997070,-0.00280475849286,-0.66239690780640,2.61984944343567
273,2551897649,3.26502037048340,0.31758031249046,90.40076446533203,-0.20145785808563,0.57430130243301,10.15558815002441,0.11546897888184,-0.58660447597504,2.56746864318848
274,2551905982,3.26433539390564,0.32089176774025,90.39601898193359,-0.18591362237930,0.48286217451096,10.16287517547607,0.12609888613224,-0.52489972114563,2.49664521217346
275,2551914315,3.26895356178284,0.31749942898750,90.40381622314453,-0.58137589693069,0.77748280763626,10.15469837188721,0.57424545288086,-0.46888133883476,2.09737038612366
276,2551922648,3.26731419563293,0.31476870179176,90.40657806396484,-0.28756278753281,0.39088273048401,9.99890136718750,-0.00279195117764,-1.22669124603271,3.48479056358337
277,2551930981,3.26641058921814,0.31053662300110,90.42057037353516,0.15337613224983,0.69780653715134,10.30816173553467,-0.09322300553322,-0.53053492307663,2.85388708114624
278,2551939314,3.26463437080383,0.31683304905891,90.40731811523438,-0.18819129467010,0.74352371692657,10.34906959533691,-0.00668531563133,-0.24256683886051,1.51097095012665
279,2551947647,3.26370191574097,0.31597578525543,90.41980743408203,-0.50909471511841,0.08524093776941,10.31663608551025,-0.09431161731482,-0.13690808415413,2.65774583816528
280,2551955980,3.26056575775146,0.31885117292404,90.42210388183594,-0.30410850048065,0.60249727964401,9.90907382965088,-0.15810388326645,-0.57351559400558,3.40320992469788
281,2551964313,3.26634693145752,0.31358370184898,90.43090820312500,-0.40576708316803,0.80036258697510,9.96035766601562,0.71351015567780,-0.69336456060410,2.26035356521606
282,2551972646,3.26663255691528,0.31535685062408,90.42518615722656,0.32874846458435,0.20178721845150,10.12972259521484,0.23795627057552,-0.78557586669922,2.45012974739075
283,2551980979,3.26335716247559,0.31142213940620,90.44178771972656,0.50280529260635,0.52121531963348,10.36446571350098,-0.37728485465050,-0.48473656177521,3.19396686553955
284,2551989312,3.26422214508057,0.31724065542221,90.43637084960938,-0.70427542924881,0.93874675035477,10.19254016876221,0.33257526159286,-0.22270298004150,2.46585679054260
285,2551997645,3.26615977287292,0.31185686588287,90.44125366210938,-0.64636206626892,0.41972818970680,9.92543888092041,0.25716689229012,-0.74055874347687,1.80787825584412
286,2552005978,3.26276922225952,0.31347247958183,90.43883514404297,0.36052817106247,0.30086141824722,10.30261325836182,-0.19706311821938,-0.77586793899536,2.83964514732361
287,2552014311,3.26224064826965,0.30993875861168,90.45281982421875,0.07702702283859,0.67775315046310,10.23139095306396,-0.04440227523446,-0.45904549956322,2.89622735977173
288,2552022644,3.26538872718811,0.31305837631226,90.44688415527344,-0.37842443585396,0.62597489356995,10.04301834106445,0.60080748796463,-0.56939160823822,2.43878269195557
289,2552030977,3.26786398887634,0.30961048603058,90.45671081542969,-0.51219373941422,0.53055626153946,10.24444198608398,0.31961447000504,-0.48007485270500,2.40594530105591
290,2552039310,3.26448059082031,0.31324920058250,90.45415496826172,-0.70673418045044,0.37093755602837,10.06478691101074,-0.18817497789860,-0.52328604459763,2.83585453033447
291,2552047643,3.26364040374756,0.30727112293243,90.46294403076172,-0.28670144081116,0.72679263353348,10.19442939758301,-0.07654814422131,-0.79174888134003,2.30638265609741
292,2552055976,3.26358819007874,0.31018972396851,90.45657348632812,0.47377547621727,0.57943606376648,10.18345165252686,0.21661959588528,-0.67814970016479,2.39782547950745
293,2552064309,3.26618337631226,0.30918359756470,90.46626281738281,-0.40533626079559,0.41688916087151,10.21860408782959,0.33552089333534,-0.19382292032242,2.38870668411255
294,2552072642,3.26430726051331,0.31277078390121,90.46633148193359,-1.00721955299377,0.49719861149788,10.08133125305176,0.00107579783071,-0.53125202655792,3.16371655464172
295,2552080975,3.26574635505676,0.30593320727348,90.47817230224609,0.02598677761853,0.72617512941360,10.15378093719482,0.19575677812099,-0.87828636169434,2.69747328758240
296,2552089308,3.26651573181152,0.31187266111374,90.47156524658203,0.27262407541275,0.59429132938385,10.24144172668457,0.31574669480324,-0.33742916584015,2.36140203475952
297,2552097641,3.26561188697815,0.30628454685211,90.48426055908203,0.01321684289724,0.44253844022751,10.10927104949951,-0.08507768809795,-0.72584336996078,2.79756116867065
298,2552105974,3.26354908943176,0.31029465794563,90.47865295410156,-0.06411553919315,0.64708638191223,10.16186809539795,-0.01995348930359,-0.52337563037872,2.48924231529236
299,2552114307,3.26481819152832,0.30805537104607,90.48635101318359,-0.53862982988358,0.60969269275665,10.19234275817871,0.17929963767529,-0.36140406131744,2.18750691413879
300,2552122640,3.26400136947632,0.30930578708649,90.48281097412109,-0.41076815128326,0.42565140128136,10.12933540344238,0.12051495164633,-0.85750055313110,2.77568650245667
301,2552130973,3.26456093788147,0.30491730570793,90.49687194824219,0.52323132753372,0.55298084020615,10.20220470428467,0.09146842360497,-0.57784432172775,2.97250628471375
302,2552139306,3.26501893997192,0.31071984767914,90.49182128906250,0.08114375919104,0.62780183553696,10.14180374145508,0.28144919872284,-0.29580596089363,2.56052684783936
303,2552147639,3.26618027687073,0.30795413255692,90.50026702880859,-1.05447196960449,0.54784440994263,10.12540531158447,0.16887463629246,-0.42461994290352,2.29790425300598
304,2552155972,3.26372838020325,0.30894842743874,90.49494934082031,-0.47323593497276,0.53088986873627,10.18021678924561,-0.07123318314552,-0.91424876451492,2.56331872940063
305,2552164305,3.26378846168518,0.30404996871948,90.50605773925781,0.00450133159757,0.55060178041458,10.11110782623291,0.03447676450014,-0.66567558050156,2.63857364654541
306,2552172638,3.26288175582886,0.30835857987404,90.49933624267578,-0.23498228192329,0.54607480764389,10.16866397857666,0.11964410543442,-0.53486371040344,2.40889072418213
307,2552180971,3.26490926742554,0.30458602309227,90.51058197021484,-0.10410713404417,0.50178253650665,10.19108009338379,0.27071684598923,-0.53330117464066,2.65496659278870
308,2552189304,3.26512145996094,0.31115633249283,90.50843048095703,-0.55134421586990,0.55501103401184,10.16410350799561,0.25411885976791,-0.23435744643211,2.93692851066589
309,2552197637,3.26717829704285,0.30530181527138,90.51959228515625,-0.78326439857483,0.66180038452148,10.09656810760498,0.27569884061813,-0.78482019901276,2.66873455047607
310,2552205970,3.26516628265381,0.30634111166000,90.51314544677734,0.28030589222908,0.58287829160690,10.15695762634277,-0.01645714603364,-0.98815870285034,2.46777772903442
311,2552214303,3.26493835449219,0.30504217743874,90.52159881591797,0.56133824586868,0.52025949954987,10.20470619201660,0.00335546513088,-0.26050955057144,2.31957387924194
312,2552222636,3.26272439956665,0.31004238128662,90.51722717285156,-0.53761726617813,0.48854705691338,10.13493347167969,-0.03950995951891,-0.42784735560417,2.68844461441040
313,2552230969,3.26473045349121,0.30399692058563,90.52783203125000,-0.53908270597458,0.57584160566330,10.13474273681641,0.26974350214005,-0.81761920452118,2.61972165107727
314,2552239302,3.26430702209473,0.30845722556114,90.52335357666016,0.06134542822838,0.57803922891617,10.10966300964355,0.17883859574795,-0.53944861888885,2.68263030052185
315,2552247635,3.26654314994812,0.30418932437897,90.53327941894531,-0.06492882221937,0.56638836860657,10.16253662109375,0.29899498820305,-0.61106604337692,2.53342723846436
316,2552255968,3.26437354087830,0.30787825584412,90.53024291992188,0.11649581044912,0.50458180904388,10.20738220214844,-0.03446394950151,-0.60327923297882,2.86474728584290
317,2552264301,3.26511907577515,0.30601367354393,90.54080200195312,-0.21436254680157,0.65297442674637,10.10768127441406,0.12033569067717,-0.32095918059349,2.60086941719055
318,2552272634,3.26401400566101,0.31095528602600,90.53278350830078,-0.98915678262711,0.59255021810532,10.08299350738525,0.09510564804077,-0.47308212518692,2.26322245597839
319,2552280967,3.26433515548706,0.30582618713379,90.54069519042969,-0.32736033201218,0.45390152931213,10.17195034027100,0.07182232290506,-0.73265677690506,2.31519412994385
320,2552289300,3.26362586021423,0.31083837151527,90.53764343261719,0.44128105044365,0.51736700534821,10.22605514526367,0.14151862263680,-0.49080714583397,2.86059761047363
321,2552297633,3.26539468765259,0.30840191245079,90.55017852783203,-0.40217006206512,0.58512157201767,10.08750534057617,0.24343770742416,-0.38204914331436,2.85898423194885
322,2552305966,3.26628994941711,0.31237861514091,90.54327392578125,-0.81108129024506,0.60161131620407,10.14441680908203,0.33949112892151,-0.61908328533173,2.41158032417297
323,2552314299,3.26562452316284,0.30845230817795,90.55313873291016,-0.28393411636353,0.50195145606995,10.12679862976074,-0.04721984267235,-0.58176332712173,2.55796575546265
324,2552322632,3.26306843757629,0.31213822960854,90.54698181152344,-0.12867821753025,0.55884659290314,10.17368221282959,-0.07438373565674,-0.69353103637695,2.51433157920837
325,2552330965,3.26268267631531,0.30781665444374,90.55611419677734,0.11311404407024,0.60645747184753,10.18156719207764,-0.01221799012274,-0.63671869039536,2.47885608673096
326,2552339298,3.26209354400635,0.31355923414230,90.54958343505859,0.26255509257317,0.47152188420296,10.14861965179443,0.15765562653542,-0.43220177292824,2.44152307510376
327,2552347631,3.26239824295044,0.30963596701622,90.56121063232422,-0.66711860895157,0.49000030755997,10.13031005859375,0.07146371901035,-0.57377171516418,2.78641891479492
328,2552355964,3.26201677322388,0.31359544396400,90.55762481689453,-0.55829238891602,0.64525759220123,10.18727588653564,0.19005762040615,-0.62873983383179,2.82115173339844
329,2552364297,3.26361656188965,0.30823630094528,90.56834411621094,0.56774622201920,0.59630841016769,10.15798759460449,0.22630177438259,-0.75617069005966,2.69451522827148
330,2552372630,3.26302170753479,0.31472164392471,90.56229400634766,0.11798474192619,0.48151320219040,10.13429737091064,0.15914124250412,-0.32042124867439,2.50707006454468
331,2552380963,3.26259684562683,0.31117159128189,90.57215881347656,-0.57846027612686,0.57005321979523,10.15715599060059,-0.01509959250689,-0.54741466045380,2.58731961250305
332,2552389296,3.26174759864807,0.31494888663292,90.56485748291016,-0.38801300525665,0.57767993211746,10.15734958648682,0.13245122134686,-0.66247379779816,2.37697553634644
333,2552397629,3.26302838325500,0.31099990010262,90.57411956787109,-0.41402399539948,0.51489073038101,10.13638210296631,0.18926358222961,-0.60161435604095,2.52551245689392
334,2552405962,3.26206159591675,0.31440097093582,90.57040405273438,-0.16638779640198,0.47113960981369,10.16074180603027,0.11759495735168,-0.70960402488708,2.82420015335083
335,2552414295,3.26445913314819,0.31144037842751,90.58050537109375,0.19591221213341,0.61336404085159,10.15364456176758,0.32494220137596,-0.48025414347649,2.62520313262939
336,2552422628,3.26353645324707,0.31794589757919,90.57429504394531,-0.58475917577744,0.55351781845093,10.15589332580566,0.12602204084396,-0.33146101236343,2.52415513992310
337,2552430961,3.26349425315857,0.31318750977516,90.58367156982422,-1.01080286502838,0.58296233415604,10.14418029785156,0.03370833024383,-0.70327723026276,2.55934882164001
338,2552439294,3.26152729988098,0.31648290157318,90.57671356201172,0.11709222197533,0.51867067813873,10.10679721832275,-0.00006403559382,-0.79666680097580,2.45824933052063
339,2552447627,3.26187896728516,0.31216010451317,90.58505249023438,0.32394003868103,0.50910627841949,10.16868686676025,0.08240099996328,-0.66075760126114,2.44034528732300
340,2552455960,3.26144504547119,0.31835272908211,90.57996368408203,-0.35144078731537,0.55494177341461,10.21177959442139,0.18695829808712,-0.38927230238914,2.66152405738831
341,2552464293,3.26282787322998,0.31332251429558,90.59114074707031,-0.24061217904091,0.55911469459534,10.16097354888916,0.20458088815212,-0.72850722074509,2.79369330406189
342,2552472626,3.26168441772461,0.31800192594528,90.58641052246094,-0.28854092955589,0.58061474561691,10.15316581726074,0.10285396128893,-0.58246773481369,2.71263694763184
343,2552480959,3.26189875602722,0.31333884596825,90.59523010253906,-0.18217034637928,0.59116393327713,10.16474628448486,0.06564929336309,-0.70548015832901,2.51311516761780
344,2552489292,3.26012325286865,0.31813487410545,90.58757781982422,0.49334448575974,0.53396809101105,10.16544914245605,0.02469212375581,-0.59477537870407,2.35732960700989
345,2552497625,3.26021933555603,0.31589561700821,90.59590911865234,-0.04522354528308,0.51652908325195,10.18307971954346,0.05381551012397,-0.42067539691925,2.44682574272156
346,2552505958,3.25924825668335,0.32127913832664,90.59039306640625,-0.96910625696182,0.49810785055161,10.11500072479248,0.12412659078836,-0.46263149380684,2.61357426643372
347,2552514291,3.26073384284973,0.31584557890892,90.59931945800781,-0.29005903005600,0.55949127674103,10.01980209350586,0.21912980079651,-0.80096995830536,2.54743790626526
348,2552522624,3.25901699066162,0.31988054513931,90.59483337402344,0.26843369007111,0.48840630054474,10.38102531433105,0.03683327138424,-0.67164361476898,2.75514411926270
349,2552530957,3.26026749610901,0.31718111038208,90.60589599609375,-0.45735937356949,0.69961768388748,10.09029769897461,0.18936604261398,-0.46155574917793,2.79177212715149
350,2552539290,3.26017427444458,0.32184979319572,90.59859466552734,-0.33255150914192,0.48970305919647,10.10208702087402,0.23024637997150,-0.60338181257248,2.41373205184937
351,2552547623,3.25870132446289,0.31700894236565,90.60768127441406,-0.49321076273918,0.51205241680145,10.15814208984375,-0.13434667885303,-0.73464190959930,2.57718920707703
352,2552555956,3.25639724731445,0.32324251532555,90.60163879394531,-0.64656937122345,0.53511393070221,10.20485782623291,-0.03086515516043,-0.43603110313416,2.55352139472961
353,2552564289,3.25744223594666,0.31724363565445,90.61036682128906,0.34479281306267,0.61955517530441,10.17676353454590,0.16934849321842,-0.87836331129074,2.54852652549744
354,2552572622,3.25634026527405,0.32219070196152,90.60532379150391,0.23953761160374,0.47868669033051,10.15661907196045,0.10934716463089,-0.57980382442474,2.68339848518372
355,2552580955,3.25872492790222,0.32149782776833,90.61344146728516,-0.78159302473068,0.48989140987396,10.11774158477783,0.33179396390915,-0.25045600533485,2.44581365585327
356,2552589288,3.25592422485352,0.32464098930359,90.60959625244141,-0.27937185764313,0.57813388109207,10.21224784851074,-0.08713962137699,-0.79770416021347,2.84314179420471
357,2552597621,3.25571441650391,0.32042238116264,90.61877441406250,0.27436253428459,0.63561576604843,10.19346237182617,0.01994068175554,-0.66766065359116,2.60293149948120
358,2552605954,3.25473833084106,0.32738471031189,90.60971832275391,-0.01074441336095,0.52484983205795,10.15673828125000,0.12883961200714,-0.35418084263802,2.19452524185181
359,2552614287,3.25422477722168,0.32276645302773,90.61817932128906,-0.02944087795913,0.50490689277649,10.09146118164062,-0.01620100438595,-0.72292339801788,2.52812528610229
360,2552622620,3.25285768508911,0.32675802707672,90.61297607421875,-0.33359223604202,0.50846880674362,10.13009452819824,0.08511610329151,-0.66700750589371,2.67105269432068
361,2552630953,3.25566864013672,0.32491964101791,90.62148284912109,-0.77472245693207,0.63535463809967,10.21830463409424,0.38275352120399,-0.39208996295929,2.52115797996521
362,2552639286,3.25582909584045,0.32873135805130,90.61553955078125,-0.05729243904352,0.56991171836853,10.17824649810791,0.26851400732994,-0.73401427268982,2.60775971412659
363,2552647619,3.25543093681335,0.32538089156151,90.62356567382812,0.27548331022263,0.49810805916786,10.15729236602783,-0.00216440274380,-0.57930439710617,2.48160934448242
364,2552655952,3.25443005561829,0.33318328857422,90.61701202392578,-0.65172654390335,0.58687680959702,10.19294166564941,0.13072225451469,-0.22858142852783,2.48846149444580
365,2552664285,3.25512647628784,0.32902354001999,90.62431335449219,-0.80168777704239,0.55064523220062,10.14648246765137,0.13073505461216,-0.68406653404236,2.40766143798828
366,2552672618,3.25344634056091,0.33304020762444,90.61825561523438,-0.10620345175266,0.52614158391953,10.15988636016846,0.04743756353855,-0.74016177654266,2.58662796020508
367,2552680951,3.25526595115662,0.33130767941475,90.62763214111328,-0.09030628949404,0.52258938550949,10.17775344848633,0.26572209596634,-0.38051226735115,2.64469528198242
368,2552689284,3.25421214103699,0.33601179718971,90.62295532226562,-0.03924831375480,0.59698903560638,10.14659786224365,0.12453641742468,-0.63821709156036,2.75944733619690
369,2552697617,3.25571632385254,0.33208414912224,90.63102722167969,-0.07968719303608,0.62370783090591,10.17342567443848,0.22801794111729,-0.65445655584335,2.51301264762878
370,2552705950,3.25425052642822,0.33799588680267,90.62487792968750,-0.57218831777573,0.51600754261017,10.14354705810547,0.06969633698463,-0.48865559697151,2.57256603240967
371,2552714283,3.25289607048035,0.33258360624313,90.63260650634766,-0.15198209881783,0.56930571794510,10.10820198059082,-0.11417544633150,-0.83916085958481,2.48609209060669
372,2552722616,3.25117850303650,0.33696529269218,90.62551879882812,0.51907372474670,0.56349068880081,10.18784236907959,0.04190488904715,-0.69738602638245,2.47013473510742
373,2552730949,3.25268292427063,0.33727243542671,90.63363647460938,-0.02006659470499,0.50885665416718,10.15198707580566,0.22891443967819,-0.15339085459709,2.50176811218262
374,2552739282,3.25153517723083,0.34206429123878,90.62931823730469,-0.61273831129074,0.54787158966064,10.17797470092773,0.10942401736975,-0.57961171865463,2.78767418861389
375,2552747615,3.25306749343872,0.33769184350967,90.63746643066406,-0.28335031867027,0.59324359893799,10.10877323150635,0.23383235931396,-0.71744191646576,2.54290413856506
376,2552755948,3.25156521797180,0.34261661767960,90.62973022460938,-0.13605527579784,0.56751763820648,10.16285514831543,0.06759595870972,-0.61562526226044,2.38417291641235
377,2552764281,3.25159144401550,0.33906966447830,90.63820648193359,-0.16666711866856,0.52959531545639,10.15486049652100,0.05245795100927,-0.61887836456299,2.58170986175537
378,2552772614,3.25001478195190,0.34416580200195,90.63238525390625,-0.13092929124832,0.56005638837814,10.17563056945801,0.05763202905655,-0.57804924249649,2.61931157112122
379,2552780947,3.25087428092957,0.34206089377403,90.64154052734375,-0.69291889667511,0.55450016260147,10.13698577880859,0.15350611507893,-0.44347208738327,2.66347074508667
380,2552789280,3.24947524070740,0.34630787372589,90.63569641113281,-0.75965410470963,0.53338414430618,10.14295196533203,0.07826429605484,-0.70441704988480,2.63259267807007
381,2552797613,3.25041484832764,0.34091028571129,90.64521026611328,0.12942701578140,0.52493327856064,10.15645503997803,0.16233021020889,-0.83681708574295,2.73200130462646
382,2552805946,3.25024843215942,0.34664916992188,90.63925933837891,0.10842972993851,0.58230775594711,10.18075275421143,0.22809475660324,-0.53947418928146,2.61498284339905
383,2552814279,3.25185561180115,0.34399288892746,90.64866638183594,-0.47677767276764,0.55711507797241,10.14860916137695,0.24457755684853,-0.51407772302628,2.70838522911072
384,2552822612,3.25162315368652,0.34765204787254,90.64102172851562,-0.41098365187645,0.57971835136414,10.15560436248779,0.21898891031742,-0.79916429519653,2.41546106338501
385,2552830945,3.25102782249451,0.34408536553383,90.64910125732422,0.01256032194942,0.42550280690193,10.17537689208984,-0.01801961474121,-0.63342726230621,2.56188464164734
386,2552839278,3.24977850914001,0.35023361444473,90.64523315429688,0.01066346000880,0.65019190311432,10.20574378967285,0.10033095628023,-0.47515684366226,2.85537266731262
387,2552847611,3.25177907943726,0.34634834527969,90.65193176269531,0.20502185821533,0.62476879358292,10.11151695251465,0.29467901587486,-0.68323415517807,2.40575313568115
388,2552855944,3.25255894660950,0.35415896773338,90.64488220214844,-0.26600992679596,0.43084767460823,10.15530872344971,0.33621245622635,-0.26529946923256,2.45640540122986
389,2552864277,3.25129532814026,0.35184535384178,90.65529632568359,-0.99587541818619,0.50495791435242,10.19565200805664,-0.10025411844254,-0.47342795133591,2.84565186500549
390,2552872610,3.24913430213928,0.35565924644470,90.64793395996094,-0.45519223809242,0.62944418191910,10.09493637084961,-0.00530214700848,-0.79245322942734,2.45713520050049
391,2552880943,3.25102186203003,0.35515621304512,90.65416717529297,-0.71376341581345,0.63372087478638,10.12373542785645,0.28187182545662,-0.28644397854805,2.33741402626038
392,2552889276,3.24998140335083,0.36083829402924,90.64870452880859,-1.33432984352112,0.41636869311333,10.13979721069336,0.11787670105696,-0.59869432449341,2.67653369903564
393,2552897609,3.24888253211975,0.35503873229027,90.65577697753906,-0.43672296404839,0.55964946746826,10.09477615356445,-0.07698358595371,-0.91851359605789,2.48191714286804
394,2552905942,3.24703955650330,0.36200246214867,90.64965057373047,-0.60118961334229,0.55117052793503,10.27630615234375,0.02896970137954,-0.51998186111450,2.60714507102966
395,2552914275,3.24825668334961,0.35899475216866,90.65821838378906,-0.32947379350662,0.52947181463242,10.10243701934814,0.20130228996277,-0.57715272903442,2.64889645576477
396,2552922608,3.24736309051514,0.36626297235489,90.65051269531250,0.18458648025990,0.51084065437317,10.23548507690430,0.14541202783585,-0.52277380228043,2.40471553802490
397,2552930941,3.24710750579834,0.36410993337631,90.66199493408203,-0.32243943214417,0.53429466485977,10.23054504394531,0.02200263179839,-0.45896869897842,2.99683976173401
398,2552939274,3.24812507629395,0.37005537748337,90.65589141845703,-0.09040004760027,0.56828802824020,10.06319713592529,0.37567117810249,-0.65303492546082,2.60687589645386
399,2552947607,3.25037074089050,0.36643823981285,90.66605377197266,0.46097892522812,0.57989495992661,10.10674285888672,0.32457077503204,-0.64506882429123,2.85597419738770
400,2552955940,3.24924492835999,0.37165102362633,90.66130065917969,0.27163991332054,0.61894285678864,10.17165088653564,0.11580195277929,-0.68872833251953,2.76272583007812
401,2552964273,3.24737167358398,0.36926114559174,90.66771697998047,0.40214553475380,0.53985261917114,10.18585395812988,-0.16732499003410,-0.52692323923111,2.40361404418945
402,2552972606,3.24561381340027,0.37462306022644,90.65804290771484,0.97999274730682,0.62021476030350,10.26286792755127,0.03980451822281,-0.64709240198135,2.16701531410217
403,2552980939,3.24472808837891,0.37258037924767,90.66659545898438,0.00725704198703,0.53184866905212,10.16095066070557,-0.05007583275437,-0.47089213132858,2.66291999816895
404,2552989272,3.24395775794983,0.37934184074402,90.65902709960938,-0.58155363798141,0.51520884037018,10.12265682220459,0.15383909642696,-0.39039936661720,2.39782547950745
405,2552997605,3.24544692039490,0.37672647833824,90.66507720947266,-0.40309229493141,0.55158674716949,10.16589164733887,0.23903204500675,-0.55983752012253,2.37226247787476
406,2553005938,3.24443531036377,0.38288575410843,90.66130828857422,-1.02383768558502,0.55744689702988,10.11957550048828,0.12299957126379,-0.46867647767067,2.86897373199463
407,2553014271,3.24580645561218,0.37966573238373,90.66679382324219,-0.97564554214478,0.59351235628128,10.14899539947510,0.22543090581894,-0.63796103000641,2.31529664993286
408,2553022604,3.24322509765625,0.38646230101585,90.65887451171875,-0.67114937305450,0.41668292880058,10.12641906738281,-0.06365137547255,-0.50183409452438,2.39215159416199
409,2553030937,3.24078083038330,0.38415524363518,90.66996002197266,-1.44266569614410,0.48291137814522,10.22637939453125,-0.23866063356400,-0.49285626411438,2.98229098320007
410,2553039270,3.24074101448059,0.38963395357132,90.66088867187500,-0.54579597711563,0.60987454652786,10.02803897857666,0.25332477688789,-0.75555586814880,2.27746438980103
411,2553047603,3.24277234077454,0.38633924722672,90.67011260986328,-0.11981055140495,0.46388241648674,10.21901321411133,0.30155640840530,-0.62774085998535,2.77453398704529
412,2553055936,3.24325251579285,0.39212620258331,90.66821289062500,-0.17381270229816,0.58521616458893,10.10319995880127,0.31185328960419,-0.67999392747879,3.13144254684448
413,2553064269,3.24463343620300,0.38978248834610,90.67620086669922,0.13660326600075,0.64108991622925,10.16172409057617,0.22473931312561,-0.52523273229599,2.62430691719055
414,2553072602,3.24341130256653,0.39506256580353,90.66956329345703,0.65298217535019,0.63099539279938,10.24803256988525,0.10268747806549,-0.74933165311813,2.57789349555969
415,2553080935,3.24265027046204,0.39424759149551,90.67753601074219,0.36061954498291,0.58181715011597,10.14126586914062,-0.03085234761238,-0.34557449817657,2.62002897262573
416,2553089268,3.24120450019836,0.40020468831062,90.66833496093750,0.30863112211227,0.54186743497849,10.13410186767578,0.07293651998043,-0.61166781187057,2.23426556587219
417,2553097601,3.24009108543396,0.39608645439148,90.67520141601562,0.78983104228973,0.50286859273911,10.19416236877441,-0.07280846685171,-0.74881923198700,2.51529216766357
418,2553105934,3.23890781402588,0.40187212824821,90.66734313964844,0.35845085978508,0.55195623636246,10.06635761260986,0.10558187216520,-0.54472512006760,2.38322520256042
419,2553114267,3.24077486991882,0.39981624484062,90.67580413818359,-0.50161767005920,0.55828779935837,10.25271797180176,0.28449735045433,-0.49539214372635,2.69902348518372
420,2553122600,3.23952054977417,0.40254822373390,90.66996002197266,-0.24090932309628,0.55817681550980,10.08957290649414,0.09300527721643,-0.88165462017059,2.63634490966797
421,2553130933,3.23871684074402,0.40111306309700,90.67480468750000,-0.34968483448029,0.59229820966721,10.23083209991455,-0.03174884244800,-0.44692996144295,2.26698780059814
422,2553139266,3.23642778396606,0.40597072243690,90.66586303710938,-0.41740393638611,0.46568962931633,10.17886734008789,-0.03063462302089,-0.65761983394623,2.26113510131836
423,2553147599,3.23662781715393,0.40304970741272,90.67533111572266,-0.41639834642410,0.48230883479118,10.15867137908936,0.08489837497473,-0.59583830833435,2.83461189270020
424,2553155932,3.23676562309265,0.41091284155846,90.66982269287109,-1.51671278476715,0.52579313516617,10.15611743927002,0.26572209596634,-0.29355198144913,2.66262578964233
425,2553164265,3.23762059211731,0.40645259618759,90.67754364013672,-1.20540010929108,0.57587867975235,10.09898853302002,0.16574971377850,-0.79384917020798,2.64151906967163
426,2553172598,3.23659586906433,0.41035285592079,90.67057800292969,0.35433349013329,0.54415297508240,10.16180706024170,0.12630380690098,-0.89297622442245,2.54065036773682
427,2553180931,3.23688817024231,0.40814912319183,90.68019104003906,0.11263830214739,0.61000531911850,10.17949867248535,0.09694987535477,-0.51447474956512,2.85900974273682
428,2553189264,3.23439168930054,0.41390028595924,90.67293548583984,-0.53558927774429,0.58561009168625,10.09699058532715,-0.05234269052744,-0.62704932689667,2.47886896133423
429,2553197597,3.23289155960083,0.41146963834763,90.67900085449219,-0.05470513179898,0.50230467319489,10.18795013427734,-0.11576353013515,-0.56936609745026,2.44037079811096
430,2553205930,3.23180913925171,0.41820117831230,90.67224121093750,0.56944000720978,0.52399617433548,10.17051982879639,0.11905497312546,-0.51257926225662,2.52476954460144
431,2553214263,3.23384189605713,0.41373333334923,90.68113708496094,0.78613740205765,0.49575006961823,10.14063358306885,0.30644872784615,-0.79676932096481,2.80043005943298
432,2553222596,3.23417711257935,0.41933983564377,90.67633819580078,0.64931559562683,0.54838055372238,10.15092372894287,0.28872367739677,-0.54373896121979,2.76369929313660
433,2553230929,3.23558211326599,0.41992551088333,90.68379211425781,-0.46448075771332,0.66245973110199,10.13473796844482,0.23328164219856,-0.20089241862297,2.59737300872803
434,2553239262,3.23231387138367,0.42351680994034,90.67641448974609,-0.78485423326492,0.59950679540634,10.17072010040283,-0.14702571928501,-0.77375489473343,2.46820044517517
435,2553247595,3.23125100135803,0.41822668910027,90.68174743652344,0.28917047381401,0.55807483196259,10.12569999694824,-0.06198645383120,-0.92093425989151,2.38496732711792
436,2553255928,3.22966980934143,0.42467600107193,90.67549896240234,-0.15189029276371,0.52805596590042,10.15690326690674,0.05207373946905,-0.42623367905617,2.59997272491455
437,2553264261,3.23044252395630,0.42275297641754,90.68125152587891,-0.97596812248230,0.52062612771988,10.08690929412842,0.15806545317173,-0.51624214649200,2.42067337036133
438,2553272594,3.22922539710999,0.42786347866058,90.67514801025391,-0.79855734109879,0.50580984354019,10.20688247680664,0.09687303751707,-0.62074816226959,2.60483956336975
439,2553280927,3.23002457618713,0.42638936638832,90.68347930908203,-0.33944657444954,0.52760171890259,10.18787670135498,0.16119036078453,-0.44961947202682,2.73311543464661
440,2553289260,3.22966480255127,0.43257096409798,90.67803955078125,-0.37713989615440,0.54495304822922,10.12146377563477,0.20283915102482,-0.51900845766068,2.71779847145081
441,2553297593,3.22911024093628,0.43027651309967,90.68523406982422,-0.29501730203629,0.50217992067337,10.14976501464844,-0.00162650400307,-0.55819821357727,2.60660696029663
442,2553305926,3.22620558738708,0.43768984079361,90.68006134033203,-0.56382471323013,0.54997426271439,10.17624282836914,-0.09983147680759,-0.38174176216125,2.72302389144897
443,2553314259,3.22622561454773,0.43333485722542,90.68725585937500,-0.24150471389294,0.57887297868729,10.13839054107666,0.06836438924074,-0.80593907833099,2.62602257728577
444,2553322592,3.22496151924133,0.43695485591888,90.68175506591797,0.97922050952911,0.52298676967621,10.19510841369629,0.09338951110840,-0.85719323158264,2.69820356369019
445,2553330925,3.22638535499573,0.43651363253593,90.68989562988281,1.03117978572845,0.53244322538376,10.16554450988770,0.23682923614979,-0.33281856775284,2.71833658218384
446,2553339258,3.22588539123535,0.44402003288269,90.68404388427734,-0.20748902857304,0.63428831100464,10.16269111633301,0.18683025240898,-0.27475112676620,2.59733486175537
447,2553347591,3.22626447677612,0.43958619236946,90.68950653076172,-0.26734232902527,0.65629333257675,10.17592334747314,0.11493107676506,-0.83204007148743,2.42797350883484
448,2553355924,3.22356677055359,0.44473177194595,90.68165588378906,0.24862325191498,0.55298840999603,10.14386940002441,-0.08421961218119,-0.57165849208832,2.38640141487122
449,2553364257,3.22220444679260,0.44286891818047,90.68703460693359,0.15344499051571,0.51932913064957,10.16232776641846,-0.09319738298655,-0.52643656730652,2.40456199645996
450,2553372590,3.22037816047668,0.44723069667816,90.67920684814453,-0.15456785261631,0.53492063283920,10.13013362884521,0.02015840075910,-0.62497454881668,2.40443372726440
451,2553380923,3.22169828414917,0.44679236412048,90.68544769287109,-0.82254415750504,0.53191357851028,10.15952205657959,0.22817161679268,-0.35118401050568,2.50320243835449
452,2553389256,3.22075819969177,0.45194613933563,90.67925262451172,-1.49408340454102,0.48106804490089,10.12333297729492,0.12638063728809,-0.54608267545700,2.61613559722900
453,2553397589,3.22074055671692,0.44684606790543,90.68721008300781,-0.66509485244751,0.54651349782944,10.12791728973389,0.06557244807482,-0.89917498826981,2.74699878692627
454,2553405922,3.21963047981262,0.45316624641418,90.68046569824219,0.10480404645205,0.57009160518646,10.17694377899170,0.10942401736975,-0.49236968159676,2.51598381996155
455,2553414255,3.21933794021606,0.45334592461586,90.68826293945312,-0.67886614799500,0.43075063824654,10.09611892700195,0.03322166204453,-0.27119070291519,2.69602656364441
456,2553422588,3.21770310401917,0.45947045087814,90.68260955810547,-0.93513327836990,0.60243082046509,10.27952671051025,0.05072899162769,-0.51479494571686,2.65057396888733
457,2553430921,3.21901488304138,0.45540061593056,90.68997192382812,-0.15844354033470,0.53320568799973,10.00963878631592,0.22531564533710,-0.78497385978699,2.67790412902832
458,2553439254,3.21757292747498,0.46065181493759,90.68466949462891,0.43594127893448,0.57753938436508,10.28321075439453,0.07013177126646,-0.64628559350967,2.71003746986389
459,2553447587,3.21850872039795,0.45763739943504,90.69262695312500,0.68557196855545,0.59316825866699,10.09196090698242,0.18178421258926,-0.65751743316650,2.74748539924622
460,2553455920,3.21833014488220,0.46358725428581,90.68514251708984,0.55575835704803,0.62860131263733,10.19949054718018,0.22039768099785,-0.50244885683060,2.42685937881470
461,2553464253,3.21730446815491,0.46428936719894,90.69048309326172,-0.30759978294373,0.60915803909302,10.12533569335938,-0.05235549807549,-0.23170638084412,2.41476917266846
462,2553472586,3.21328926086426,0.46611639857292,90.68375396728516,0.18286082148552,0.54012483358383,10.20351409912109,-0.24856053292751,-0.95802360773087,2.54313468933105
463,2553480919,3.21200633049011,0.46293038129807,90.68692016601562,1.30375242233276,0.50086593627930,10.15947151184082,-0.07944255322218,-0.71418893337250,2.18343424797058
464,2553489252,3.21382880210876,0.46323746442795,90.69332122802734,0.40386235713959,0.49044862389565,10.25734710693359,0.28931277990341,-0.26804018020630,2.53340172767639
465,2553497585,3.21356987953186,0.46737191081047,90.69116973876953,-0.83192282915115,0.49364909529686,10.12852191925049,0.19966295361519,-0.56590807437897,3.07952284812927
466,2553505918,3.21313023567200,0.47105115652084,90.68382263183594,-0.52913963794708,0.59045034646988,10.07589626312256,0.18918675184250,-0.65299648046494,2.43486356735229
467,2553514251,3.21264600753784,0.46813306212425,90.68896484375000,0.00782947614789,0.60702741146088,10.27811908721924,0.01462572999299,-0.67046546936035,2.42687201499939
468,2553522584,3.21044230461121,0.47206869721413,90.68240356445312,0.29147472977638,0.52617222070694,10.06558513641357,-0.02977655082941,-0.62164473533630,2.54285311698914
469,2553530917,3.21051812171936,0.47398477792740,90.68732452392578,-0.53489428758621,0.60851693153381,10.14960479736328,0.08299012482166,-0.09404266625643,2.37244176864624
470,2553539250,3.20845842361450,0.47817903757095,90.68242645263672,-1.51162505149841,0.57269269227982,10.17967128753662,-0.01648276112974,-0.57108223438263,2.74167108535767
471,2553547583,3.20681214332581,0.47226333618164,90.68984222412109,-0.47093936800957,0.50608658790588,10.10365772247314,-0.12593238055706,-1.01897275447845,2.72742938995361
472,2553555916,3.20623540878296,0.47519868612289,90.68306732177734,1.72893345355988,0.53790086507797,10.17821025848389,0.16293215751648,-0.80358266830444,2.53988218307495
473,2553564249,3.20784783363342,0.47847583889961,90.69122314453125,0.77930635213852,0.53641343116760,10.16691112518311,0.26531228423119,0.08524417877197,2.76336622238159
474,2553572582,3.20752191543579,0.48353669047356,90.68620300292969,-1.29633367061615,0.61341649293900,10.16230869293213,0.19235010445118,-0.40388524532318,2.71568560600281
475,2553580915,3.20655703544617,0.47947213053703,90.68911743164062,-0.29300433397293,0.51315599679947,10.10766696929932,-0.03938188776374,-0.82950419187546,2.18525290489197
476,2553589248,3.20617198944092,0.47693035006523,90.69457244873047,1.07353329658508,0.62629497051239,10.33598613739014,0.02587037906051,-0.62526911497116,2.46636915206909
477,2553597581,3.20494389533997,0.47656542062759,90.69261932373047,1.79865813255310,0.45580857992172,10.10549640655518,0.08127396553755,-1.09199881553650,3.14868116378784
478,2553605914,3.20562434196472,0.48237496614456,90.68489074707031,1.85891008377075,0.49275258183479,9.92132282257080,0.31262177228928,-0.23843008279800,2.37031579017639
479,2553614247,3.20835828781128,0.48616507649422,90.69799041748047,-1.20437705516815,0.71759784221649,10.41547012329102,0.39520201086998,0.17763470113277,3.36158657073975
480,2553622580,3.20741939544678,0.48261973261833,90.68628692626953,-0.38516980409622,0.54044586420059,10.11892414093018,0.11808162927628,-1.34027755260468,1.95708119869232
481,2553630913,3.20013236999512,0.48413228988647,90.69117736816406,1.96496713161469,0.39093977212906,10.31477928161621,-0.80002218484879,-0.15154661238194,2.39762043952942
482,2553639246,3.19937396049500,0.48694765567780,90.68444824218750,1.12180674076080,0.92932724952698,10.34724617004395,0.14146742224693,-0.45973709225655,2.47356677055359
483,2553647579,3.19938588142395,0.48724952340126,90.69679260253906,-0.86761510372162,0.26004204154015,9.86879920959473,0.06913281232119,-0.24742069840431,3.30246853828430
484,2553655912,3.20338273048401,0.48819386959076,90.67898559570312,-0.06126410141587,0.58888638019562,10.45756340026855,0.71735227108002,-0.73170906305313,1.17699980735779
485,2553664245,3.19944691658020,0.48505553603172,90.69673919677734,-0.87298756837845,0.63593626022339,9.76331329345703,-0.40768894553185,-0.62397557497025,3.98065686225891
486,2553672578,3.19933509826660,0.48236578702927,90.68710327148438,0.15195448696613,0.20510457456112,10.55114459991455,0.20951162278652,-1.13901376724243,2.18347263336182
487,2553680911,3.19974517822266,0.48918610811234,90.68601226806641,1.34001898765564,0.83380740880966,10.27597713470459,0.13106803596020,0.44374099373817,1.66034042835236
488,2553689244,3.19960045814514,0.49558880925179,90.68553924560547,-0.93003624677658,0.10347330570221,9.85221767425537,0.19912505149841,0.09093052893877,3.19837260246277
489,2553697577,3.20221304893494,0.48511317372322,90.69234466552734,-1.35974216461182,0.84651172161102,10.17889308929443,0.38864478468895,-1.57685077190399,2.72671222686768
490,2553705910,3.20270895957947,0.48549935221672,90.69232940673828,0.58079946041107,0.56913322210312,9.84649181365967,0.28178220987320,-0.71329247951508,3.31023025512695
491,2553714243,3.19971489906311,0.47872859239578,90.69058227539062,1.68865811824799,0.69527119398117,11.03858852386475,-0.27587810158730,-1.19294452667236,1.68019127845764
492,2553722576,3.19849228858948,0.48594406247139,90.69251251220703,0.15485924482346,0.36696869134903,9.60667037963867,0.06613595783710,0.23298709094524,3.48899221420288
493,2553730909,3.20036554336548,0.48530927300453,90.68968963623047,0.81445837020874,1.00947391986847,10.49113941192627,0.31064945459366,-0.46460384130478,1.51541507244110
494,2553739242,3.19816684722900,0.48674795031548,90.68482208251953,-0.96778339147568,0.03962345793843,10.10222721099854,-0.05694044008851,-0.45180949568748,2.70876932144165
495,2553747575,3.19696736335754,0.48423779010773,90.69824218750000,-0.14337293803692,0.63007867336273,9.84732723236084,-0.07439655810595,-0.57899707555771,3.47549343109131
496,2553755908,3.19490385055542,0.48288872838020,90.68811035156250,2.42884612083435,0.71009594202042,10.33436107635498,-0.01935155317187,-0.85801279544830,2.08384585380554
497,2553764241,3.19831323623657,0.49232244491577,90.69577026367188,0.72148025035858,0.67156821489334,10.36062717437744,0.48405787348747,0.81138217449188,2.71080589294434
498,2553772574,3.19175791740417,0.49134427309036,90.69206237792969,-1.49899673461914,0.51291042566299,10.00578498840332,-0.57621783018112,-0.62283569574356,2.83737850189209
499,2553780907,3.18897938728333,0.48355686664581,90.67906951904297,-0.17501574754715,0.07700768113136,10.14412021636963,-0.23793062567711,-1.38926482200623,0.35620436072350
500,2553789240,3.18660426139832,0.48709189891815,90.68675994873047,0.33091932535172,1.07636559009552,10.28587818145752,-0.06525225937366,-0.06660981476307,4.17691278457642
501,2553797573,3.19255447387695,0.48469215631485,90.68345642089844,-0.78487175703049,-0.25491300225258,9.91486167907715,0.80154627561569,-0.67996835708618,1.48293626308441
502,2553805906,3.19576644897461,0.48966315388680,90.69556427001953,-0.67416572570801,1.76501357555389,10.70885944366455,0.61023354530334,0.12827609479427,4.70072460174561
503,2553814239,3.20552492141724,0.48531424999237,90.68404388427734,-1.46964454650879,-0.11791461706161,9.12051868438721,1.26726424694061,-0.96905046701431,0.51743316650391
504,2553822572,3.19162392616272,0.48761814832687,90.69537353515625,-2.25340056419373,0.63922542333603,11.26081466674805,-1.46605634689331,-0.27927201986313,4.61784982681274
505,2553830905,3.19308853149414,0.49165228009224,90.68006134033203,-0.80574631690979,1.08897745609283,9.63228321075439,0.27624949812889,0.00973340962082,0.01224360335618
506,2553839238,3.18542146682739,0.49079465866089,90.68146514892578,-1.10230410099030,-0.28443765640259,9.74920463562012,-0.73524373769760,-0.83980107307434,3.47641491889954
507,2553847571,3.18534231185913,0.49355384707451,90.68405914306641,-3.75390934944153,0.84568893909454,10.17925643920898,0.07320548593998,-0.02496107295156,2.16798901557922
508,2553855904,3.19218897819519,0.49029612541199,90.66997528076172,-1.96258366107941,0.33020547032356,9.76752853393555,1.04449725151062,-1.42032217979431,1.64717471599579
509,2553864237,3.19009280204773,0.48855277895927,90.69091033935547,-0.77766519784927,0.31546497344971,10.67183971405029,-0.18814936280251,-0.44531631469727,4.39919376373291
510,2553872570,3.19129729270935,0.49968522787094,90.68820953369141,-2.57897567749023,1.05841243267059,9.76227378845215,0.37611943483353,0.28160288929939,2.91820430755615
511,2553880903,3.19740915298462,0.49768009781837,90.68511962890625,-1.64284372329712,0.79109728336334,10.33708572387695,0.82237070798874,-0.63716691732407,1.52532780170441
512,2553889236,3.18578147888184,0.49888294935226,90.69191741943359,-0.34238219261169,0.25518530607224,10.25389862060547,-1.20664823055267,-1.00270760059357,4.14184713363647
513,2553897569,3.17741012573242,0.49437299370766,90.69198608398438,1.16907644271851,0.32197523117065,10.21032333374023,-0.91823196411133,-0.91938453912735,1.92616498470306
514,2553905902,3.17385506629944,0.49863770604134,90.67948150634766,4.10991621017456,0.61508971452713,10.04654693603516,-0.19673012197018,-0.70855367183685,1.80608522891998
515,2553914235,3.17713069915771,0.49639537930489,90.69311523437500,4.23436498641968,0.26070064306259,10.46556091308594,0.46484714746475,-0.55886429548264,3.53765916824341
516,2553922568,3.18244457244873,0.50239545106888,90.68906402587891,1.38473486900330,0.34086716175079,10.24283695220947,0.86696499586105,-0.08236257731915,2.75445246696472
517,2553930901,3.19011545181274,0.50539511442184,90.69006347656250,-0.72336816787720,0.79193794727325,9.97372436523438,1.00548672676086,-0.01499713491648,1.99657833576202
518,2553939234,3.19715619087219,0.50620716810226,90.70275115966797,0.16475866734982,0.71613085269928,10.10936450958252,1.05234801769257,-0.55039870738983,4.77412223815918
519,2553947567,3.19778633117676,0.50274568796158,90.70745086669922,0.91124445199966,0.82695662975311,10.02126979827881,0.15786050260067,-0.76493066549301,2.48442697525024
520,2553955900,3.19033908843994,0.50549191236496,90.67859649658203,-0.78411632776260,1.02719116210938,9.89306259155273,-0.66093689203262,-0.53865456581116,-0.21081794798374
521,2553964233,3.18143939971924,0.50720101594925,90.67388153076172,-2.52199935913086,0.50702947378159,10.38391113281250,-0.97706776857376,-0.20779547095299,1.32538306713104
522,2553972566,3.17185688018799,0.51505571603775,90.66117858886719,-4.79411554336548,0.21801201999187,9.77739143371582,-0.95194035768509,0.05991169810295,1.71761381626129
523,2553980899,3.17367911338806,0.52024739980698,90.66060638427734,-6.50884675979614,0.55485707521439,10.37544441223145,0.30637183785439,0.23547165095806,1.80157721042633
524,2553989232,3.18075394630432,0.51911777257919,90.66459655761719,-3.68738269805908,0.17667412757874,10.01513671875000,1.04223036766052,-1.34702706336975,3.83682036399841
525,2553997565,3.18551087379456,0.51077222824097,90.67861938476562,-2.94779992103577,0.38680562376976,9.72041225433350,0.64312219619751,-1.29168736934662,3.64441871643066
526,2554005898,3.18661379814148,0.52393698692322,90.67729187011719,-4.77296495437622,0.56356126070023,10.81801128387451,0.35251590609550,0.08482153713703,3.14262318611145
527,2554014231,3.18075847625732,0.51595306396484,90.68429565429688,-3.91862535476685,0.27703395485878,9.63251781463623,-0.62231063842773,-1.30060124397278,2.80396461486816
528,2554022564,3.17583155632019,0.52216291427612,90.67355346679688,-0.15408174693584,0.53449118137360,10.19975852966309,-0.35028749704361,-1.13129115104675,2.11345624923706
529,2554030897,3.17692637443542,0.51933658123016,90.68021392822266,2.70849466323853,0.46971905231476,9.85236072540283,0.21206022799015,-0.68911254405975,2.73209095001221
530,2554039230,3.18157577514648,0.52202385663986,90.68701171875000,2.98461508750916,0.46586191654205,10.31432819366455,0.78038895130157,-1.30890011787415,4.19707202911377
531,2554047563,3.19282078742981,0.52944475412369,90.70088958740234,1.55193030834198,0.67706304788589,9.83687782287598,1.42319083213806,0.58632260560989,3.53395748138428
532,2554055896,3.19427108764648,0.53323769569397,90.70046997070312,0.14004927873611,1.09230625629425,10.62617301940918,0.40183615684509,-1.01723098754883,3.28661394119263
533,2554064229,3.19342184066772,0.52639448642731,90.70140838623047,2.06926274299622,1.29502952098846,10.10592651367188,-0.01536854077131,-1.21081054210663,2.08378219604492
534,2554072562,3.18660306930542,0.53456485271454,90.67675018310547,2.87346196174622,0.59130424261093,10.20793724060059,-0.61501061916351,-0.54439216852188,0.32427620887756
535,2554080895,3.17002344131470,0.53972113132477,90.66976928710938,-1.57878839969635,0.34177026152611,10.17912864685059,-1.89382684230804,0.17202520370483,1.05858504772186
536,2554089228,3.16778755187988,0.54534929990768,90.65345001220703,-5.42325782775879,0.06383945047855,9.33471775054932,-0.06763438880444,-0.71782612800598,1.34277510643005
537,2554097561,3.17074608802795,0.54326152801514,90.65695190429688,-4.56507682800293,0.56529241800308,10.67328834533691,0.43915608525276,-0.62835568189621,2.36611509323120
538,2554105894,3.17778992652893,0.55201399326324,90.65592193603516,-3.11764001846313,-0.03946697339416,9.40772247314453,1.04598307609558,-0.60748004913330,3.23587226867676
539,2554114227,3.18622660636902,0.54442864656448,90.67810058593750,-2.39337062835693,0.87789422273636,10.92243862152100,1.07664310932159,-1.16679251194000,4.64529514312744
540,2554122560,3.18729686737061,0.56503981351852,90.67205810546875,-2.66521787643433,0.51368165016174,10.33146572113037,0.34476763010025,0.59217554330826,2.57756066322327
541,2554130893,3.18389773368835,0.56334918737411,90.67555999755859,-2.91351771354675,0.14960072934628,9.65861034393311,-0.32177880406380,-0.58814126253128,2.37026429176331
542,2554139226,3.17418766021729,0.56766808032990,90.67127990722656,-0.89517915248871,0.44835299253464,10.44919013977051,-0.93529099225998,-1.53315293788910,2.93380331993103
543,2554147559,3.17801332473755,0.56343531608582,90.68189239501953,4.00573587417603,0.33405593037605,9.49700450897217,0.53661817312241,-0.85104572772980,3.24373531341553
544,2554155892,3.17841863632202,0.56700623035431,90.68234252929688,6.20368719100952,0.89711838960648,10.87943267822266,0.28283235430717,-1.44048035144806,3.45815181732178
545,2554164225,3.18585181236267,0.57042455673218,90.69960021972656,3.36593484878540,0.81017696857452,9.91604900360107,0.96314632892609,0.10855311155319,3.99167060852051
546,2554172558,3.19040942192078,0.57269597053528,90.69608306884766,4.72068166732788,1.04522907733917,10.41482162475586,0.76017928123474,-1.22693479061127,2.91085290908813
547,2554180891,3.18381381034851,0.56268948316574,90.70018768310547,6.19171619415283,0.68802767992020,10.44584178924561,-0.70609480142593,-1.58883821964264,2.51096367835999
548,2554189224,3.17778825759888,0.57334333658218,90.67749786376953,6.06922292709351,0.63530838489532,10.80688667297363,-0.51170831918716,0.09008526802063,0.49612212181091
549,2554197557,3.17021346092224,0.57614862918854,90.67143249511719,4.31724834442139,0.19138862192631,9.89678096771240,-0.81224018335342,-0.11952881515026,1.20794165134430
550,2554205890,3.17329216003418,0.58516585826874,90.65902709960938,-1.10296440124512,0.43915194272995,10.13559150695801,0.57826703786850,0.37558156251907,1.71118474006653
551,2554214223,3.17915630340576,0.58820825815201,90.66742706298828,-4.01783037185669,0.40431430935860,10.10827445983887,0.78407740592957,0.00653163017705,2.94297313690186
552,2554222556,3.17726850509644,0.57924515008926,90.66756439208984,-1.86788785457611,0.24356830120087,9.81846904754639,-0.02496107108891,-1.87720322608948,3.36558246612549
553,2554230889,3.18139839172363,0.58790022134781,90.67469024658203,-1.06878101825714,0.98915040493011,10.52816390991211,0.57765221595764,0.66855716705322,2.75691127777100
554,2554239222,3.17915749549866,0.60008895397186,90.66802978515625,-4.37996387481689,0.61394363641739,9.88851356506348,-0.06438138335943,0.51694643497467,2.42128825187683
555,2554247555,3.17503285408020,0.59537070989609,90.66740417480469,-7.05643701553345,0.58548545837402,10.13500976562500,-0.40243804454803,-0.98636585474014,1.92132365703583
556,2554255888,3.17407178878784,0.59754174947739,90.65569305419922,-6.02455091476440,0.56085634231567,10.16118907928467,0.09246739745140,-1.12916529178619,1.94184088706970
557,2554264221,3.17073631286621,0.60205596685410,90.66288757324219,-5.08207941055298,0.00208137719892,9.76930904388428,-0.31783425807953,0.16774763166904,2.79989218711853
558,2554272554,3.17641782760620,0.60072648525238,90.66304016113281,-1.12912321090698,0.87631744146347,10.54479312896729,0.89412873983383,-1.85892713069916,3.44174575805664
559,2554280887,3.17534279823303,0.60146206617355,90.68090820312500,0.69878631830215,0.07519149780273,9.57257461547852,-0.05911764875054,-0.21971890330315,4.10833120346069
560,2554289220,3.17625689506531,0.60742217302322,90.67482757568359,0.84834569692612,0.45617601275444,10.32115077972412,0.33307471871376,-1.01491284370422,2.63840723037720
561,2554297553,3.17127370834351,0.59747254848480,90.68372344970703,2.18249416351318,0.63498538732529,10.30283641815186,-0.51570421457291,-1.56225073337555,3.10611057281494
562,2554305886,3.17479562759399,0.60355955362320,90.67600250244141,4.10215425491333,0.87825620174408,10.07259273529053,0.64675945043564,-0.87151151895523,2.41934132575989
563,2554314219,3.17424011230469,0.60228365659714,90.68061828613281,3.81268310546875,0.39961984753609,10.39762306213379,0.02067068964243,-0.55329316854477,2.53834533691406
564,2554322552,3.17631053924561,0.60370332002640,90.67699432373047,3.78251934051514,0.52773785591125,9.92146205902100,0.45964741706848,-1.08864343166351,2.88329172134399
565,2554330885,3.18479037284851,0.60825669765472,90.68354797363281,4.18245840072632,1.00619196891785,10.80396366119385,1.10284650325775,0.15770685672760,2.73547220230103
566,2554339218,3.18379211425781,0.61727428436279,90.67437744140625,1.28588104248047,0.40330979228020,9.69324111938477,0.08229853957891,0.09646320343018,2.12511038780212
567,2554347551,3.18151831626892,0.61860913038254,90.67826843261719,-1.46941149234772,0.96628755331039,10.52174663543701,-0.18599776923656,-0.24427016079426,2.44316267967224
568,2554355884,3.17662405967712,0.61941158771515,90.65991973876953,-0.89194518327713,0.73767983913422,10.01281452178955,-0.38386768102646,-0.93992710113525,1.09534132480621
569,2554364217,3.16935133934021,0.61872524023056,90.66187286376953,-3.55863451957703,0.14921733736992,9.83406925201416,-0.78275817632675,-0.50084793567657,2.22772097587585
570,2554372550,3.16699814796448,0.62917190790176,90.64850616455078,-3.75278186798096,0.77594041824341,10.31424236297607,-0.07837954908609,0.10316132754087,1.63755631446838
571,2554380883,3.16544103622437,0.62480515241623,90.64736938476562,-2.96564602851868,0.12285417318344,10.01497936248779,-0.09227527678013,-0.96303117275238,1.88349151611328
572,2554389216,3.16985368728638,0.62982189655304,90.64638519287109,-4.23285007476807,0.49798807501793,10.27145385742188,0.72288495302200,-0.68765258789062,3.19880795478821
573,2554397549,3.17024683952332,0.62847232818604,90.65898132324219,-3.95300173759460,0.33201771974564,10.24422264099121,0.12420344352722,-0.51398807764053,3.51432442665100
574,2554405882,3.17462682723999,0.62614285945892,90.65734100341797,-0.20583109557629,0.51416677236557,9.68244743347168,0.73126065731049,-1.84328961372375,3.22542071342468
575,2554414215,3.17455530166626,0.63012969493866,90.66778564453125,1.01816892623901,0.57878166437149,10.72801876068115,0.07161740213633,0.10914225876331,3.22099018096924
576,2554422548,3.17234015464783,0.63494259119034,90.66673278808594,2.20347547531128,0.38397440314293,9.97415637969971,-0.06338243186474,-0.93016815185547,3.22578024864197
577,2554430881,3.17555117607117,0.62800908088684,90.67781066894531,4.61148118972778,0.61928403377533,10.14650726318359,0.46528261899948,-1.19696617126465,3.37595629692078
578,2554439214,3.17909455299377,0.64057242870331,90.67477416992188,3.84300804138184,0.79098683595657,10.28953075408936,0.63349121809006,0.25045597553253,2.87202143669128
579,2554447547,3.18011283874512,0.63505500555038,90.68003845214844,3.68919682502747,0.73327225446701,10.19448852539062,0.20803883671761,-1.06799840927124,2.67243576049805
580,2554455880,3.17826724052429,0.63393539190292,90.67166900634766,5.44551992416382,0.78766661882401,10.47378921508789,-0.02227157913148,-1.13851439952850,2.27592730522156
581,2554464213,3.17775058746338,0.64003247022629,90.67120361328125,3.20431947708130,0.70252394676208,10.06379032135010,0.03212025016546,0.28582921624184,1.91161584854126
582,2554472546,3.17502903938293,0.64083141088486,90.65768432617188,-0.37662392854691,0.66184246540070,10.03547573089600,-0.13781738281250,-0.62062007188797,1.62635016441345
583,2554480879,3.16848707199097,0.64203339815140,90.66638946533203,-1.15700852870941,1.00047206878662,10.22320365905762,-0.70079267024994,-0.23822520673275,3.04576325416565
584,2554489212,3.16510081291199,0.64148271083832,90.64002990722656,0.44027903676033,-0.32387351989746,10.00800132751465,-0.22056417167187,-0.91056036949158,0.10358396172523
585,2554497545,3.15527296066284,0.64201498031616,90.63472747802734,-0.09368854761124,0.50661367177963,10.43670845031738,-1.07777011394501,-0.41203057765961,1.37305104732513
586,2554505878,3.16031432151794,0.65007072687149,90.63426971435547,-3.21481275558472,0.45299986004829,10.50018882751465,0.78902089595795,0.31595158576965,3.14696502685547
587,2554514211,3.16714382171631,0.65171146392822,90.65205383300781,-4.52731847763062,-0.01464385725558,9.85195827484131,0.88953119516373,-0.12631660699844,4.13657093048096
588,2554522544,3.17464470863342,0.65737688541412,90.64984130859375,-4.27099180221558,0.74166911840439,9.91168117523193,1.10819995403290,-0.23691888153553,2.99497008323669
589,2554530877,3.17785096168518,0.64809459447861,90.66370391845703,0.21693146228790,0.79941987991333,10.52269649505615,0.46156850457191,-1.46294414997101,3.74444293975830
590,2554539210,3.17508029937744,0.65018689632416,90.65881347656250,3.64165949821472,0.40620797872543,9.76469135284424,-0.13585790991783,-0.80695086717606,2.70178961753845
591,2554547543,3.17190599441528,0.66132098436356,90.65835571289062,-0.89065146446228,0.77540028095245,10.16567516326904,-0.28438204526901,0.88571459054947,1.89222598075867
592,2554555876,3.17251467704773,0.66326510906219,90.65282440185547,-3.17513084411621,0.79011368751526,10.29068756103516,0.26597821712494,-0.71733939647675,2.60734963417053
593,2554564209,3.17044305801392,0.64944553375244,90.65786743164062,1.05475652217865,0.35283127427101,9.84450912475586,-0.16040915250778,-2.06651806831360,2.72007822990417
594,2554572542,3.17490601539612,0.65388923883438,90.65435028076172,2.38266158103943,0.73131871223450,10.29311752319336,0.72437059879303,-0.46286207437515,2.82089567184448
595,2554580875,3.17787861824036,0.65394592285156,90.65889739990234,1.11156046390533,0.57805371284485,10.12296199798584,0.44530341029167,-0.40940508246422,2.57187390327454
596,2554589208,3.17501044273376,0.65998560190201,90.64987182617188,-1.87384784221649,0.57635670900345,9.99853038787842,-0.15584982931614,-0.17344680428505,2.14514112472534
597,2554597541,3.17159652709961,0.66307777166367,90.64645385742188,-4.88589239120483,0.85282629728317,10.29983615875244,-0.30940720438957,-0.09757743775845,1.60076177120209
598,2554605874,3.16617250442505,0.65789628028870,90.63298797607422,-2.88133144378662,0.15572458505630,9.85163784027100,-0.46872764825821,-1.76065838336945,1.71997010707855
599,2554614207,3.16092443466187,0.65057700872421,90.63465881347656,1.61399173736572,-0.08448356389999,10.32709407806396,-0.53604197502136,-1.31466352939606,2.27910351753235
600,2554622540,3.16468954086304,0.67107778787613,90.63756561279297,-0.18088914453983,0.48959019780159,10.42167282104492,0.64576047658920,1.40040707588196,3.51563048362732
601,2554630873,3.17535877227783,0.67402982711792,90.65413665771484,-4.39598846435547,0.65529775619507,9.75283622741699,1.35330247879028,0.01483064331114,4.00137901306152
602,2554639206,3.17995738983154,0.67161333560944,90.65325164794922,-2.37003660202026,0.87429964542389,10.10045146942139,0.74767941236496,-1.50582218170166,3.24004673957825
603,2554647539,3.17782568931580,0.66572046279907,90.66101837158203,1.70024263858795,0.72453093528748,10.27711486816406,-0.16970713436604,-1.10644543170929,3.00882768630981
604,2554655872,3.17114377021790,0.66710257530212,90.65117645263672,3.96366786956787,0.71457779407501,10.25836086273193,-0.60906809568405,-1.11320745944977,2.11547970771790
605,2554664205,3.16844129562378,0.66907179355621,90.65126037597656,3.26700353622437,0.64514666795731,10.35453796386719,-0.22895285487175,-0.21637625992298,2.03879070281982
606,2554672538,3.16842317581177,0.68151533603668,90.64498138427734,-0.32237932085991,0.40097105503082,10.08668041229248,0.17497085034847,0.49507200717926,2.43450498580933
607,2554680871,3.16979789733887,0.67624425888062,90.64378356933594,-1.57731330394745,0.26874065399170,10.03794193267822,0.26323747634888,-1.09235739707947,1.93487370014191
608,2554689204,3.16363191604614,0.68431949615479,90.64649200439453,-0.32261109352112,0.00179020222276,10.60353088378906,-0.56183540821075,-0.01535573322326,3.54864716529846
609,2554697537,3.17321777343750,0.68250280618668,90.64648437500000,-0.92448699474335,0.93189513683319,9.08167934417725,1.24743890762329,-0.67256575822830,2.06135678291321
610,2554705870,3.16960287094116,0.69209325313568,90.63848114013672,-3.51629686355591,1.08984076976776,10.86474704742432,-0.23630410432816,0.07141248136759,2.25574326515198
611,2554714203,3.16154694557190,0.68562257289886,90.62985229492188,-5.37151908874512,0.16254341602325,9.12380218505859,-0.85693699121475,-1.28715360164642,1.05991697311401
612,2554722536,3.16331267356873,0.69739747047424,90.61813354492188,-5.23694276809692,1.30704367160797,10.94455528259277,0.40795788168907,0.03419500216842,1.85155057907104
613,2554730869,3.16147232055664,0.69460362195969,90.61816406250000,-4.81728649139404,-0.33923214673996,9.01138496398926,-0.12316605448723,-0.79282462596893,2.07721209526062
614,2554739202,3.16269111633301,0.69298833608627,90.62627410888672,-3.83281350135803,0.65639150142670,11.15237522125244,0.31866672635078,-1.74285674095154,4.36540889739990
615,2554747535,3.18012285232544,0.69954550266266,90.63540649414062,-3.08188772201538,0.70617711544037,9.20096588134766,2.17562198638916,0.38531491160393,3.10864591598511
616,2554755868,3.17945981025696,0.69832599163055,90.63435363769531,-1.69644749164581,0.11920169740915,10.11063480377197,0.09730846434832,-1.95463478565216,3.29457902908325
617,2554764201,3.17872643470764,0.69314205646515,90.64933013916016,-0.48087653517723,1.07621300220490,10.80643081665039,-0.01312729530036,-0.98603266477585,3.89200615882874
618,2554772534,3.17632007598877,0.70779746770859,90.63761901855469,3.56073760986328,0.66997480392456,10.10477828979492,-0.09990832954645,-0.16517339646816,1.92370593547821
619,2554780867,3.16566896438599,0.70405787229538,90.64852905273438,5.06438589096069,0.23334473371506,10.70401191711426,-1.19645369052887,-0.84287482500076,3.39713883399963
620,2554789200,3.16145706176758,0.71841526031494,90.64091491699219,4.44228935241699,0.18939448893070,9.96463680267334,-0.31622058153152,0.13142664730549,2.35399961471558
621,2554797533,3.16441893577576,0.70723521709442,90.64767456054688,5.44484233856201,0.64229398965836,10.37364387512207,0.44335678219795,-1.76339912414551,2.94958162307739
622,2554805866,3.16834688186646,0.70800876617432,90.64782714843750,4.82489490509033,0.58921557664871,9.73811149597168,0.65618556737900,-1.10644543170929,3.31904149055481
623,2554814199,3.17205595970154,0.70424598455429,90.65137481689453,5.39939785003662,0.70587635040283,10.48772525787354,0.53774523735046,-0.89661347866058,2.51534342765808
624,2554822532,3.17235302925110,0.70945453643799,90.63892364501953,3.60627722740173,0.62671554088593,9.99591922760010,0.23152709007263,-0.31427386403084,1.74427831172943
625,2554830865,3.18017530441284,0.72334402799606,90.63040924072266,-1.86453080177307,1.15235829353333,10.64914131164551,1.04908215999603,1.14024317264557,0.95579510927200
626,2554839198,3.15654277801514,0.74024212360382,90.62799835205078,-7.07656192779541,-0.24452331662178,10.62201595306396,-2.67777609825134,1.22305405139923,2.86318445205688
627,2554847531,3.15949153900146,0.73359513282776,90.61940765380859,-3.58356237411499,1.01813757419586,9.58211231231689,0.46556431055069,-1.32175838947296,1.08755469322205
628,2554855864,3.15766239166260,0.73944383859634,90.59996795654297,-2.03151464462280,0.25506323575974,10.00146293640137,-0.02542212791741,-0.53396713733673,0.95290070772171
629,2554864197,3.15722775459290,0.73665839433670,90.60871887207031,-2.74508976936340,0.46455851197243,10.00780868530273,0.03334973379970,-0.74641162157059,3.14401936531067
630,2554872530,3.16203975677490,0.73843634128571,90.60543060302734,-5.33107471466064,0.49631294608116,9.92952823638916,0.75805324316025,-1.04712259769440,2.92834734916687
631,2554880863,3.17080426216125,0.73614400625229,90.62336730957031,-6.73818016052246,0.63433933258057,10.26513671875000,1.12377333641052,-0.62845808267593,4.24617433547974
632,2554889196,3.17253494262695,0.73174643516541,90.62116241455078,-2.34607434272766,0.25878691673279,9.76128101348877,0.38423913717270,-2.13421654701233,3.16205143928528
633,2554897529,3.16967105865479,0.72917783260345,90.63253021240234,3.69970774650574,0.57599920034409,10.79412174224854,-0.26225137710571,-0.70880997180939,3.46273756027222
634,2554905862,3.17099452018738,0.74886929988861,90.62944030761719,4.59660816192627,0.45442333817482,10.20726585388184,0.34641972184181,0.81208658218384,2.87882232666016
635,2554914195,3.17393445968628,0.74515509605408,90.64666748046875,0.43005454540253,0.74485206604004,9.63807487487793,0.42490178346634,-0.80784738063812,4.17359638214111
636,2554922528,3.17639017105103,0.74484997987747,90.63278961181641,1.23858904838562,1.06757795810699,10.49538898468018,0.49330455064774,-1.47833836078644,1.66618013381958
637,2554930861,3.17062783241272,0.73301160335541,90.64513397216797,4.93250465393066,0.31848141551018,9.93659591674805,-0.61119401454926,-1.81490933895111,3.64521265029907
638,2554939194,3.16852521896362,0.73323178291321,90.64050292968750,6.42406702041626,0.62532097101212,10.63429069519043,-0.05808027461171,-1.20731401443481,1.56889748573303
639,2554947527,3.17132663726807,0.74331879615784,90.64366912841797,3.83070302009583,0.64258575439453,10.08779716491699,0.43159985542297,0.74957501888275,2.39303565025330
640,2554955860,3.17301559448242,0.75387656688690,90.63298034667969,-0.83258140087128,0.79886168241501,10.34107875823975,0.37983348965645,0.38833743333817,1.92058086395264
641,2554964193,3.16709899902344,0.75126087665558,90.61856079101562,-4.30623340606689,0.23936988413334,9.65547943115234,-0.58696299791336,-0.88805830478668,0.38055065274239
642,2554972526,3.16525387763977,0.74904727935791,90.61408233642578,-2.47834587097168,0.57310569286346,10.62474822998047,-0.05101075395942,-1.24501836299896,2.75191664695740
643,2554980859,3.16314959526062,0.74602162837982,90.62180328369141,-0.79592120647430,0.13238032162189,9.70029640197754,-0.16619797050953,-0.79003274440765,3.03692626953125
644,2554989192,3.16413784027100,0.76232171058655,90.61510467529297,-5.12658309936523,0.79942274093628,10.27232551574707,0.30419465899467,0.87559705972672,2.39272809028625
645,2554997525,3.17094612121582,0.76688003540039,90.61674499511719,-7.03400611877441,0.46984300017357,10.15727901458740,0.91468429565430,0.07484479248524,2.26309466362000
646,2555005858,3.16313409805298,0.76188260316849,90.62111663818359,-3.13555383682251,0.25466480851173,10.04093360900879,-0.77558624744415,-1.94961452484131,3.92225623130798
647,2555014191,3.16867709159851,0.75663131475449,90.62312316894531,-0.47458171844482,1.15548443794250,10.24034118652344,0.76197230815887,-1.10081017017365,2.37090492248535
648,2555022524,3.16830968856812,0.76172518730164,90.62138366699219,1.64124679565430,0.20948520302773,10.01908302307129,0.11718513071537,-0.86877089738846,3.12593579292297
649,2555030857,3.16704893112183,0.75188064575195,90.63186645507812,2.04621934890747,0.38745933771133,10.03062629699707,-0.06681473553181,-1.59634292125702,3.42405962944031
650,2555039190,3.17048978805542,0.76868897676468,90.62856292724609,0.86402630805969,0.80993831157684,10.66300296783447,0.59015196561813,0.65585249662399,2.83239650726318
651,2555047523,3.17320275306702,0.75826925039291,90.64166259765625,3.01330161094666,0.37590461969376,9.89242362976074,0.40578070282936,-1.64977443218231,3.74380207061768
652,2555055856,3.17231059074402,0.76336854696274,90.64179229736328,6.57438945770264,0.67994582653046,10.72509384155273,0.08363047987223,-0.65015333890915,2.12470102310181
653,2555064189,3.17049622535706,0.76686543226242,90.64154815673828,5.32958364486694,0.40163695812225,10.04881763458252,-0.11607090383768,-0.07214249670506,2.04775571823120
654,2555072522,3.16896224021912,0.77147471904755,90.64453125000000,1.11009526252747,0.77251142263412,10.19817066192627,0.00143439718522,-0.31931984424591,2.44913053512573
655,2555080855,3.16945409774780,0.76640069484711,90.64248657226562,-0.31478050351143,0.56366479396820,9.75030517578125,0.16186915338039,-1.10909640789032,1.88711595535278
656,2555089188,3.16955947875977,0.76393842697144,90.64264678955078,0.22921127080917,0.55435687303543,10.33438777923584,0.19582083821297,-1.14827334880829,2.15415740013123
657,2555097521,3.16904163360596,0.76603394746780,90.64510345458984,-0.49265602231026,0.58921748399734,10.06485748291016,0.03514273092151,-0.22134542465210,2.37843561172485
658,2555105854,3.16756558418274,0.77425748109818,90.63906097412109,-2.57157683372498,0.87767094373703,10.42257499694824,-0.00910586118698,0.16008897125721,2.51980042457581
659,2555114187,3.16957354545593,0.78523093461990,90.63780975341797,-5.55029487609863,0.50220602750778,9.80749702453613,0.34323072433472,0.81827229261398,1.88344025611877
660,2555122520,3.16092205047607,0.78453236818314,90.63317108154297,-7.26261663436890,0.17533807456493,9.88311100006104,-0.87978488206863,-1.12260794639587,2.79064536094666
661,2555130853,3.16478323936462,0.77505481243134,90.63253021240234,-3.13043022155762,0.68035864830017,10.30482673645020,0.56586968898773,-1.63174211978912,2.09701228141785
662,2555139186,3.16280579566956,0.78185194730759,90.62802886962891,0.47401955723763,0.12545590102673,10.18112373352051,-0.07329513132572,-0.50799435377121,2.79815030097961
663,2555147519,3.16281294822693,0.78387701511383,90.63980865478516,-0.96108615398407,0.50606501102448,10.21496963500977,0.08316943049431,-0.17183311283588,3.50776720046997
664,2555155852,3.16614723205566,0.79121977090836,90.63839721679688,-0.98812931776047,0.52088510990143,9.95789718627930,0.57240134477615,-0.41898483037949,3.14506936073303
665,2555164185,3.16848635673523,0.78113883733749,90.65065765380859,2.02684569358826,0.36289849877357,10.05371761322021,0.36203160881996,-1.61954963207245,3.65018200874329
666,2555172518,3.16961312294006,0.78541338443756,90.66224670410156,4.20171880722046,0.82121825218201,10.59022808074951,0.31582355499268,-0.71516233682632,3.51606631278992
667,2555180851,3.17342638969421,0.77849102020264,90.66731262207031,6.09621572494507,0.40097326040268,10.02093601226807,0.55038595199585,-1.29134178161621,2.76222658157349
668,2555189184,3.17184448242188,0.78637868165970,90.67472076416016,5.82896375656128,0.91929930448532,10.70141601562500,-0.00776111334562,0.00577600998804,2.97262167930603
669,2555197517,3.17021727561951,0.79473286867142,90.67115020751953,1.97171306610107,0.59450060129166,10.00963115692139,-0.08780559152365,0.48135551810265,1.62656784057617
670,2555205850,3.16557431221008,0.79317986965179,90.67301940917969,1.25822663307190,0.65904253721237,10.18395328521729,-0.38023048639297,-0.92394381761551,2.35684227943420
671,2555214183,3.16411852836609,0.78901255130768,90.66938018798828,2.70864343643188,0.79635500907898,10.12780094146729,-0.06676349788904,-1.01717960834503,1.70206582546234
672,2555222516,3.16429209709167,0.79130846261978,90.65815734863281,0.50220394134521,0.55402505397797,9.97261333465576,0.18672776222229,-0.36385020613670,1.92608797550201
673,2555230849,3.16074681282043,0.79315954446793,90.66029357910156,-2.56962227821350,0.44232389330864,10.31625270843506,-0.32653027772903,-0.25942099094391,2.36008286476135
674,2555239182,3.15461754798889,0.79575669765472,90.64372253417969,-2.99234175682068,0.46180900931358,10.12042903900146,-0.55942773818970,-0.40902096033096,1.29948699474335
675,2555247515,3.15452432632446,0.79805737733841,90.64748382568359,-3.75577569007874,0.39303603768349,10.36477756500244,0.08411715179682,-0.19539821147919,2.55486655235291
676,2555255848,3.15261960029602,0.79834413528442,90.64519500732422,-1.59614217281342,0.14272417128086,9.88035392761230,-0.06827473640442,-0.77164161205292,3.05342149734497
677,2555264181,3.15707635879517,0.80029886960983,90.65206909179688,-0.66246169805527,0.44484248757362,10.36304855346680,0.62649857997894,-0.21519801020622,2.93149805068970
678,2555272514,3.16140341758728,0.80775892734528,90.65441894531250,-1.97320032119751,0.44090342521667,10.07176876068115,0.68431001901627,0.06849247962236,3.56002044677734
679,2555280847,3.16260766983032,0.80088788270950,90.66468811035156,-1.63189649581909,0.53898906707764,9.97485160827637,0.22978533804417,-1.25283062458038,3.40182685852051
680,2555289180,3.16262912750244,0.80257332324982,90.67233276367188,2.10229253768921,0.92590200901031,10.44548320770264,0.18706075847149,-0.73826628923416,3.05142378807068
681,2555297513,3.16341209411621,0.79710960388184,90.68141174316406,3.84952116012573,0.70093554258347,10.06228065490723,0.18124632537365,-1.09368944168091,3.24214768409729
682,2555305846,3.16112422943115,0.80081796646118,90.67685699462891,3.32977724075317,0.45343300700188,10.29118824005127,-0.08584610372782,-0.39695656299591,1.56746304035187
683,2555314179,3.15802454948425,0.79938405752182,90.68697357177734,2.35988402366638,0.78296369314194,10.35171794891357,-0.28653368353844,-0.60412460565567,3.34071135520935
684,2555322512,3.16172432899475,0.79991585016251,90.66728210449219,0.93802416324615,0.62309086322784,9.70685100555420,0.62921369075775,-0.64572209119797,0.93302422761917
685,2555330845,3.16177535057068,0.79846179485321,90.67597198486328,-0.18216413259506,0.37183502316475,10.53610801696777,0.09454214572906,-0.61480563879013,3.17941808700562
686,2555339178,3.16141009330750,0.79781132936478,90.66413116455078,0.73051047325134,0.80416631698608,9.99518394470215,0.13129858672619,-0.70463478565216,1.88395249843597
687,2555347511,3.16054320335388,0.80557703971863,90.66052246093750,-1.65344893932343,0.43435600399971,10.18911457061768,0.00358599238098,0.40898248553276,1.64655983448029
688,2555355844,3.15498352050781,0.80569660663605,90.65473937988281,-4.46918201446533,0.62029111385345,10.12951946258545,-0.50615006685257,-0.58916580677032,2.59981942176819
689,2555364177,3.15427732467651,0.80358159542084,90.64948272705078,-3.67704987525940,0.49103394150734,9.82389068603516,0.02704863250256,-0.78578066825867,1.51369869709015
690,2555372510,3.15376710891724,0.80685615539551,90.64401245117188,-3.47063589096069,0.21472594141960,10.20354747772217,0.09677058458328,-0.41970208287239,2.65921878814697
691,2555380843,3.15470528602600,0.80499809980392,90.65959167480469,-3.32837057113647,0.56820851564407,10.23099994659424,0.18934042751789,-0.61949300765991,4.01244401931763
692,2555389176,3.15710163116455,0.80722391605377,90.65484619140625,-0.64835494756699,0.43171665072441,10.20975208282471,0.45341038703918,-0.71251112222672,2.76640152931213
693,2555397509,3.15893483161926,0.81007593870163,90.65541839599609,-0.36775168776512,0.60372507572174,10.07896614074707,0.32299548387527,-0.15438978374004,2.18325495719910
694,2555405842,3.15611410140991,0.81416153907776,90.66084289550781,-0.77306640148163,0.54276877641678,10.10864639282227,-0.18825179338455,-0.43594145774841,3.96159982681274
695,2555414175,3.15550422668457,0.80542629957199,90.66656494140625,2.46902537345886,0.48219549655914,10.21998500823975,0.01874962076545,-1.50992095470428,2.88311290740967
696,2555422508,3.15683341026306,0.81131321191788,90.65402984619141,4.32688426971436,0.51854258775711,10.40844058990479,0.34294897317886,-0.27861884236336,1.77980506420135
