sep=,
DeviceTag:,left leg
FirmwareVersion:,2.2.1
AppVersion:,2023.6.0
StartTime: ,2025-03-06_12:40:59_000 PST
© Movella Technologies B. V. 2005-2025

PacketCounter,SampleTimeFine,Euler_X,Euler_Y,Euler_Z,Acc_X,Acc_Y,Acc_Z,Gyr_X,Gyr_Y,Gyr_Z
0,1882967684,-0.55489081144333,0.53639960289001,50.38321304321289,0.00000000000000,0.00000000000000,0.00000000000000,0.00000000000000,0.00000000000000,0.00000000000000
1,1882976017,-0.55509769916534,0.53672152757645,50.38276290893555,-0.09965248405933,-0.08428461104631,10.00971984863281,1.29839837551117,1.83376157283783,0.77420300245285
2,1882984350,-0.55553549528122,0.53716951608658,50.38320159912109,-0.11543033272028,-0.10241129249334,10.00373744964600,1.26842987537384,1.84467339515686,0.86006200313568
3,1882992683,-0.55541676282883,0.53809493780136,50.38383865356445,-0.09768510609865,-0.09326059371233,10.00301837921143,1.33676862716675,1.90345799922943,0.90675681829453
4,1883001016,-0.55464249849319,0.53879672288895,50.38379287719727,-0.09370009601116,-0.09582039713860,9.99846363067627,1.41463565826416,1.87551259994507,0.81111317873001
5,1883009349,-0.55438065528870,0.53903234004974,50.38349533081055,-0.10328800231218,-0.08076978474855,10.00258731842041,1.35549247264862,1.82305479049683,0.79215866327286
6,1883017682,-0.55394744873047,0.53900676965714,50.38394927978516,-0.11365862190723,-0.07690096646547,10.01724243164062,1.37280774116516,1.78773272037506,0.81977075338364
7,1883026015,-0.55393695831299,0.53891557455063,50.38394927978516,-0.10428207367659,-0.08687237650156,9.98370456695557,1.32590806484222,1.78181576728821,0.82865887880325
8,1883034348,-0.55339503288269,0.53955376148224,50.38328552246094,-0.10987280309200,-0.08046510815620,10.01012516021729,1.38640892505646,1.87064599990845,0.75286644697189
9,1883042681,-0.55365705490112,0.53920191526413,50.38365554809570,-0.13164125382900,-0.09739589691162,9.97666358947754,1.29184114933014,1.75074565410614,0.87169080972672
10,1883051014,-0.55345636606216,0.54032522439957,50.38377761840820,-0.10002290457487,-0.07859218120575,10.00873279571533,1.34601509571075,1.92589581012726,0.84751093387604
11,1883059347,-0.55356115102768,0.54020881652832,50.38318634033203,-0.12769992649555,-0.11363123357296,10.02121353149414,1.31148707866669,1.78066313266754,0.75693899393082
12,1883067680,-0.55395936965942,0.54011261463165,50.38304519653320,-0.09974806755781,-0.09873856604099,10.02173709869385,1.27355253696442,1.78035557270050,0.81475031375885
13,1883076013,-0.55406028032303,0.54027587175369,50.38322448730469,-0.10905202478170,-0.09009020775557,9.99072742462158,1.31069326400757,1.81227123737335,0.85017484426498
14,1883084346,-0.55389899015427,0.54135924577713,50.38340377807617,-0.11439250409603,-0.09615482389927,10.03174209594727,1.34214770793915,1.92143917083740,0.84658885002136
15,1883092679,-0.55381816625595,0.54159134626389,50.38344955444336,-0.12806667387486,-0.08968149125576,10.01029682159424,1.33220911026001,1.82067251205444,0.83339756727219
16,1883101012,-0.55408662557602,0.54149013757706,50.38452529907227,-0.10834664851427,-0.08776103705168,9.99992656707764,1.28784525394440,1.77810192108154,0.95859998464584
17,1883109345,-0.55440825223923,0.54060918092728,50.38383865356445,-0.11163525283337,-0.07977789640427,10.00706386566162,1.28561675548553,1.68870806694031,0.74367082118988
18,1883117678,-0.55527538061142,0.54038226604462,50.38376235961914,-0.11330857872963,-0.09643413126469,9.99064731597900,1.21814882755280,1.76437246799469,0.82760870456696
19,1883126011,-0.55535697937012,0.54066199064255,50.38364791870117,-0.09227493405342,-0.10242851078510,9.99292755126953,1.31379246711731,1.82763969898224,0.81467354297638
20,1883134344,-0.55508935451508,0.53986710309982,50.38416290283203,-0.10223750025034,-0.10246433317661,10.00854778289795,1.35172712802887,1.69723761081696,0.86533844470978
21,1883142677,-0.55472856760025,0.54045897722244,50.38451766967773,-0.09711553156376,-0.08581598848104,10.03011989593506,1.36740314960480,1.86396074295044,0.87169080972672
22,1883151010,-0.55499720573425,0.54049980640411,50.38528060913086,-0.10087734460831,-0.10537374764681,10.01567840576172,1.28871631622314,1.79569876194000,0.91316032409668
23,1883159343,-0.55472189188004,0.54051995277405,50.38543319702148,-0.09994821250439,-0.06157264485955,9.97443294525146,1.35487794876099,1.79636478424072,0.84535944461823
24,1883167676,-0.55590248107910,0.54004377126694,50.38563156127930,-0.09706227481365,-0.09844494611025,9.99653816223145,1.18077766895294,1.73335361480713,0.85073840618134
25,1883176009,-0.55650031566620,0.53927469253540,50.38595199584961,-0.11734675616026,-0.09403032064438,10.02521324157715,1.25083267688751,1.70056736469269,0.86485177278519
26,1883184342,-0.55677855014801,0.53893333673477,50.38578414916992,-0.11749280989170,-0.08882584422827,9.99022579193115,1.28838324546814,1.75164234638214,0.79092925786972
27,1883192675,-0.55689066648483,0.53805148601532,50.38587188720703,-0.11966714262962,-0.09713549166918,10.02365970611572,1.30979669094086,1.68735063076019,0.83688110113144
28,1883201008,-0.55717384815216,0.53825134038925,50.38528823852539,-0.11233104765415,-0.09187295287848,10.01926708221436,1.28830635547638,1.81578016281128,0.75363475084305
29,1883209341,-0.55667948722839,0.53806519508362,50.38507461547852,-0.09622208774090,-0.08367980271578,10.01556396484375,1.38310468196869,1.77205669879913,0.80009907484055
30,1883217674,-0.55732268095016,0.53668534755707,50.38509750366211,-0.12191486358643,-0.10288357734680,10.01551246643066,1.24368631839752,1.62669599056244,0.82945293188095
31,1883226007,-0.55810844898224,0.53643995523453,50.38492202758789,-0.09762370586395,-0.09887903183699,9.98906993865967,1.22929120063782,1.76342475414276,0.80814194679260
32,1883234340,-0.55810415744781,0.53665667772293,50.38522338867188,-0.09853603690863,-0.08780784904957,9.99829006195068,1.32196354866028,1.81754767894745,0.87448287010193
33,1883242673,-0.55791449546814,0.53649133443832,50.38496398925781,-0.09458401054144,-0.07580837607384,9.99796104431152,1.34683489799500,1.77384972572327,0.79625689983368
34,1883251006,-0.55787467956543,0.53617084026337,50.38502502441406,-0.10199253261089,-0.09533478319645,10.02261734008789,1.32652270793915,1.75284612178802,0.83219373226166
35,1883259339,-0.55777937173843,0.53552675247192,50.38547515869141,-0.11693757772446,-0.07735925167799,9.99403285980225,1.33384847640991,1.71708858013153,0.88073265552521
36,1883267672,-0.55842494964600,0.53582704067230,50.38515472412109,-0.10106351226568,-0.09864219278097,10.00845336914062,1.24391698837280,1.82758855819702,0.78667718172073
37,1883276005,-0.55882030725479,0.53604960441589,50.38520050048828,-0.08421742171049,-0.09221082180738,10.01138877868652,1.27596008777618,1.82062125205994,0.83442205190659
38,1883284338,-0.55938744544983,0.53657323122025,50.38557434082031,-0.10600390285254,-0.10745568573475,9.99262523651123,1.25290751457214,1.85381734371185,0.87479013204575
39,1883292671,-0.55895066261292,0.53611564636230,50.38536834716797,-0.11558528244495,-0.09449473023415,10.02555561065674,1.37675237655640,1.73791313171387,0.80227625370026
40,1883301004,-0.55867499113083,0.53484117984772,50.38465881347656,-0.09293036907911,-0.09294670820236,10.02910041809082,1.35495460033417,1.64029717445374,0.73006963729858
41,1883309337,-0.55895298719406,0.53447329998016,50.38429641723633,-0.10088643431664,-0.09646780043840,9.99695110321045,1.29112386703491,1.74905514717102,0.78365474939346
42,1883317670,-0.55818980932236,0.53514152765274,50.38426208496094,-0.11263053864241,-0.09354373812675,9.99523448944092,1.41307330131531,1.87133777141571,0.84428369998932
43,1883326003,-0.55731177330017,0.53449529409409,50.38451004028320,-0.09059774130583,-0.08785714954138,10.02166843414307,1.42885172367096,1.71539831161499,0.85796165466309
44,1883334336,-0.55739754438400,0.53410762548447,50.38529205322266,-0.12882442772388,-0.09744223952293,10.00815105438232,1.31015539169312,1.74457275867462,0.92192023992538
45,1883342669,-0.55718165636063,0.53487092256546,50.38569641113281,-0.12406565994024,-0.08933167159557,10.01949405670166,1.34819245338440,1.88529741764069,0.87753099203110
46,1883351002,-0.55650079250336,0.53529644012451,50.38602447509766,-0.10430578142405,-0.08326227217913,10.00576305389404,1.40341675281525,1.84154820442200,0.86574840545654
47,1883359335,-0.55625158548355,0.53527939319611,50.38556671142578,-0.10209776461124,-0.08890097588301,10.00329685211182,1.35405802726746,1.79341924190521,0.77256375551224
48,1883367668,-0.55647659301758,0.53550922870636,50.38576889038086,-0.08895233273506,-0.08873882889748,9.99295616149902,1.29496610164642,1.81777846813202,0.81833642721176
49,1883376001,-0.55554538965225,0.53586840629578,50.38642883300781,-0.10430712997913,-0.09155164659023,10.02972698211670,1.43392336368561,1.83706581592560,0.90621894598007
50,1883384334,-0.55568420886993,0.53668129444122,50.38665008544922,-0.10003428906202,-0.10039343684912,10.01409816741943,1.30544233322144,1.88849925994873,0.85724443197250
51,1883392667,-0.55702584981918,0.53708595037460,50.38685226440430,-0.08943085372448,-0.07849876582623,10.00683593750000,1.16064512729645,1.84170210361481,0.85342788696289
52,1883401000,-0.55724257230759,0.53744995594025,50.38687896728516,-0.09738852828741,-0.10902701318264,10.00914764404297,1.29706645011902,1.83514487743378,0.82801854610443
53,1883409333,-0.55830460786819,0.53758549690247,50.38660049438477,-0.09968434274197,-0.10480125993490,10.00814628601074,1.19637691974640,1.81078541278839,0.79384911060333
54,1883417666,-0.55915814638138,0.53844887018204,50.38658905029297,-0.10822781920433,-0.09794824570417,10.01411056518555,1.21899425983429,1.89554297924042,0.82299822568893
55,1883425999,-0.55932009220123,0.53839963674545,50.38677597045898,-0.11232944577932,-0.09702171385288,9.99780273437500,1.30272710323334,1.78657996654510,0.85096889734268
56,1883434332,-0.55846011638641,0.53787946701050,50.38731002807617,-0.11118410527706,-0.08617501705885,10.04717922210693,1.42439484596252,1.72810292243958,0.90944629907608
57,1883442665,-0.55784749984741,0.53659623861313,50.38756179809570,-0.13485345244408,-0.09396412968636,10.02071857452393,1.39583492279053,1.64019465446472,0.85698819160461
58,1883450998,-0.55717694759369,0.53735023736954,50.38728713989258,-0.10049295425415,-0.08644194155931,10.00740242004395,1.40290451049805,1.88168573379517,0.81631290912628
59,1883459331,-0.55776643753052,0.53716033697128,50.38779830932617,-0.10218856483698,-0.11485266685486,10.03378963470459,1.25170361995697,1.77018690109253,0.88826322555542
60,1883467664,-0.55790525674820,0.53708100318909,50.38697814941406,-0.10387087613344,-0.09174180775881,10.01351642608643,1.30482745170593,1.78327572345734,0.72973674535751
61,1883475997,-0.55828577280045,0.53648477792740,50.38652038574219,-0.08030039817095,-0.11272768676281,10.03244972229004,1.28003287315369,1.72272372245789,0.77107805013657
62,1883484330,-0.55835169553757,0.53664898872375,50.38640213012695,-0.09075524657965,-0.08021255582571,9.99670124053955,1.31243515014648,1.81137478351593,0.82817232608795
63,1883492663,-0.55887144804001,0.53584820032120,50.38627624511719,-0.09911294281483,-0.10447630286217,9.99296951293945,1.26159095764160,1.69741702079773,0.80985814332962
64,1883500996,-0.55947607755661,0.53639340400696,50.38584136962891,-0.08961632847786,-0.08326619118452,10.01055622100830,1.25009000301361,1.85791587829590,0.78729194402695
65,1883509329,-0.55883765220642,0.53637337684631,50.38567352294922,-0.10016847401857,-0.11534292250872,9.99103164672852,1.40034317970276,1.79101133346558,0.80786013603210
66,1883517662,-0.55871719121933,0.53612393140793,50.38610076904297,-0.11574389785528,-0.10814801603556,9.97696781158447,1.33479607105255,1.76042795181274,0.86877077817917
67,1883525995,-0.55903267860413,0.53645646572113,50.38582611083984,-0.10262161493301,-0.08849123865366,10.01903915405273,1.28712809085846,1.83429956436157,0.79502749443054
68,1883534328,-0.55906069278717,0.53567540645599,50.38602447509766,-0.10277999937534,-0.08972983062267,9.99267387390137,1.31614923477173,1.69716095924377,0.84669137001038
69,1883542661,-0.55954754352570,0.53568482398987,50.38622665405273,-0.10962644219398,-0.09980103373528,10.05300140380859,1.26499748229980,1.79449474811554,0.85135322809219
70,1883550994,-0.55962800979614,0.53640699386597,50.38576889038086,-0.10396555066109,-0.10946951061487,9.96331405639648,1.31338274478912,1.87904763221741,0.77835255861282
71,1883559327,-0.56002986431122,0.53722161054611,50.38595199584961,-0.10876813530922,-0.09705273807049,10.03690624237061,1.27511501312256,1.89149606227875,0.85130184888840
72,1883567660,-0.56012690067291,0.53684324026108,50.38606643676758,-0.08757891505957,-0.10928216576576,10.02184867858887,1.31046259403229,1.74590456485748,0.82676351070404
73,1883575993,-0.55988579988480,0.53578680753708,50.38680267333984,-0.10737854242325,-0.10854642093182,10.02083683013916,1.35072839260101,1.66650068759918,0.91377502679825
74,1883584326,-0.55917650461197,0.53555393218994,50.38675689697266,-0.10851814597845,-0.07442451268435,10.02286529541016,1.40672099590302,1.76278460025787,0.82133322954178
75,1883592659,-0.55942618846893,0.53568947315216,50.38703155517578,-0.09640107303858,-0.10648294538260,10.00403022766113,1.29381334781647,1.80929982662201,0.85993385314941
76,1883600992,-0.55967873334885,0.53494185209274,50.38692474365234,-0.09844739735126,-0.09353412687778,10.01315975189209,1.29102158546448,1.70128452777863,0.81859248876572
77,1883609325,-0.55925405025482,0.53593027591705,50.38698196411133,-0.10241168737411,-0.10294248908758,10.01972770690918,1.37475442886353,1.91257655620575,0.83465266227722
78,1883617658,-0.55893206596375,0.53527861833572,50.38806915283203,-0.09870874881744,-0.08696027845144,10.01176643371582,1.35874557495117,1.71173536777496,0.96413266658783
79,1883625991,-0.55792963504791,0.53508925437927,50.38919448852539,-0.09393476694822,-0.08257989585400,10.03738117218018,1.44214546680450,1.76934182643890,0.96338987350464
80,1883634324,-0.55756032466888,0.53419446945190,50.38970184326172,-0.09694058448076,-0.09827678650618,9.98912906646729,1.36540532112122,1.68399500846863,0.88398563861847
81,1883642657,-0.55721652507782,0.53460359573364,50.38920974731445,-0.10909885168076,-0.08414694666862,10.02943801879883,1.36545658111572,1.84321296215057,0.77002787590027
82,1883650990,-0.55716818571091,0.53409314155579,50.38845825195312,-0.10091818869114,-0.12646315991879,10.01822280883789,1.32849514484406,1.73125326633453,0.72755956649780
83,1883659323,-0.55660372972488,0.53394186496735,50.38858032226562,-0.12306429445744,-0.09433004260063,9.98243904113770,1.39060962200165,1.77454137802124,0.84415555000305
84,1883667656,-0.55718982219696,0.53421014547348,50.38838958740234,-0.10820258408785,-0.08222039043903,10.00428962707520,1.25178027153015,1.82423281669617,0.80773204565048
85,1883675989,-0.55721950531006,0.53374207019806,50.38908004760742,-0.11419790983200,-0.09459321200848,10.01286792755127,1.31822371482849,1.73745191097260,0.91021460294724
86,1883684322,-0.55735409259796,0.53413349390030,50.38871002197266,-0.10517482459545,-0.09440716356039,10.02440452575684,1.30654358863831,1.83816695213318,0.78455114364624
87,1883692655,-0.55775445699692,0.53383392095566,50.38847732543945,-0.09999743849039,-0.12422140687704,9.99784851074219,1.27503812313080,1.75804579257965,0.79912567138672
88,1883700988,-0.55826199054718,0.53387218713760,50.38882827758789,-0.10034088045359,-0.08526071161032,10.01502704620361,1.26141130924225,1.79475092887878,0.86252087354660
89,1883709321,-0.55810528993607,0.53338789939880,50.38865661621094,-0.11538311094046,-0.10905292630196,10.01270198822021,1.34250605106354,1.73596620559692,0.80645132064819
90,1883717654,-0.55841296911240,0.53304970264435,50.38932037353516,-0.09105555713177,-0.09035807847977,10.00791072845459,1.28402864933014,1.75023341178894,0.89279693365097
91,1883725987,-0.55856388807297,0.53293097019196,50.38883590698242,-0.09766162186861,-0.09484851360321,10.00781059265137,1.30562138557434,1.78050947189331,0.76900333166122
92,1883734320,-0.55843567848206,0.53321981430054,50.38850021362305,-0.09258764982224,-0.07477052509785,9.98051357269287,1.33697330951691,1.82597470283508,0.79233789443970
93,1883742653,-0.55993455648422,0.53269535303116,50.38784790039062,-0.10445748269558,-0.07915516942739,10.01123332977295,1.14466178417206,1.73138141632080,0.74961340427399
94,1883750986,-0.55299758911133,0.53041040897369,50.38651275634766,-0.08486591279507,-0.08400347083807,10.01658725738525,1.26430594921112,1.68343174457550,0.84256750345230
95,1883759319,-0.55356848239899,0.52987062931061,50.38722229003906,-0.10223794728518,-0.09201648831367,10.03644847869873,1.25257432460785,1.72887110710144,0.91187959909439
96,1883767652,-0.55286127328873,0.52947217226028,50.38764572143555,-0.09192281961441,-0.09412701427937,10.01352787017822,1.40490221977234,1.74244666099548,0.86884772777557
97,1883775985,-0.55237686634064,0.52963072061539,50.38788223266602,-0.10369560867548,-0.07213211059570,10.01206493377686,1.38092732429504,1.81227123737335,0.85540014505386
98,1883784318,-0.55328679084778,0.52903288602829,50.38639068603516,-0.10044193267822,-0.11302245408297,9.99880599975586,1.21343600749969,1.72233951091766,0.69769334793091
99,1883792651,-0.55344450473785,0.52868598699570,50.38660812377930,-0.09658833593130,-0.10366677492857,9.99948501586914,1.30462265014648,1.75136065483093,0.85199344158173
100,1883800984,-0.55426591634750,0.52812451124191,50.38586807250977,-0.10458396375179,-0.10499758273363,9.98608779907227,1.22314357757568,1.72510576248169,0.72602266073227
101,1883809317,-0.55313444137573,0.52831244468689,50.38668060302734,-0.09974516928196,-0.11335875093937,10.00927257537842,1.45666873455048,1.81547307968140,0.92688941955566
102,1883817650,-0.55300098657608,0.52815055847168,50.38689422607422,-0.11359687894583,-0.09217923134565,10.01129055023193,1.33792126178741,1.77128851413727,0.87289476394653
103,1883825983,-0.55329316854477,0.52746558189392,50.38608932495117,-0.11604265868664,-0.09020388871431,10.00468158721924,1.28781974315643,1.71147906780243,0.73071008920670
104,1883834316,-0.55427163839340,0.52700150012970,50.38687515258789,-0.08442832529545,-0.09084500372410,9.99577331542969,1.20295965671539,1.73658084869385,0.90071177482605
105,1883842649,-0.55486148595810,0.52762794494629,50.38723754882812,-0.09976062178612,-0.08509519696236,10.01863765716553,1.25167787075043,1.86826384067535,0.87361180782318
106,1883850982,-0.55455654859543,0.52781021595001,50.38726806640625,-0.11008723080158,-0.08623362332582,9.98481941223145,1.35764408111572,1.81355202198029,0.83483201265335
107,1883859315,-0.55408328771591,0.52716016769409,50.38718795776367,-0.11156306415796,-0.08064513653517,10.01328086853027,1.38038957118988,1.71557736396790,0.81877189874649
108,1883867648,-0.55474764108658,0.52660220861435,50.38748550415039,-0.09618347883224,-0.09409818798304,10.00645160675049,1.24143230915070,1.72300553321838,0.87917017936707
109,1883875981,-0.55501234531403,0.52565693855286,50.38750076293945,-0.10632224380970,-0.07261275500059,10.03445243835449,1.29104709625244,1.68020415306091,0.82771116495132
110,1883884314,-0.55557048320770,0.52533400058746,50.38734436035156,-0.12837529182434,-0.09687946736813,10.00798511505127,1.25485408306122,1.75348639488220,0.80847489833832
111,1883892647,-0.55569595098495,0.52402740716934,50.38777542114258,-0.13132585585117,-0.09939879179001,10.00748729705811,1.30674874782562,1.63581478595734,0.87835049629211
112,1883900980,-0.55535155534744,0.52521932125092,50.38768768310547,-0.11866363883018,-0.09315484762192,10.02173995971680,1.36151182651520,1.93460476398468,0.82343357801437
113,1883909313,-0.55522680282593,0.52584028244019,50.38791656494141,-0.09680423885584,-0.08895070850849,9.99268245697021,1.33840787410736,1.86800789833069,0.85406833887100
114,1883917646,-0.55484932661057,0.52549088001251,50.38830566406250,-0.11709485203028,-0.07261559367180,10.02337169647217,1.36637854576111,1.75033593177795,0.86966729164124
115,1883925979,-0.55519348382950,0.52488672733307,50.38847351074219,-0.11354273557663,-0.08710867911577,9.98867511749268,1.28180027008057,1.72113561630249,0.84807449579239
116,1883934312,-0.55467593669891,0.52521347999573,50.38797378540039,-0.11482695490122,-0.08342380076647,10.02631187438965,1.38384747505188,1.83045744895935,0.78677970170975
117,1883942645,-0.55384850502014,0.52513933181763,50.38759613037109,-0.10659968852997,-0.11504548043013,10.02706050872803,1.42124426364899,1.78529930114746,0.78273260593414
118,1883950978,-0.55390858650208,0.52416086196899,50.38791656494141,-0.11876092106104,-0.09427446126938,9.98938274383545,1.31402301788330,1.67503023147583,0.83270597457886
119,1883959311,-0.55416011810303,0.52525454759598,50.38779067993164,-0.09818837791681,-0.09656808525324,9.99136638641357,1.29324996471405,1.92469227313995,0.81395643949509
120,1883967644,-0.55379992723465,0.52668541669846,50.38754272460938,-0.09442324936390,-0.08642915636301,10.00678062438965,1.36412465572357,1.96288299560547,0.79884397983551
121,1883975977,-0.55382633209229,0.52737438678741,50.38683700561523,-0.10304594039917,-0.09213148802519,9.99289608001709,1.32047796249390,1.87748515605927,0.74433690309525
122,1883984310,-0.55381423234940,0.52656090259552,50.38635253906250,-0.11557034403086,-0.10175074636936,9.99107170104980,1.32319295406342,1.69416391849518,0.78117007017136
123,1883992643,-0.55414879322052,0.52584755420685,50.38660049438477,-0.10276325792074,-0.09508445858955,10.00944900512695,1.28279948234558,1.70866167545319,0.85727006196976
124,1884000976,-0.55410587787628,0.52521431446075,50.38720703125000,-0.12076275050640,-0.09718610346317,10.01899719238281,1.32562637329102,1.71411752700806,0.90842169523239
125,1884009309,-0.55378711223602,0.52566611766815,50.38742828369141,-0.11361192911863,-0.07766508311033,10.01461696624756,1.36030805110931,1.84836149215698,0.85488790273666
126,1884017642,-0.55433475971222,0.52528053522110,50.38786315917969,-0.12377238273621,-0.09451601654291,10.00739192962646,1.25610911846161,1.74380409717560,0.86846339702606
127,1884025975,-0.55298566818237,0.52605837583542,50.38751983642578,-0.10172255337238,-0.07657478749752,9.96756076812744,1.48484444618225,1.88696229457855,0.78818845748901
128,1884034308,-0.55281233787537,0.52560317516327,50.38797378540039,-0.10874809324741,-0.09774463623762,10.02052116394043,1.34094357490540,1.73699104785919,0.87668555974960
129,1884042641,-0.55143892765045,0.52555721998215,50.38773727416992,-0.10742165148258,-0.10263735800982,10.00347518920898,1.48914778232574,1.78814268112183,0.79940760135651
130,1884050974,-0.55131357908249,0.52501881122589,50.38733673095703,-0.08983375877142,-0.07243756949902,10.01162338256836,1.33541083335876,1.72733426094055,0.81293171644211
131,1884059307,-0.55174660682678,0.52521741390228,50.38759231567383,-0.11568797379732,-0.08808930218220,9.99302291870117,1.27142643928528,1.81700968742371,0.85901176929474
132,1884067640,-0.55090075731277,0.52505475282669,50.38737106323242,-0.11698497086763,-0.09515751898289,10.01250934600830,1.42198717594147,1.77244114875793,0.79838287830353
133,1884075973,-0.55138409137726,0.52458328008652,50.38680648803711,-0.08910037577152,-0.07589348405600,10.02734279632568,1.26604747772217,1.73693966865540,0.75955170392990
134,1884084306,-0.55102759599686,0.52361416816711,50.38752365112305,-0.10789975523949,-0.09106580913067,10.03293132781982,1.36253643035889,1.67495322227478,0.93365156650543
135,1884092639,-0.55069077014923,0.52417713403702,50.38743209838867,-0.09580411016941,-0.11370039731264,10.00087547302246,1.36358666419983,1.86068224906921,0.81831079721451
136,1884100972,-0.55000096559525,0.52512127161026,50.38761901855469,-0.09598834812641,-0.09972793608904,10.00639533996582,1.40344238281250,1.90437996387482,0.80455595254898
137,1884109305,-0.55075669288635,0.52556300163269,50.38731384277344,-0.12956203520298,-0.08887815475464,10.01758956909180,1.23408102989197,1.84702956676483,0.79151827096939
138,1884117638,-0.55043929815292,0.52591079473495,50.38651657104492,-0.11308164149523,-0.08990883082151,9.99764442443848,1.36017990112305,1.83355665206909,0.73327147960663
139,1884125971,-0.55084025859833,0.52703493833542,50.38604736328125,-0.10228323936462,-0.09299679100513,10.00289535522461,1.27516639232635,1.93012249469757,0.77256375551224
140,1884134304,-0.55140936374664,0.52602022886276,50.38611984252930,-0.11492828279734,-0.09175493568182,10.01261520385742,1.25178050994873,1.66983044147491,0.83452451229095
141,1884142637,-0.55141437053680,0.52673846483231,50.38656616210938,-0.11044749617577,-0.09827002137899,10.02676486968994,1.32234776020050,1.87833046913147,0.88165473937988
142,1884150970,-0.55169111490250,0.52664864063263,50.38693237304688,-0.13617005944252,-0.08739914000034,9.98640346527100,1.28779411315918,1.77981805801392,0.86982095241547
143,1884159303,-0.55173259973526,0.52780872583389,50.38694763183594,-0.10740232467651,-0.07839349657297,10.00198554992676,1.31709682941437,1.93393886089325,0.83163022994995
144,1884167636,-0.55233192443848,0.52848094701767,50.38685989379883,-0.12023544311523,-0.11034961044788,10.01827907562256,1.24970567226410,1.87146568298340,0.83278280496597
145,1884175969,-0.55214756727219,0.52906274795532,50.38711166381836,-0.11871146410704,-0.08327236771584,10.01859474182129,1.34478592872620,1.86378145217896,0.85947293043137
146,1884184302,-0.55256396532059,0.52910697460175,50.38715744018555,-0.09419530630112,-0.08792093396187,10.00422000885010,1.27181077003479,1.79731237888336,0.80978119373322
147,1884192635,-0.55292433500290,0.52898627519608,50.38732910156250,-0.09809231758118,-0.08205547928810,9.96696090698242,1.27977681159973,1.77797365188599,0.84797197580338
148,1884200968,-0.55261224508286,0.52954500913620,50.38811874389648,-0.09289675951004,-0.09021665155888,10.02646636962891,1.35669636726379,1.85794126987457,0.90534800291061
149,1884209301,-0.55189031362534,0.52892559766769,50.38784790039062,-0.08983862400055,-0.08494730293751,10.02668857574463,1.40984606742859,1.71954774856567,0.79482263326645
150,1884217634,-0.55204707384109,0.52860230207443,50.38853454589844,-0.10870946198702,-0.12046968191862,9.98938560485840,1.30167698860168,1.75174462795258,0.89848333597183
151,1884225967,-0.55170607566833,0.52933394908905,50.38891601562500,-0.11157330870628,-0.10208125412464,9.99061393737793,1.36479043960571,1.88150644302368,0.87450844049454
152,1884234300,-0.55162721872330,0.52899765968323,50.38932418823242,-0.10843479633331,-0.08850988745689,9.99019813537598,1.32951974868774,1.75025928020477,0.87666004896164
153,1884242633,-0.55076932907104,0.52957630157471,50.38987350463867,-0.10165377706289,-0.11353164911270,10.02212524414062,1.42575252056122,1.86255204677582,0.89394968748093
154,1884250966,-0.55063205957413,0.52888250350952,50.39086151123047,-0.11578359454870,-0.07351228594780,9.98122787475586,1.33658921718597,1.70699667930603,0.94786763191223
155,1884259299,-0.55039012432098,0.52842777967453,50.39075851440430,-0.10492130368948,-0.07990135252476,10.00491142272949,1.35131728649139,1.73842525482178,0.81464791297913
156,1884267632,-0.55102896690369,0.52870631217957,50.39058303833008,-0.11004891246557,-0.08621683716774,9.99169921875000,1.24460840225220,1.82587218284607,0.81177908182144
157,1884275965,-0.55150294303894,0.52870094776154,50.39090728759766,-0.10503612458706,-0.09800555557013,10.01367664337158,1.26699531078339,1.79277873039246,0.86713159084320
158,1884284298,-0.55159658193588,0.52848309278488,50.39197540283203,-0.10609166324139,-0.09417395293713,9.99285316467285,1.30728662014008,1.76416778564453,0.91989696025848
159,1884292631,-0.55151450634003,0.52882915735245,50.39229583740234,-0.12028969824314,-0.07502881437540,10.00617408752441,1.33318245410919,1.83593845367432,0.86631178855896
160,1884300964,-0.55077421665192,0.52936023473740,50.39225006103516,-0.09764748811722,-0.10378183424473,9.99225616455078,1.40976905822754,1.85394561290741,0.82766002416611
161,1884309297,-0.55049306154251,0.52958542108536,50.39194107055664,-0.10257004946470,-0.07390239834785,9.98856639862061,1.35692691802979,1.82115936279297,0.79105722904205
162,1884317630,-0.55072563886642,0.52988809347153,50.39240264892578,-0.11165211349726,-0.10052078217268,9.98622226715088,1.29273760318756,1.82730662822723,0.88267928361893
163,1884325963,-0.55091267824173,0.52928346395493,50.39215850830078,-0.11016543209553,-0.09900898486376,10.01644325256348,1.30157458782196,1.72236514091492,0.79472005367279
164,1884334296,-0.55209797620773,0.52924054861069,50.39183044433594,-0.11918922513723,-0.09839788824320,10.02018928527832,1.17877995967865,1.78670823574066,0.80219942331314
165,1884342629,-0.55182832479477,0.52999752759933,50.39196014404297,-0.09887520223856,-0.09449289739132,10.02692317962646,1.35528767108917,1.88363242149353,0.84459096193314
166,1884350962,-0.55148595571518,0.52943122386932,50.39200210571289,-0.09939891844988,-0.10334500670433,9.99062252044678,1.36151182651520,1.72413253784180,0.83726525306702
167,1884359295,-0.55274569988251,0.52879840135574,50.39167022705078,-0.11902691423893,-0.08782386779785,9.98639869689941,1.17252993583679,1.71644818782806,0.78844457864761
168,1884367628,-0.55282050371170,0.52904605865479,50.39172744750977,-0.11220473796129,-0.08989431709051,10.02153396606445,1.31243503093719,1.82205569744110,0.85901176929474
169,1884375961,-0.55188387632370,0.52884453535080,50.39199447631836,-0.11910057812929,-0.09961284697056,9.99966144561768,1.43402588367462,1.76875269412994,0.86090731620789
170,1884384294,-0.55139434337616,0.52877235412598,50.39210128784180,-0.11828687787056,-0.08041744679213,10.01373004913330,1.38018465042114,1.78307104110718,0.82648169994354
171,1884392627,-0.55234259366989,0.52870112657547,50.39239883422852,-0.09749472141266,-0.09419389069080,9.98732948303223,1.20915842056274,1.78422367572784,0.86375039815903
172,1884400960,-0.55236464738846,0.52927672863007,50.39168167114258,-0.12011303007603,-0.08689619600773,10.02173328399658,1.31909465789795,1.86101531982422,0.74221092462540
173,1884409293,-0.55246347188950,0.53067803382874,50.39219284057617,-0.10326796770096,-0.10550636798143,9.98606681823730,1.31102621555328,1.96144855022430,0.89102965593338
174,1884417626,-0.55253458023071,0.53008544445038,50.39336776733398,-0.10566634684801,-0.09104543924332,10.02041912078857,1.31120526790619,1.71893286705017,0.91956382989883
175,1884425959,-0.55281317234039,0.52985638380051,50.39437866210938,-0.08733045309782,-0.08031887561083,10.01525688171387,1.28835773468018,1.76529479026794,0.94932770729065
176,1884434292,-0.55283099412918,0.53000617027283,50.39430236816406,-0.11089807748795,-0.09097900241613,9.98943901062012,1.31868493556976,1.81091344356537,0.81618481874466
177,1884442625,-0.55314707756042,0.52951794862747,50.39413833618164,-0.10872965306044,-0.07708910852671,10.00876712799072,1.28530955314636,1.73504436016083,0.80783456563950
178,1884450958,-0.55357909202576,0.53027087450027,50.39420700073242,-0.09556298702955,-0.07238496840000,10.02330875396729,1.26917266845703,1.88178825378418,0.83908396959305
179,1884459291,-0.55445152521133,0.53085571527481,50.39421081542969,-0.08040586113930,-0.08618748933077,10.01701736450195,1.21922469139099,1.86326897144318,0.82978600263596
180,1884467624,-0.55398589372635,0.53247219324112,50.39485931396484,-0.09531233459711,-0.09545803070068,10.01197910308838,1.37531793117523,1.98496246337891,0.90122413635254
181,1884475957,-0.55409026145935,0.53284877538681,50.39472579956055,-0.11957928538322,-0.08433547616005,10.00496673583984,1.31094932556152,1.83809018135071,0.81188154220581
182,1884484290,-0.55359625816345,0.53393107652664,50.39472579956055,-0.11032982170582,-0.09652595967054,10.05073356628418,1.38069677352905,1.92125964164734,0.83247554302216
183,1884492623,-0.55422228574753,0.53368335962296,50.39438247680664,-0.11186372488737,-0.10256453603506,10.00111579895020,1.24755418300629,1.76532042026520,0.78677970170975
184,1884500956,-0.55400556325912,0.53395867347717,50.39377212524414,-0.10824227333069,-0.08975087106228,9.99001312255859,1.34826910495758,1.82395124435425,0.76767140626907
185,1884509289,-0.55410677194595,0.53358387947083,50.39419174194336,-0.11382038891315,-0.08195327222347,10.01106357574463,1.31046283245087,1.74810743331909,0.87842732667923
186,1884517622,-0.55335742235184,0.53273040056229,50.39421844482422,-0.11944582313299,-0.09806980192661,10.01436138153076,1.41061449050903,1.68873369693756,0.82952982187271
187,1884525955,-0.55363899469376,0.53221309185028,50.39418411254883,-0.12523031234741,-0.07747568190098,10.00555992126465,1.28881859779358,1.73232901096344,0.82148694992065
188,1884534288,-0.55364668369293,0.53112614154816,50.39479827880859,-0.11317055672407,-0.06039484962821,9.98874473571777,1.31973505020142,1.66019928455353,0.89725381135941
189,1884542621,-0.55304753780365,0.53162199258804,50.39434051513672,-0.10565503686666,-0.09034492820501,9.99414062500000,1.39619350433350,1.85399663448334,0.77346026897430
190,1884550954,-0.55326694250107,0.53296005725861,50.39469528198242,-0.09694707393646,-0.08756878972054,10.01158046722412,1.29488921165466,1.95094668865204,0.87878596782684
191,1884559287,-0.55301249027252,0.53296118974686,50.39525222778320,-0.08478068560362,-0.10512983053923,10.00174140930176,1.35254669189453,1.79285550117493,0.89464116096497
192,1884567620,-0.55339187383652,0.53252869844437,50.39538192749023,-0.09093023836613,-0.09751584380865,9.98663997650146,1.27483332157135,1.73932182788849,0.84397619962692
193,1884575953,-0.55364340543747,0.53276985883713,50.39544296264648,-0.08896793425083,-0.07391800731421,9.99857425689697,1.29276323318481,1.82308042049408,0.83414041996002
194,1884584286,-0.55382198095322,0.53368300199509,50.39481353759766,-0.11530046164989,-0.10499721020460,10.00661373138428,1.30042183399200,1.90107560157776,0.74992066621780
195,1884592619,-0.55482703447342,0.53330707550049,50.39381408691406,-0.11448952555656,-0.09650772064924,10.01329421997070,1.20377957820892,1.74972140789032,0.70655584335327
196,1884600952,-0.55500066280365,0.53339171409607,50.39397811889648,-0.12900435924530,-0.11432518064976,10.00234413146973,1.29967904090881,1.80002748966217,0.85207033157349
197,1884609285,-0.55527174472809,0.53394436836243,50.39411544799805,-0.10674365609884,-0.09306975454092,10.00028991699219,1.29030418395996,1.86152732372284,0.84502637386322
198,1884617618,-0.55550241470337,0.53334462642670,50.39439392089844,-0.13023659586906,-0.11128015816212,10.02192687988281,1.29330110549927,1.71770334243774,0.86423707008362
199,1884625951,-0.55507397651672,0.53353506326675,50.39464187622070,-0.10370010882616,-0.09845848381519,10.01629257202148,1.37431907653809,1.81606197357178,0.85803842544556
200,1884634284,-0.55465954542160,0.53314542770386,50.39493179321289,-0.12102910876274,-0.09635704755783,10.00876712799072,1.37139904499054,1.74477779865265,0.86100965738297
201,1884642617,-0.55481398105621,0.53405290842056,50.39479064941406,-0.10745700448751,-0.09092234075069,9.99285888671875,1.30323934555054,1.90327858924866,0.81095951795578
202,1884650950,-0.55475288629532,0.53264796733856,50.39463043212891,-0.09296734631062,-0.08071105927229,9.97488021850586,1.32954537868500,1.62259781360626,0.80783462524414
203,1884659283,-0.55439782142639,0.53237515687943,50.39529418945312,-0.10830187052488,-0.09293588250875,9.99479198455811,1.36527729034424,1.76012063026428,0.90675669908524
204,1884667616,-0.55413728952408,0.53363519906998,50.39423751831055,-0.11165928095579,-0.07927938550711,10.02342987060547,1.35262382030487,1.94349300861359,0.72666311264038
205,1884675949,-0.55444121360779,0.53237330913544,50.39401245117188,-0.09364119917154,-0.07514235377312,10.00991821289062,1.28620612621307,1.64229524135590,0.79833173751831
206,1884684282,-0.55392003059387,0.53292167186737,50.39423751831055,-0.09300567954779,-0.07627609372139,10.00507831573486,1.38430857658386,1.85625100135803,0.84751093387604
207,1884692615,-0.55410158634186,0.53263980150223,50.39503860473633,-0.08809874206781,-0.09339541196823,9.99896430969238,1.30062687397003,1.76012063026428,0.92314994335175
208,1884700948,-0.55452853441238,0.53280979394913,50.39463043212891,-0.11430661380291,-0.11440152674913,9.96500873565674,1.26963365077972,1.81083667278290,0.76792752742767
209,1884709281,-0.55510443449020,0.53163856267929,50.39518356323242,-0.09945427626371,-0.09124115854502,10.02406978607178,1.25326597690582,1.65389835834503,0.89159303903580
210,1884717614,-0.55501437187195,0.53335970640182,50.39467620849609,-0.09543630480766,-0.09980192035437,10.00489902496338,1.33264458179474,1.99751341342926,0.75435203313828
211,1884725947,-0.55560219287872,0.53314405679703,50.39453125000000,-0.10507912188768,-0.10048888623714,10.01778030395508,1.25195968151093,1.76829147338867,0.81057524681091
212,1884734280,-0.55599439144135,0.53336435556412,50.39430618286133,-0.10599211603403,-0.09175948798656,10.01461982727051,1.27508938312531,1.81757330894470,0.81610792875290
213,1884742613,-0.55559408664703,0.53323513269424,50.39477920532227,-0.11556698381901,-0.10773772001266,9.98769664764404,1.37004137039185,1.77748715877533,0.88367825746536
214,1884750946,-0.55575329065323,0.53319752216339,50.39468002319336,-0.12380237877369,-0.09830763936043,10.02018928527832,1.30275273323059,1.78681063652039,0.80353128910065
215,1884759279,-0.55637007951736,0.53333145380020,50.39458465576172,-0.09820385277271,-0.11436112225056,9.99251937866211,1.24929583072662,1.81081104278564,0.81475043296814
216,1884767612,-0.55650436878204,0.53359198570251,50.39450073242188,-0.10671386867762,-0.07937895506620,9.97587013244629,1.30469954013824,1.82279860973358,0.82847970724106
217,1884775945,-0.55590951442719,0.53329229354858,50.39455032348633,-0.13568420708179,-0.09741170704365,9.97878170013428,1.39463102817535,1.75702118873596,0.83262914419174
218,1884784278,-0.55647158622742,0.53263121843338,50.39437484741211,-0.10133536159992,-0.07706573605537,10.02242946624756,1.25352239608765,1.71142804622650,0.77832698822021
219,1884792611,-0.55609804391861,0.53277277946472,50.39452743530273,-0.08923327177763,-0.08680647611618,9.98249053955078,1.36817169189453,1.81127226352692,0.84669137001038
220,1884800944,-0.55588221549988,0.53255259990692,50.39456558227539,-0.10407595336437,-0.07630832493305,10.02011108398438,1.34721910953522,1.76519203186035,0.82399708032608
221,1884809277,-0.55606234073639,0.53301036357880,50.39446640014648,-0.09695166349411,-0.08808716386557,10.01760864257812,1.30170273780823,1.84907889366150,0.81728625297546
222,1884817610,-0.55631589889526,0.53340876102448,50.39498901367188,-0.08641132712364,-0.08917409926653,9.99260425567627,1.29027867317200,1.83803915977478,0.89776617288589
223,1884825943,-0.55635344982147,0.53305602073669,50.39481735229492,-0.10586235672235,-0.10516467690468,10.01136684417725,1.31837737560272,1.75159096717834,0.80614399909973
224,1884834276,-0.55681353807449,0.53324073553085,50.39443588256836,-0.09913533180952,-0.10081403702497,10.00580024719238,1.26497173309326,1.81398725509644,0.80550366640091
225,1884842609,-0.55680757761002,0.53255295753479,50.39414215087891,-0.11311516910791,-0.12030266225338,10.02301979064941,1.32470405101776,1.71158146858215,0.79318314790726
226,1884850942,-0.55668061971664,0.53299325704575,50.39413452148438,-0.10212542116642,-0.11988139152527,9.98883628845215,1.33705043792725,1.84451973438263,0.82876145839691
227,1884859275,-0.55660033226013,0.53189563751221,50.39442443847656,-0.12883499264717,-0.09308695793152,10.02051925659180,1.33141529560089,1.66201817989349,0.86159890890121
228,1884867608,-0.55659973621368,0.53110188245773,50.39467239379883,-0.10328885912895,-0.07692511379719,10.01230812072754,1.32157921791077,1.69475293159485,0.85816645622253
229,1884875941,-0.55640166997910,0.53136432170868,50.39468383789062,-0.13837431371212,-0.08990705758333,10.01663208007812,1.34591293334961,1.82520651817322,0.82991409301758
230,1884884274,-0.55692797899246,0.53068286180496,50.39517593383789,-0.11299335956573,-0.09275502711535,10.00190734863281,1.25751793384552,1.70722711086273,0.88869875669479
231,1884892607,-0.55671799182892,0.53070825338364,50.39474868774414,-0.12147700786591,-0.08758897334337,10.00594806671143,1.34796202182770,1.79800415039062,0.77655959129333
232,1884900940,-0.55744719505310,0.52989065647125,50.39547729492188,-0.11151026189327,-0.08865489810705,10.01557636260986,1.23431158065796,1.69180738925934,0.91697680950165
233,1884909273,-0.55780392885208,0.52936226129532,50.39558029174805,-0.09311384707689,-0.09547431021929,10.00153160095215,1.27944374084473,1.73063850402832,0.83862286806107
234,1884917606,-0.55788654088974,0.52829700708389,50.39559936523438,-0.09544351696968,-0.11674665659666,10.02420043945312,1.31141018867493,1.66337549686432,0.83339756727219
235,1884925939,-0.55810558795929,0.52825206518173,50.39560317993164,-0.08727299422026,-0.09734804183245,10.01724720001221,1.29652845859528,1.78942322731018,0.82986277341843
236,1884934272,-0.55801373720169,0.52904564142227,50.39567184448242,-0.09397190809250,-0.08838090300560,10.00192356109619,1.33267009258270,1.88575828075409,0.81933534145355
237,1884942605,-0.55788105726242,0.52955126762390,50.39579391479492,-0.09655236452818,-0.09750948101282,9.99058723449707,1.33876657485962,1.85499572753906,0.84249067306519
238,1884950938,-0.55865150690079,0.52960640192032,50.39664077758789,-0.09993076324463,-0.10585191845894,9.99649620056152,1.22701156139374,1.79628789424896,0.93126952648163
239,1884959271,-0.55814886093140,0.52990311384201,50.39647674560547,-0.11328309774399,-0.08824072033167,9.97733783721924,1.38315594196320,1.82961201667786,0.80944824218750
240,1884967604,-0.55864286422729,0.53074854612350,50.39587020874023,-0.10257954150438,-0.10105212777853,9.99052810668945,1.26297378540039,1.89252078533173,0.75870645046234
241,1884975937,-0.55920708179474,0.53083425760269,50.39599609375000,-0.11554722487926,-0.09729170799255,10.03352355957031,1.25487971305847,1.80448436737061,0.84331023693085
242,1884984270,-0.55890774726868,0.53028988838196,50.39560317993164,-0.10983148217201,-0.09769266098738,9.99802589416504,1.35743927955627,1.72630977630615,0.77889049053192
243,1884992603,-0.55927330255508,0.53048419952393,50.39609909057617,-0.13533572852612,-0.08716247975826,9.99806976318359,1.27982819080353,1.81626701354980,0.88713622093201
244,1885000936,-0.55904603004456,0.52975827455521,50.39566040039062,-0.10763657093048,-0.10446824878454,9.99789810180664,1.34814119338989,1.70382034778595,0.77904415130615
245,1885009269,-0.55906641483307,0.52955853939056,50.39519119262695,-0.13549789786339,-0.08942010998726,10.01899909973145,1.32252693176270,1.77113461494446,0.77074515819550
246,1885017602,-0.55908221006393,0.52964335680008,50.39509963989258,-0.12076489627361,-0.10959798842669,9.98996353149414,1.31865930557251,1.80066800117493,0.81480169296265
247,1885025935,-0.55943810939789,0.52908664941788,50.39476776123047,-0.10350324958563,-0.11043673753738,9.97877788543701,1.28072464466095,1.72789800167084,0.78821408748627
248,1885034268,-0.55982786417007,0.52894556522369,50.39432144165039,-0.11063311249018,-0.09925422817469,10.02498340606689,1.27457726001740,1.77451574802399,0.78370589017868
249,1885042601,-0.55974006652832,0.52813106775284,50.39456176757812,-0.09202820062637,-0.10859288275242,10.03103160858154,1.33366918563843,1.69513738155365,0.85514402389526
250,1885050934,-0.55940568447113,0.52799659967422,50.39521789550781,-0.09011697769165,-0.09127119928598,10.01294708251953,1.36007750034332,1.77564287185669,0.90496379137039
251,1885059267,-0.55953204631805,0.52710676193237,50.39569854736328,-0.07987544685602,-0.07051735371351,10.00660991668701,1.30746579170227,1.68583905696869,0.88331955671310
252,1885067600,-0.55876952409744,0.52748537063599,50.39607238769531,-0.09816183149815,-0.08760890364647,9.97602367401123,1.41233050823212,1.83660483360291,0.86254650354385
253,1885075933,-0.55870372056961,0.52749454975128,50.39562225341797,-0.09598891437054,-0.09710605442524,10.00740337371826,1.33174812793732,1.79605734348297,0.77461296319962
254,1885084266,-0.55888283252716,0.52828913927078,50.39543914794922,-0.10900995880365,-0.08959069103003,10.01709270477295,1.29952526092529,1.88655221462250,0.84999555349350
255,1885092599,-0.55898016691208,0.52922946214676,50.39481353759766,-0.10457719862461,-0.07955241948366,9.96584796905518,1.31120526790619,1.90658271312714,0.75389093160629
256,1885100932,-0.55880725383759,0.52847677469254,50.39535522460938,-0.12826105952263,-0.07889836281538,9.98315048217773,1.34127664566040,1.69997823238373,0.90155702829361
257,1885109265,-0.55923193693161,0.52893131971359,50.39517211914062,-0.11609247326851,-0.08499404042959,10.02125263214111,1.27327084541321,1.84936058521271,0.80586230754852
258,1885117598,-0.55907386541367,0.52967244386673,50.39590835571289,-0.12354062497616,-0.09971593320370,10.02711296081543,1.33884334564209,1.87863779067993,0.90616762638092
259,1885125931,-0.55926501750946,0.52914112806320,50.39573287963867,-0.10837277024984,-0.09334602206945,10.01454734802246,1.29990947246552,1.73053598403931,0.80519616603851
260,1885134264,-0.55873882770538,0.52980667352676,50.39555740356445,-0.11890741437674,-0.10120584070683,10.02398109436035,1.38489782810211,1.87067162990570,0.80729675292969
261,1885142597,-0.55846053361893,0.52983367443085,50.39549636840820,-0.11213756352663,-0.10102991014719,10.01559734344482,1.35664510726929,1.79621112346649,0.82107698917389
262,1885150930,-0.55854958295822,0.52957916259766,50.39593505859375,-0.11335299909115,-0.08428874611855,10.03551769256592,1.30977106094360,1.76058161258698,0.87297147512436
263,1885159263,-0.55946213006973,0.52965217828751,50.39585113525391,-0.10063840448856,-0.10289286822081,10.01557826995850,1.21463978290558,1.80279386043549,0.81733745336533
264,1885167596,-0.55911368131638,0.53001654148102,50.39587020874023,-0.09197997301817,-0.09112320095301,9.98954296112061,1.36230576038361,1.83422255516052,0.83360242843628
265,1885175929,-0.55915343761444,0.52987366914749,50.39546966552734,-0.09268373996019,-0.09838145226240,9.98955154418945,1.31819808483124,1.77728199958801,0.77968448400497
266,1885184262,-0.55898571014404,0.52913343906403,50.39542770385742,-0.09364887326956,-0.07869552075863,10.01905441284180,1.34276223182678,1.70274484157562,0.80186653137207
267,1885192595,-0.55827933549881,0.53014993667603,50.39612960815430,-0.09343237429857,-0.11023906618357,9.99916553497314,1.40556836128235,1.91498422622681,0.91346758604050
268,1885200928,-0.55868154764175,0.53027379512787,50.39618301391602,-0.12372701615095,-0.09240729361773,10.01166248321533,1.27342438697815,1.80645656585693,0.83183503150940
269,1885209261,-0.55817157030106,0.53132903575897,50.39583969116211,-0.12047540396452,-0.10259591788054,10.02992630004883,1.38469278812408,1.92054271697998,0.78821408748627
270,1885217594,-0.55879783630371,0.53070294857025,50.39590072631836,-0.12991189956665,-0.08360312879086,9.99963760375977,1.24658083915710,1.71478331089020,0.83106666803360
271,1885225927,-0.55857396125793,0.53100997209549,50.39578628540039,-0.10588837414980,-0.09190401434898,10.01133632659912,1.34873032569885,1.83089280128479,0.81562125682831
272,1885234260,-0.55817657709122,0.53095918893814,50.39635467529297,-0.11726132035255,-0.09873879700899,9.98446273803711,1.36899137496948,1.78473603725433,0.86457014083862
273,1885242593,-0.55787968635559,0.53189820051193,50.39609909057617,-0.12538757920265,-0.09366660565138,9.98184776306152,1.36000049114227,1.90689003467560,0.79889518022537
274,1885250926,-0.55837255716324,0.53199458122253,50.39525985717773,-0.10880182683468,-0.09739105403423,10.01474666595459,1.26179563999176,1.80420243740082,0.73365563154221
275,1885259259,-0.55747467279434,0.53206509351730,50.39511871337891,-0.09613063186407,-0.10017044097185,10.01309871673584,1.43100345134735,1.80182075500488,0.81006300449371
276,1885267592,-0.55727255344391,0.53226631879807,50.39515304565430,-0.09810641407967,-0.10767098516226,10.01814079284668,1.34532356262207,1.81501197814941,0.82996529340744
277,1885275925,-0.55739790201187,0.53296518325806,50.39497756958008,-0.10673996806145,-0.10920690000057,10.01372623443604,1.30897700786591,1.87689614295959,0.80768090486526
278,1885284258,-0.55764758586884,0.53350669145584,50.39512634277344,-0.10304001718760,-0.09441824257374,10.00399684906006,1.29114961624146,1.85655832290649,0.84341281652451
279,1885292591,-0.55870825052261,0.53261703252792,50.39543151855469,-0.09904330223799,-0.08588634431362,10.01549339294434,1.19627428054810,1.68676137924194,0.86218792200089
280,1885300924,-0.55821675062180,0.53292930126190,50.39531326293945,-0.10086799412966,-0.10164097696543,10.02545070648193,1.37923693656921,1.82758831977844,0.80944830179214
281,1885309257,-0.55828446149826,0.53243058919907,50.39530944824219,-0.10589744150639,-0.12312618643045,10.03033733367920,1.31535506248474,1.73404526710510,0.82632797956467
282,1885317590,-0.55892407894135,0.53256720304489,50.39532470703125,-0.09656593948603,-0.10440471023321,10.01020145416260,1.24337887763977,1.80730199813843,0.84769022464752
283,1885325923,-0.55955922603607,0.53169435262680,50.39500808715820,-0.09385199099779,-0.09610888361931,9.97975254058838,1.24668312072754,1.68929719924927,0.78849577903748
284,1885334256,-0.55988979339600,0.53185427188873,50.39505386352539,-0.10187005996704,-0.07729316502810,10.01934528350830,1.28156960010529,1.81022191047668,0.83050304651260
285,1885342589,-0.55988234281540,0.53151446580887,50.39543914794922,-0.11400111764669,-0.09984717518091,10.00889682769775,1.32334661483765,1.75271797180176,0.87256169319153
286,1885350922,-0.55975997447968,0.53117763996124,50.39529418945312,-0.10597617924213,-0.07893829792738,10.02067661285400,1.33674299716949,1.75084817409515,0.81382822990417
287,1885359255,-0.55940890312195,0.53188705444336,50.39628219604492,-0.09363161027431,-0.09525913000107,10.00892734527588,1.36479043960571,1.87738275527954,0.94745779037476
288,1885367588,-0.55874276161194,0.53115653991699,50.39683914184570,-0.10669519007206,-0.11577760428190,10.02385044097900,1.40044558048248,1.70292413234711,0.90066057443619
289,1885375921,-0.55877816677094,0.53129756450653,50.39749908447266,-0.10991146415472,-0.09222273528576,10.03813743591309,1.31835186481476,1.81009411811829,0.90790939331055
290,1885384254,-0.55881553888321,0.53138470649719,50.39753341674805,-0.09586024284363,-0.09386976063251,9.99277591705322,1.31527817249298,1.80200004577637,0.83339756727219
291,1885392587,-0.55909174680710,0.53251254558563,50.39801406860352,-0.10406752675772,-0.10135731101036,10.01362323760986,1.28943347930908,1.92850840091705,0.88823759555817
292,1885400920,-0.55950629711151,0.53326165676117,50.39793395996094,-0.09459171444178,-0.11986372619867,10.01456642150879,1.27288675308228,1.88066124916077,0.83462697267532
293,1885409253,-0.56012821197510,0.53287434577942,50.39760589599609,-0.10333458334208,-0.09708575159311,10.02739238739014,1.24847614765167,1.74756956100464,0.78816282749176
294,1885417586,-0.55997300148010,0.53341215848923,50.39727020263672,-0.09943240880966,-0.10974179953337,9.99083900451660,1.34014964103699,1.85668647289276,0.78759938478470
295,1885425919,-0.55931943655014,0.53350365161896,50.39726638793945,-0.08941756933928,-0.09769544005394,10.00678348541260,1.40141892433167,1.80435645580292,0.82837712764740
296,1885434252,-0.55929493904114,0.53350985050201,50.39800643920898,-0.11222003400326,-0.10037727653980,10.00116443634033,1.32373094558716,1.79111409187317,0.91623401641846
297,1885442585,-0.56051445007324,0.53305745124817,50.39768600463867,-0.09677394479513,-0.10331555455923,10.02591609954834,1.17662823200226,1.74052560329437,0.78957158327103
298,1885450918,-0.56220746040344,0.53302335739136,50.39760589599609,-0.10162794589996,-0.10350731760263,9.99568557739258,1.11820220947266,1.78609335422516,0.81948900222778
299,1885459251,-0.56200850009918,0.53183132410049,50.39744186401367,-0.11248426139355,-0.10247537493706,9.98937034606934,1.34773147106171,1.65113210678101,0.80791139602661
300,1885467584,-0.56189626455307,0.53216677904129,50.39770889282227,-0.10586042702198,-0.10207493603230,10.01318836212158,1.33336174488068,1.83173787593842,0.87929821014404
301,1885475917,-0.56199705600739,0.53189957141876,50.39802551269531,-0.11440857499838,-0.10598588734865,9.98180866241455,1.31112873554230,1.76114535331726,0.86446768045425
302,1885484250,-0.56140887737274,0.53266364336014,50.39772033691406,-0.09413931518793,-0.08167718350887,10.00775241851807,1.39130115509033,1.88312005996704,0.79694843292236
303,1885492583,-0.56069403886795,0.53336834907532,50.39712142944336,-0.10386499762535,-0.11819732189178,10.00946521759033,1.40976893901825,1.87940597534180,0.75586318969727
304,1885500916,-0.56038177013397,0.53279840946198,50.39704895019531,-0.11420573294163,-0.09223787486553,9.99642944335938,1.35879683494568,1.72254443168640,0.82284456491470
305,1885509249,-0.56072592735291,0.53248739242554,50.39652252197266,-0.09429987519979,-0.09058834612370,10.02395439147949,1.28254330158234,1.75686764717102,0.76459777355194
306,1885517582,-0.56143826246262,0.53209650516510,50.39723968505859,-0.10358882695436,-0.08614772558212,10.00075721740723,1.23451650142670,1.74390661716461,0.90919017791748
307,1885525915,-0.56204181909561,0.53134274482727,50.39746856689453,-0.10745488107204,-0.09301097691059,10.04699325561523,1.24973130226135,1.70205307006836,0.85478544235229
308,1885534248,-0.56207257509232,0.53144901990891,50.39772796630859,-0.10477833449841,-0.10859050601721,10.00999355316162,1.31783962249756,1.80361366271973,0.84108185768127
309,1885542581,-0.56240636110306,0.53072571754456,50.39739227294922,-0.09952490031719,-0.07584713399410,10.02963829040527,1.28282511234283,1.70709931850433,0.78718954324722
310,1885550914,-0.56241697072983,0.53119373321533,50.39772796630859,-0.13460823893547,-0.11274990439415,9.99486064910889,1.32050359249115,1.84677362442017,0.87030774354935
311,1885559247,-0.56223773956299,0.53067225217819,50.39764022827148,-0.11632809787989,-0.08806702494621,10.01095676422119,1.34452974796295,1.73153531551361,0.81772172451019
312,1885567580,-0.56237953901291,0.53056871891022,50.39745330810547,-0.10297410935163,-0.09216542541981,10.03514766693115,1.30441784858704,1.77907502651215,0.80524748563766
313,1885575913,-0.56265306472778,0.53082704544067,50.39744567871094,-0.11268439888954,-0.07353248447180,10.05408573150635,1.28971529006958,1.82471990585327,0.82671231031418
314,1885584246,-0.56292653083801,0.53010344505310,50.39785766601562,-0.11464189738035,-0.09841700643301,10.02891731262207,1.28869068622589,1.70430707931519,0.87783825397491
315,1885592579,-0.56328594684601,0.52902561426163,50.39784622192383,-0.12448202073574,-0.08437310159206,10.00057506561279,1.27972555160522,1.66399037837982,0.82589256763458
316,1885600912,-0.56310504674911,0.52995777130127,50.39756393432617,-0.11932247132063,-0.08682039380074,10.02392196655273,1.34371006488800,1.90307366847992,0.79951000213623
317,1885609245,-0.56368559598923,0.53006988763809,50.39852142333984,-0.11032669246197,-0.09473962336779,9.96624946594238,1.25093543529510,1.80607259273529,0.94499886035919
318,1885617578,-0.56451898813248,0.52958601713181,50.39852905273438,-0.09041424840689,-0.10759810358286,10.03493690490723,1.22060799598694,1.73235487937927,0.82968354225159
319,1885625911,-0.56470489501953,0.52890640497208,50.39899444580078,-0.09158675372601,-0.10080230981112,10.03683853149414,1.30065250396729,1.71170973777771,0.88201344013214
320,1885634244,-0.56467515230179,0.52950787544250,50.39899826049805,-0.09428068250418,-0.07667584717274,10.01220893859863,1.32534468173981,1.86349976062775,0.79735839366913
321,1885642577,-0.56493502855301,0.52922272682190,50.39880371093750,-0.10302837938070,-0.11093316227198,10.03186607360840,1.29173886775970,1.76006948947906,0.80414617061615
322,1885650910,-0.56420099735260,0.52899068593979,50.39926147460938,-0.09718537330627,-0.10075092315674,9.98880004882812,1.40987145900726,1.76163196563721,0.87601959705353
323,1885659243,-0.56402713060379,0.52984213829041,50.39959335327148,-0.10474253445864,-0.09518269449472,10.00908279418945,1.34291601181030,1.89577364921570,0.86884772777557
324,1885667576,-0.56348615884781,0.53101122379303,50.39934921264648,-0.09945254772902,-0.08113970607519,10.02657890319824,1.38745915889740,1.93278622627258,0.79769134521484
325,1885675909,-0.56338274478912,0.53211206197739,50.39959335327148,-0.10271392017603,-0.08178824186325,10.00215053558350,1.33395099639893,1.92487132549286,0.86011326313019
326,1885684242,-0.56381011009216,0.53242462873459,50.39919281005859,-0.11522299796343,-0.09166654944420,10.01511764526367,1.27188766002655,1.82953512668610,0.78775292634964
327,1885692575,-0.56397151947021,0.53292095661163,50.39905548095703,-0.12121269106865,-0.10121611505747,10.04194831848145,1.30272734165192,1.85294663906097,0.80929458141327
328,1885700908,-0.56383657455444,0.53271085023880,50.39853668212891,-0.11602684110403,-0.09238243103027,10.00809574127197,1.33822846412659,1.76660096645355,0.76436716318130
329,1885709241,-0.56366670131683,0.53238058090210,50.39873123168945,-0.09941145777702,-0.08503809571266,10.00554466247559,1.34422230720520,1.75443434715271,0.84917598962784
330,1885717574,-0.56317847967148,0.53246301412582,50.39879226684570,-0.09865805506706,-0.10571365803480,9.96923637390137,1.37972366809845,1.80007886886597,0.83536988496780
331,1885725907,-0.56293416023254,0.53281241655350,50.39857864379883,-0.08756709843874,-0.07685846090317,10.04268741607666,1.35272634029388,1.83558022975922,0.80417180061340
332,1885734240,-0.56308317184448,0.53200286626816,50.39823532104492,-0.09047015011311,-0.10885364562273,9.99286365509033,1.30300891399384,1.69408702850342,0.78339850902557
333,1885742573,-0.56288075447083,0.53287291526794,50.39779281616211,-0.10726892948151,-0.10999464243650,10.01565742492676,1.34816682338715,1.89828395843506,0.77566307783127
334,1885750906,-0.56311219930649,0.53315603733063,50.39790344238281,-0.10392028093338,-0.09749355912209,10.04735755920410,1.29504299163818,1.82892036437988,0.84208077192307
335,1885759239,-0.55513554811478,0.53228414058685,50.38641357421875,-0.11558085680008,-0.08949712663889,9.98995399475098,1.26243591308594,1.77748692035675,0.77584224939346
336,1885767572,-0.55450397729874,0.53190386295319,50.38578796386719,-0.11467800289392,-0.10150041431189,9.97824668884277,1.39773023128510,1.74636566638947,0.74218517541885
337,1885775905,-0.55534917116165,0.53222519159317,50.38613510131836,-0.10810077190399,-0.08080070465803,9.99497509002686,1.21960890293121,1.83102095127106,0.87148588895798
338,1885784238,-0.55606132745743,0.53220659494400,50.38578033447266,-0.10877626389265,-0.10701955854893,9.99308872222900,1.23587393760681,1.78952574729919,0.78759932518005
339,1885792571,-0.55667591094971,0.53219282627106,50.38597106933594,-0.11100404709578,-0.09119025617838,10.00717926025391,1.24711859226227,1.79172873497009,0.85227525234222
340,1885800904,-0.55567717552185,0.53251296281815,50.38604736328125,-0.12504331767559,-0.10235367715359,9.99806022644043,1.44083917140961,1.82981705665588,0.84387385845184
341,1885809237,-0.55540138483047,0.53228175640106,50.38574600219727,-0.10998526215553,-0.10018667578697,10.02994823455811,1.35638892650604,1.76532018184662,0.79338806867599
342,1885817570,-0.55535995960236,0.53183138370514,50.38571929931641,-0.09816741198301,-0.07873080670834,10.00779438018799,1.32511401176453,1.73834860324860,0.82530343532562
343,1885825903,-0.55597513914108,0.53179919719696,50.38639450073242,-0.10231060534716,-0.08973871171474,10.01089954376221,1.24888598918915,1.78955125808716,0.90936934947968
344,1885834236,-0.55576425790787,0.53129422664642,50.38669204711914,-0.09312301129103,-0.08704681694508,10.00075912475586,1.34511864185333,1.72953736782074,0.87146037817001
345,1885842569,-0.55536478757858,0.53178191184998,50.38705062866211,-0.09559904038906,-0.10947221517563,10.02410030364990,1.36970841884613,1.85304915904999,0.87353515625000
346,1885850902,-0.55579793453217,0.53118538856506,50.38653945922852,-0.09425082057714,-0.09334915876389,10.00020790100098,1.26955687999725,1.72095632553101,0.75140643119812
347,1885859235,-0.55645990371704,0.53130817413330,50.38670730590820,-0.11087628453970,-0.09228770434856,10.00292301177979,1.24322533607483,1.80712270736694,0.84935522079468
348,1885867568,-0.55660873651505,0.53074830770493,50.38714218139648,-0.09269122034311,-0.07220572233200,9.99730968475342,1.30213797092438,1.72397887706757,0.87089675664902
349,1885875901,-0.55631250143051,0.53162658214569,50.38748931884766,-0.11281330883503,-0.07726293057203,9.99745655059814,1.35772109031677,1.89800226688385,0.87112742662430
350,1885884234,-0.55706596374512,0.53172552585602,50.38789749145508,-0.11340177804232,-0.08970353007317,10.00565624237061,1.22972655296326,1.80315244197845,0.83542102575302
351,1885892567,-0.55717360973358,0.53144437074661,50.38815689086914,-0.10879233479500,-0.09905827790499,10.00187969207764,1.30925869941711,1.75988984107971,0.85821759700775
352,1885900900,-0.55679839849472,0.53160876035690,50.38816070556641,-0.09008251130581,-0.09354760497808,10.03090858459473,1.36589205265045,1.81101608276367,0.87368881702423
353,1885909233,-0.55725276470184,0.53156846761703,50.38834762573242,-0.10955549031496,-0.09186109900475,10.01132774353027,1.26689291000366,1.78847563266754,0.85168617963791
354,1885917566,-0.55756258964539,0.53240036964417,50.38787460327148,-0.10763984173536,-0.08213049173355,9.98728656768799,1.28425931930542,1.89031779766083,0.81221461296082
355,1885925899,-0.55771696567535,0.53241014480591,50.38705825805664,-0.12063708901405,-0.10845740884542,10.02109909057617,1.30546784400940,1.79580104351044,0.72981363534927
356,1885934232,-0.55787801742554,0.53166729211807,50.38734817504883,-0.09947446733713,-0.10315982252359,10.01718139648438,1.30014002323151,1.70136153697968,0.86618375778198
357,1885942565,-0.55750155448914,0.53095418214798,50.38698196411133,-0.11915070563555,-0.09159294515848,9.99645042419434,1.36827397346497,1.70963490009308,0.78321921825409
358,1885950898,-0.55740219354630,0.53155982494354,50.38706588745117,-0.09599845856428,-0.07645575702190,9.99881172180176,1.33292639255524,1.86293625831604,0.83764958381653
359,1885959231,-0.55698853731155,0.53076452016830,50.38655090332031,-0.10262151807547,-0.11844603717327,10.00967311859131,1.37188541889191,1.69995272159576,0.76508432626724
360,1885967564,-0.55629694461823,0.53037941455841,50.38612365722656,-0.10956482589245,-0.10056023299694,10.00622940063477,1.40577340126038,1.74421417713165,0.77694386243820
361,1885975897,-0.55554884672165,0.53082823753357,50.38655090332031,-0.10284551233053,-0.10425428301096,10.00598049163818,1.41061449050903,1.84672248363495,0.88096326589584
362,1885984230,-0.55571228265762,0.53165411949158,50.38684463500977,-0.10759075731039,-0.10996089875698,10.00111007690430,1.30175399780273,1.89080452919006,0.83122044801712
363,1885992563,-0.55622857809067,0.53068375587463,50.38686752319336,-0.10306730121374,-0.09442866593599,9.97803306579590,1.25977218151093,1.67751479148865,0.83034950494766
364,1886000896,-0.55552852153778,0.53009808063507,50.38691711425781,-0.10543061792850,-0.08945563435555,9.98755264282227,1.40385210514069,1.72034168243408,0.83467823266983
365,1886009229,-0.55518513917923,0.52990162372589,50.38621902465820,-0.12807440757751,-0.08532743155956,10.00477409362793,1.36566138267517,1.77167248725891,0.74428564310074
366,1886017562,-0.55522805452347,0.53007674217224,50.38555526733398,-0.09882272779942,-0.09459677338600,10.00005531311035,1.31594419479370,1.81268095970154,0.74928039312363
367,1886025895,-0.55458563566208,0.53016054630280,50.38547134399414,-0.09056099504232,-0.07564566284418,10.02931880950928,1.39862692356110,1.80351126194000,0.81964266300201
368,1886034228,-0.55476111173630,0.53122025728226,50.38562011718750,-0.09925782680511,-0.08315280824900,9.99088478088379,1.30049872398376,1.91808342933655,0.85355603694916
369,1886042561,-0.55421948432922,0.53079438209534,50.38602447509766,-0.09605249762535,-0.10793712735176,10.01870727539062,1.38671624660492,1.74147343635559,0.87678802013397
370,1886050894,-0.55443471670151,0.53156965970993,50.38660049438477,-0.10623516142368,-0.10406638681889,10.01522064208984,1.29453063011169,1.88463151454926,0.89712584018707
371,1886059227,-0.55538320541382,0.53111863136292,50.38638305664062,-0.10638142377138,-0.09332165122032,10.02571201324463,1.20823609828949,1.73988509178162,0.80273723602295
372,1886067560,-0.55524122714996,0.53085225820541,50.38595581054688,-0.09012342244387,-0.09285344183445,10.02163219451904,1.33827984333038,1.75883996486664,0.77904421091080
373,1886075893,-0.55509281158447,0.53111219406128,50.38563156127930,-0.10951034724712,-0.11814665794373,10.01997089385986,1.34020090103149,1.82553946971893,0.79131340980530
374,1886084226,-0.55521816015244,0.53193902969360,50.38517379760742,-0.09827405214310,-0.09390091150999,10.00984191894531,1.30636441707611,1.89011287689209,0.77322971820831
375,1886092559,-0.55547153949738,0.53173404932022,50.38514328002930,-0.10336432605982,-0.09190705418587,10.00241756439209,1.29243016242981,1.76936721801758,0.82502168416977
376,1886100892,-0.55534815788269,0.53197824954987,50.38500213623047,-0.10978642106056,-0.08432786911726,10.01494693756104,1.33474504947662,1.82031393051147,0.82297253608704
377,1886109225,-0.55536258220673,0.53243446350098,50.38443756103516,-0.09729494899511,-0.10648720711470,10.00782585144043,1.32237327098846,1.84987306594849,0.76124233007431
378,1886117558,-0.55550581216812,0.53354519605637,50.38391113281250,-0.09635363519192,-0.10738358646631,9.98585987091064,1.30395674705505,1.92474329471588,0.76390612125397
379,1886125891,-0.55559813976288,0.53406649827957,50.38371658325195,-0.10712499916553,-0.09209277480841,9.99338150024414,1.31123089790344,1.85609710216522,0.80522185564041
380,1886134224,-0.55586051940918,0.53430014848709,50.38418960571289,-0.11122996360064,-0.09396668523550,9.98474121093750,1.28851139545441,1.81759893894196,0.89049160480499
381,1886142557,-0.55595153570175,0.53411495685577,50.38426208496094,-0.09129637479782,-0.08939608931541,10.01568698883057,1.31105172634125,1.77297878265381,0.83734214305878
382,1886150890,-0.55576854944229,0.53390836715698,50.38402557373047,-0.10116017609835,-0.09933689981699,9.98083019256592,1.34340274333954,1.76547408103943,0.79354190826416
383,1886159223,-0.55570083856583,0.53424799442291,50.38379287719727,-0.08677082508802,-0.08459819108248,10.01718139648438,1.33049297332764,1.83596420288086,0.79981726408005
384,1886167556,-0.55575954914093,0.53386509418488,50.38390350341797,-0.08146117627621,-0.11425758153200,10.01187133789062,1.31384372711182,1.74447023868561,0.84249055385590
385,1886175889,-0.55562299489975,0.53419238328934,50.38438796997070,-0.10144620388746,-0.08921017497778,10.00335502624512,1.33886885643005,1.83286488056183,0.88785338401794
386,1886184222,-0.55569809675217,0.53380984067917,50.38488769531250,-0.10659895092249,-0.09448214620352,10.03886890411377,1.31036031246185,1.74475204944611,0.88285863399506
387,1886192555,-0.55543559789658,0.53478938341141,50.38566589355469,-0.10034666210413,-0.09085851162672,10.01718044281006,1.35375070571899,1.91004085540771,0.92189466953278
388,1886200888,-0.55552142858505,0.53504645824432,50.38516616821289,-0.09583444893360,-0.08834506571293,10.00720405578613,1.31012976169586,1.82274746894836,0.77399814128876
389,1886209221,-0.55559277534485,0.53564959764481,50.38510513305664,-0.09850926697254,-0.10008990019560,10.03110885620117,1.31389498710632,1.86711144447327,0.82269078493118
390,1886217554,-0.55642151832581,0.53541135787964,50.38548278808594,-0.10246422886848,-0.10947503894567,10.01020908355713,1.22091531753540,1.76106846332550,0.86859160661697
391,1886225887,-0.55658984184265,0.53466409444809,50.38608551025391,-0.11492972820997,-0.10249223560095,10.00876140594482,1.30095970630646,1.70341050624847,0.90063482522964
392,1886234220,-0.55607479810715,0.53478717803955,50.38650894165039,-0.10114797949791,-0.07470957189798,10.01962566375732,1.38246428966522,1.80643117427826,0.88024598360062
393,1886242553,-0.55555194616318,0.53584206104279,50.38698577880859,-0.10720443725586,-0.08358166366816,9.99534988403320,1.38525629043579,1.91974866390228,0.88808399438858
394,1886250886,-0.55583757162094,0.53448581695557,50.38694381713867,-0.10595667362213,-0.08875124156475,10.01932525634766,1.28671824932098,1.62728500366211,0.82561081647873
395,1886259219,-0.55657505989075,0.53469043970108,50.38748168945312,-0.10434167087078,-0.09297377616167,10.02170658111572,1.23313319683075,1.81875157356262,0.89307868480682
396,1886267552,-0.55665338039398,0.53396052122116,50.38756179809570,-0.10177756100893,-0.09378053247929,9.99480628967285,1.31184589862823,1.70207893848419,0.83954495191574
397,1886275885,-0.55664795637131,0.53464281558990,50.38704681396484,-0.09644469618797,-0.09897270053625,10.00639533996582,1.32257831096649,1.87658870220184,0.76623708009720
398,1886284218,-0.55597448348999,0.53357142210007,50.38722991943359,-0.09678772091866,-0.11637901514769,10.02279376983643,1.40221273899078,1.66245341300964,0.84625583887100
399,1886292551,-0.55595290660858,0.53321433067322,50.38618087768555,-0.09505853801966,-0.09035026282072,10.01654529571533,1.32570314407349,1.75271797180176,0.70327723026276
400,1886300884,-0.55601078271866,0.53289169073105,50.38659286499023,-0.10757034271955,-0.10287550091743,9.99024295806885,1.31276798248291,1.75169360637665,0.86649107933044
401,1886309217,-0.55642855167389,0.53193551301956,50.38644790649414,-0.09480217844248,-0.09112703800201,10.00721073150635,1.27268159389496,1.67969179153442,0.80998617410660
402,1886317550,-0.55648499727249,0.53228515386581,50.38688278198242,-0.11562548577785,-0.09469279646873,10.02185726165771,1.31412553787231,1.83189177513123,0.88818645477295
403,1886325883,-0.55603027343750,0.53268414735794,50.38651275634766,-0.11647469550371,-0.08692911267281,9.96171474456787,1.37629139423370,1.84190690517426,0.78636980056763
404,1886334216,-0.55570435523987,0.53349792957306,50.38670349121094,-0.11008018255234,-0.08448465168476,9.99549961090088,1.36130702495575,1.88921642303467,0.85135322809219
405,1886342549,-0.55596280097961,0.53413844108582,50.38614273071289,-0.08631515502930,-0.07235411554575,10.01986885070801,1.29184114933014,1.87100458145142,0.76400858163834
406,1886350882,-0.55602860450745,0.53366750478745,50.38568878173828,-0.11928541958332,-0.10225427895784,10.00064277648926,1.31366443634033,1.73478829860687,0.76605778932571
407,1886359215,-0.55578970909119,0.53314435482025,50.38628387451172,-0.10046631842852,-0.09044702351093,9.97882747650146,1.34972929954529,1.72997248172760,0.90063482522964
408,1886367548,-0.55631136894226,0.53209179639816,50.38685989379883,-0.10350888222456,-0.07546693831682,10.00195598602295,1.25777399539948,1.66391336917877,0.90757632255554
409,1886375881,-0.55553501844406,0.53137511014938,50.38840484619141,-0.10397794097662,-0.08196077495813,10.01041412353516,1.41386747360229,1.70694553852081,1.01413166522980
410,1886384214,-0.55578160285950,0.53100270032883,50.38780212402344,-0.08426831662655,-0.09778250753880,10.00860023498535,1.29148244857788,1.74782574176788,0.75634986162186
411,1886392547,-0.55530977249146,0.53146111965179,50.38706588745117,-0.09666417539120,-0.11156896501780,9.98905754089355,1.37949311733246,1.84974479675293,0.73998242616653
412,1886400880,-0.55510622262955,0.53016346693039,50.38692092895508,-0.11410833895206,-0.07538309693336,10.00699138641357,1.34614324569702,1.63481557369232,0.81211203336716
413,1886409213,-0.55513525009155,0.53009802103043,50.38703155517578,-0.11765443533659,-0.12264284491539,9.99747562408447,1.31722486019135,1.78537619113922,0.84241372346878
414,1886417546,-0.55480450391769,0.53103256225586,50.38732910156250,-0.09532192349434,-0.10619608312845,10.01472949981689,1.36064100265503,1.90304803848267,0.86359679698944
415,1886425879,-0.55532109737396,0.53020280599594,50.38754653930664,-0.09251413494349,-0.09593432396650,9.99226093292236,1.26010525226593,1.69429218769073,0.85378658771515
416,1886434212,-0.55580669641495,0.52934992313385,50.38782119750977,-0.09742364287376,-0.08869200199842,9.99569988250732,1.26384472846985,1.68929719924927,0.85893493890762
417,1886442545,-0.55515718460083,0.52981930971146,50.38651275634766,-0.10012311488390,-0.10035228729248,10.01967811584473,1.40034306049347,1.85179412364960,0.67146444320679
418,1886450878,-0.55465000867844,0.52947616577148,50.38617706298828,-0.10699818283319,-0.10591044276953,9.99254035949707,1.38228511810303,1.74995195865631,0.79051935672760
419,1886459211,-0.55436533689499,0.52972167730331,50.38703155517578,-0.10092141479254,-0.09383966773748,10.00616645812988,1.35490357875824,1.82226073741913,0.93178188800812
420,1886467544,-0.55401724576950,0.52893900871277,50.38703155517578,-0.09776045382023,-0.08877275139093,10.00663948059082,1.36333048343658,1.69585430622101,0.82494479417801
421,1886475877,-0.55349814891815,0.52944201231003,50.38716125488281,-0.07485514879227,-0.08495850116014,10.01975154876709,1.38328397274017,1.85484206676483,0.84653770923615
422,1886484210,-0.55315762758255,0.52951830625534,50.38636016845703,-0.10440751910210,-0.08657536655664,10.01426887512207,1.36345863342285,1.80038619041443,0.73793333768845
423,1886492543,-0.55385166406631,0.52956241369247,50.38693237304688,-0.09119751304388,-0.08840829879045,10.00410556793213,1.23812806606293,1.79977130889893,0.89653658866882
424,1886500876,-0.55418199300766,0.53073585033417,50.38689041137695,-0.11761222779751,-0.09025943279266,10.00356483459473,1.28110885620117,1.93132627010345,0.82281899452209
425,1886509209,-0.55377638339996,0.53052067756653,50.38755035400391,-0.09483779221773,-0.09127905219793,10.00990581512451,1.37083542346954,1.76803529262543,0.90744829177856
426,1886517542,-0.55457103252411,0.52968472242355,50.38731765747070,-0.09609924256802,-0.08619042485952,9.98062896728516,1.22685778141022,1.69042408466339,0.79848521947861
427,1886525875,-0.55496686697006,0.52891623973846,50.38754272460938,-0.11008204519749,-0.09894973784685,10.02285194396973,1.27437222003937,1.70143830776215,0.85609173774719
428,1886534208,-0.55543595552444,0.52890998125076,50.38711929321289,-0.09516995400190,-0.08329065144062,10.03111362457275,1.26453638076782,1.79101133346558,0.79077547788620
429,1886542541,-0.55587530136108,0.52872908115387,50.38699722290039,-0.10575608164072,-0.10989836603403,10.03222274780273,1.26914691925049,1.77226161956787,0.81252199411392
430,1886550874,-0.55508363246918,0.52979725599289,50.38654327392578,-0.12739591300488,-0.09431768953800,10.02118492126465,1.41671073436737,1.91872394084930,0.78288638591766
431,1886559207,-0.55478858947754,0.52965790033340,50.38660049438477,-0.13048556447029,-0.10364119708538,9.99788093566895,1.35836148262024,1.77799940109253,0.83485764265060
432,1886567540,-0.55454415082932,0.53064858913422,50.38631820678711,-0.10706248879433,-0.09809083491564,10.00589275360107,1.35006248950958,1.90901637077332,0.80263483524323
433,1886575873,-0.55442148447037,0.53179311752319,50.38546371459961,-0.10196726024151,-0.09277999401093,10.04763698577881,1.33804917335510,1.93345224857330,0.72494685649872
434,1886584206,-0.55413466691971,0.53278082609177,50.38518905639648,-0.09131872653961,-0.10497517883778,10.00004291534424,1.35459613800049,1.90970790386200,0.81554448604584
435,1886592539,-0.55373400449753,0.53245770931244,50.38510513305664,-0.09419227391481,-0.10070291906595,10.00140380859375,1.37037432193756,1.75527966022491,0.81897675991058
436,1886600872,-0.55388975143433,0.53124874830246,50.38593673706055,-0.08685664087534,-0.10728390514851,10.02326583862305,1.30216360092163,1.64475393295288,0.92266303300858
437,1886609205,-0.55414539575577,0.53134208917618,50.38562011718750,-0.10610524564981,-0.07226328551769,10.01050281524658,1.29163622856140,1.80561137199402,0.79146707057953
438,1886617538,-0.55383670330048,0.53140670061111,50.38576126098633,-0.08983536064625,-0.07751202583313,10.02565670013428,1.35823321342468,1.79877233505249,0.81708121299744
439,1886625871,-0.55368512868881,0.53215938806534,50.38566970825195,-0.11137793958187,-0.08772535622120,10.00474739074707,1.34130215644836,1.88452887535095,0.81795209646225
440,1886634204,-0.55360728502274,0.53180640935898,50.38514709472656,-0.10349493473768,-0.08740750700235,9.98359680175781,1.33013427257538,1.74913191795349,0.77376759052277
441,1886642537,-0.55404102802277,0.53209179639816,50.38556671142578,-0.09192753583193,-0.08740114420652,10.00959205627441,1.26837849617004,1.82722997665405,0.88045096397400
442,1886650870,-0.55410033464432,0.53141844272614,50.38541412353516,-0.11959036439657,-0.08313065022230,10.04121017456055,1.31502199172974,1.71086430549622,0.82253706455231
443,1886659203,-0.55342864990234,0.53238403797150,50.38636779785156,-0.10664971172810,-0.08732428401709,10.01737976074219,1.40252017974854,1.90796577930450,0.94656121730804
444,1886667536,-0.55280160903931,0.53306806087494,50.38586044311523,-0.10469342023134,-0.07007876783609,10.00551891326904,1.39560449123383,1.87387335300446,0.77883923053741
445,1886675869,-0.55303412675858,0.53300350904465,50.38574981689453,-0.11571069806814,-0.11025358736515,9.99693584442139,1.29447948932648,1.78647756576538,0.81523710489273
446,1886684202,-0.55283105373383,0.53264564275742,50.38499069213867,-0.12368100881577,-0.08755211532116,10.01725578308105,1.34668123722076,1.74856841564178,0.73452657461166
447,1886692535,-0.55328959226608,0.53301405906677,50.38516998291016,-0.11097291111946,-0.11442976444960,10.00801086425781,1.26786625385284,1.83867943286896,0.85150676965714
448,1886700868,-0.55281442403793,0.53275942802429,50.38588333129883,-0.10669698566198,-0.09347166121006,10.00226688385010,1.37695741653442,1.75976181030273,0.91687434911728
449,1886709201,-0.55284368991852,0.53334301710129,50.38593292236328,-0.09585992991924,-0.09385517984629,10.01183795928955,1.31696867942810,1.86349976062775,0.83811062574387
450,1886717534,-0.55241125822067,0.53397715091705,50.38634872436523,-0.09346310049295,-0.06469108909369,10.01240062713623,1.37337124347687,1.86552321910858,0.88488215208054
451,1886725867,-0.55274599790573,0.53381061553955,50.38601303100586,-0.09893099218607,-0.09919759631157,10.02466106414795,1.28213310241699,1.77600121498108,0.78875184059143
452,1886734200,-0.55272108316422,0.53363853693008,50.38652038574219,-0.08528139442205,-0.10502883046865,10.00112724304199,1.32383322715759,1.76908552646637,0.88818639516830
453,1886742533,-0.55269140005112,0.53262400627136,50.38652038574219,-0.10089126974344,-0.09904389083385,10.01609992980957,1.32606172561646,1.67223811149597,0.82691717147827
454,1886750866,-0.55254763364792,0.53162825107574,50.38687133789062,-0.11111149191856,-0.09243573993444,10.03271007537842,1.33766508102417,1.67136740684509,0.86874526739120
455,1886759199,-0.55304592847824,0.53128194808960,50.38681030273438,-0.09217116981745,-0.07819867879152,10.01649284362793,1.26266646385193,1.75228261947632,0.82279318571091
456,1886767532,-0.55221790075302,0.53103578090668,50.38629150390625,-0.11526244878769,-0.08358521759510,10.00723552703857,1.42055261135101,1.76068401336670,0.77374196052551
457,1886775865,-0.55155611038208,0.53142046928406,50.38610076904297,-0.11239437013865,-0.08302643895149,9.99263000488281,1.40141880512238,1.84118962287903,0.80558049678802
458,1886784198,-0.55123144388199,0.53142791986465,50.38542556762695,-0.11626088619232,-0.08212262392044,10.03159809112549,1.36007750034332,1.79236888885498,0.74948525428772
459,1886792531,-0.55164271593094,0.53135049343109,50.38579559326172,-0.12505765259266,-0.07424206286669,9.96457290649414,1.27314257621765,1.78496634960175,0.87348371744156
460,1886800864,-0.55174815654755,0.53147625923157,50.38584518432617,-0.11120928078890,-0.09730385243893,10.03594875335693,1.30895137786865,1.80476605892181,0.84172219038010
461,1886809197,-0.55130356550217,0.53079420328140,50.38618087768555,-0.09071514755487,-0.09237460047007,10.03508663177490,1.37465190887451,1.71168398857117,0.86856585741043
462,1886817530,-0.55069470405579,0.53212082386017,50.38581085205078,-0.09886006265879,-0.09395865350962,10.01562118530273,1.39432358741760,1.94971716403961,0.79546284675598
463,1886825863,-0.55073648691177,0.53250527381897,50.38658523559570,-0.10525815188885,-0.11465819180012,9.99797534942627,1.31625127792358,1.84044682979584,0.92230445146561
464,1886834196,-0.55068987607956,0.53206509351730,50.38724136352539,-0.09324987232685,-0.06414227932692,10.01395416259766,1.32616412639618,1.73658084869385,0.88744342327118
465,1886842529,-0.55024850368500,0.53238767385483,50.38734436035156,-0.08601025491953,-0.11550263315439,10.02465248107910,1.37457501888275,1.83286511898041,0.84220880270004
466,1886850862,-0.55099576711655,0.53137242794037,50.38816070556641,-0.09530777484179,-0.06835898756981,10.01757240295410,1.23118638992310,1.66785800457001,0.92514777183533
467,1886859195,-0.55094283819199,0.53141260147095,50.38806533813477,-0.09901519864798,-0.09314296394587,10.00876235961914,1.32805991172791,1.79884946346283,0.81743991374969
468,1886867528,-0.55138903856277,0.53202152252197,50.38809967041016,-0.09403961896896,-0.08661265671253,9.98677349090576,1.26740527153015,1.86454987525940,0.83749592304230
469,1886875861,-0.55170905590057,0.53148418664932,50.38795852661133,-0.11131832003593,-0.09946949034929,9.99017238616943,1.28433609008789,1.72987008094788,0.80967873334885
470,1886884194,-0.55083113908768,0.53102791309357,50.38817214965820,-0.11681199818850,-0.09656181931496,9.99326038360596,1.42485594749451,1.73563325405121,0.85683453083038
471,1886892527,-0.55036896467209,0.53133273124695,50.38778305053711,-0.09592957794666,-0.08054577559233,9.99673843383789,1.37831485271454,1.83066236972809,0.78365474939346
472,1886900860,-0.54975682497025,0.53117567300797,50.38844299316406,-0.11237321794033,-0.11596315354109,9.99747753143311,1.39437484741211,1.77031493186951,0.91874414682388
473,1886909193,-0.54937869310379,0.53147989511490,50.38826751708984,-0.10050363093615,-0.09086348861456,9.98052120208740,1.36732637882233,1.83117461204529,0.80883353948593
474,1886917526,-0.54950088262558,0.53046989440918,50.38798522949219,-0.12347842752934,-0.09598833322525,9.99847412109375,1.30738890171051,1.67100858688354,0.78583186864853
475,1886925859,-0.54977029561996,0.52983999252319,50.38812255859375,-0.11959549784660,-0.09496762603521,10.02763462066650,1.28912615776062,1.71757543087006,0.84717810153961
476,1886934192,-0.54950457811356,0.52932918071747,50.38808822631836,-0.11608235538006,-0.10124388337135,9.99414730072021,1.35375070571899,1.72951149940491,0.80504256486893
477,1886942525,-0.54890143871307,0.53042846918106,50.38879394531250,-0.07896657288074,-0.09820374101400,9.99724864959717,1.39278686046600,1.92553746700287,0.91479969024658
478,1886950858,-0.54865288734436,0.53033250570297,50.38931655883789,-0.11626119166613,-0.08598044514656,10.02574634552002,1.35095882415771,1.77925455570221,0.88293558359146
479,1886959191,-0.54866725206375,0.53086519241333,50.38907623291016,-0.08993918448687,-0.08492317050695,9.99419116973877,1.32096457481384,1.85681426525116,0.80107241868973
480,1886967524,-0.54910099506378,0.53201490640640,50.38771057128906,-0.07086445391178,-0.08500801771879,10.03378486633301,1.26963376998901,1.93040418624878,0.67343670129776
481,1886975857,-0.54924315214157,0.53268241882324,50.38817977905273,-0.09357871860266,-0.09437215328217,9.99605941772461,1.30477643013000,1.87443697452545,0.88531768321991
482,1886984190,-0.54849529266357,0.53175914287567,50.38797378540039,-0.10700226575136,-0.11302722245455,10.00201797485352,1.41102409362793,1.68048584461212,0.82066720724106
483,1886992523,-0.54888987541199,0.53203892707825,50.38800811767578,-0.10337960720062,-0.09322242438793,10.00544166564941,1.27434659004211,1.82610273361206,0.83390986919403
484,1887000856,-0.54846435785294,0.53106212615967,50.38736343383789,-0.11122313886881,-0.08187305927277,10.02964591979980,1.37339699268341,1.67554235458374,0.75688779354095
485,1887009189,-0.54924422502518,0.53079438209534,50.38786315917969,-0.11255680024624,-0.10382092744112,10.00404834747314,1.22726762294769,1.76029980182648,0.89018428325653
486,1887017522,-0.54956531524658,0.53011840581894,50.38825988769531,-0.10722439736128,-0.08830483257771,10.04199981689453,1.28333711624146,1.70981419086456,0.87053811550140
487,1887025855,-0.54937756061554,0.53102302551270,50.38785552978516,-0.12664337456226,-0.09656673669815,10.00248527526855,1.34401738643646,1.90245890617371,0.78181052207947
488,1887034188,-0.54937940835953,0.53138661384583,50.38784790039062,-0.12017375975847,-0.07444373518229,9.99736976623535,1.32073402404785,1.83493995666504,0.82965797185898
489,1887042521,-0.54917758703232,0.53105300664902,50.38778686523438,-0.12897153198719,-0.06910203397274,10.03891944885254,1.34706544876099,1.75458776950836,0.82207602262497
490,1887050854,-0.54946190118790,0.53014361858368,50.38771820068359,-0.09824092686176,-0.06681665778160,10.01566410064697,1.28748667240143,1.68143379688263,0.80642575025558
491,1887059187,-0.55024099349976,0.52989059686661,50.38774490356445,-0.09757588803768,-0.09113448113203,9.96894931793213,1.22849702835083,1.76365530490875,0.83086174726486
492,1887067520,-0.54988723993301,0.53029942512512,50.38709259033203,-0.09430769085884,-0.09403251111507,9.98711109161377,1.36440634727478,1.84067749977112,0.75581210851669
493,1887075853,-0.54989343881607,0.53045594692230,50.38735961914062,-0.10045014321804,-0.10570954531431,10.02949905395508,1.32017064094543,1.81239926815033,0.86193192005157
494,1887084186,-0.54928392171860,0.53052651882172,50.38716506958008,-0.07924258708954,-0.09998507052660,9.99230670928955,1.39493834972382,1.79892611503601,0.80447912216187
495,1887092519,-0.54866170883179,0.53064799308777,50.38758468627930,-0.09547387808561,-0.09392239153385,9.99470138549805,1.39611661434174,1.80832672119141,0.87829923629761
496,1887100852,-0.54800349473953,0.53203254938126,50.38791275024414,-0.08767835050821,-0.08234313875437,9.98448657989502,1.39898538589478,1.95701718330383,0.86723393201828
497,1887109185,-0.54862481355667,0.53183007240295,50.38744735717773,-0.09968051314354,-0.10070364922285,10.01282501220703,1.24878382682800,1.77110922336578,0.77281993627548
498,1887117518,-0.54888296127319,0.53151810169220,50.38714599609375,-0.09382816404104,-0.09321580082178,9.99650287628174,1.28986895084381,1.75274384021759,0.78040170669556
499,1887125851,-0.54855406284332,0.53180170059204,50.38718032836914,-0.11422621458769,-0.08858563005924,9.99067020416260,1.36266446113586,1.82812643051147,0.83211690187454
500,1887134184,-0.54828101396561,0.53198873996735,50.38752365112305,-0.11703565716743,-0.09091881662607,10.00286579132080,1.35405802726746,1.81362867355347,0.83949369192123
501,1887142517,-0.54809832572937,0.53275430202484,50.38737869262695,-0.09837096184492,-0.09538312256336,10.02749538421631,1.34342813491821,1.88527166843414,0.81206089258194
502,1887150850,-0.54837936162949,0.53247284889221,50.38724899291992,-0.12472292035818,-0.08181945234537,10.02934932708740,1.28866505622864,1.75830209255219,0.80388993024826
503,1887159183,-0.54900276660919,0.53262352943420,50.38804244995117,-0.12633612751961,-0.10848317295313,9.98875141143799,1.24481332302094,1.81132352352142,0.92379027605057
504,1887167516,-0.54873317480087,0.53290402889252,50.38798904418945,-0.10842277854681,-0.08978272974491,10.01997661590576,1.35380196571350,1.82359290122986,0.82563650608063
505,1887175849,-0.54852658510208,0.53252685070038,50.38860702514648,-0.09619809687138,-0.10212765634060,10.03981590270996,1.34616899490356,1.74846625328064,0.90222305059433
506,1887184182,-0.54900038242340,0.53315603733063,50.38902282714844,-0.09260138869286,-0.11190506070852,10.01186847686768,1.26410102844238,1.86629164218903,0.89295071363449
507,1887192515,-0.54840451478958,0.53341215848923,50.38896179199219,-0.09162984043360,-0.08359679579735,9.98580265045166,1.39311993122101,1.82484793663025,0.82138454914093
508,1887200848,-0.54801124334335,0.53387939929962,50.38927841186523,-0.09360443055630,-0.09386652708054,9.97103118896484,1.36781299114227,1.84708106517792,0.87345826625824
509,1887209181,-0.54833471775055,0.53470355272293,50.38946914672852,-0.08406215906143,-0.09607318043709,10.02412128448486,1.28379845619202,1.89170098304749,0.85273635387421
510,1887217514,-0.54891705513000,0.53549009561539,50.38981628417969,-0.07641541957855,-0.09201610833406,9.99346351623535,1.25096106529236,1.88496446609497,0.89348858594894
511,1887225847,-0.54820394515991,0.53612148761749,50.38981628417969,-0.11252451688051,-0.09816850721836,9.99201583862305,1.40677225589752,1.86900675296783,0.82976043224335
512,1887234180,-0.54774975776672,0.53673970699310,50.38942718505859,-0.10818015784025,-0.08757074177265,9.99842548370361,1.37516438961029,1.86647105216980,0.78677970170975
513,1887242513,-0.54799610376358,0.53733444213867,50.38915252685547,-0.09168213605881,-0.07435295730829,10.02383232116699,1.29468441009521,1.86539506912231,0.79707664251328
514,1887250846,-0.54778683185577,0.53845924139023,50.38941955566406,-0.10699297487736,-0.08571146428585,10.00467586517334,1.34509313106537,1.92461538314819,0.86008763313293
515,1887259179,-0.54751408100128,0.53921258449554,50.38981628417969,-0.11567391455173,-0.10796934366226,10.02458286285400,1.35495471954346,1.88437533378601,0.87619894742966
516,1887267512,-0.54746997356415,0.53973335027695,50.38948822021484,-0.11458192765713,-0.07857059687376,9.99171257019043,1.32662534713745,1.85368919372559,0.78729194402695
517,1887275845,-0.54717987775803,0.53928709030151,50.38951492309570,-0.13874088227749,-0.11326392740011,10.01877975463867,1.35631203651428,1.74032068252563,0.83247548341751
518,1887284178,-0.54764056205750,0.53913509845734,50.38910675048828,-0.10200966149569,-0.09163179248571,10.01126480102539,1.26773810386658,1.77297878265381,0.78219461441040
519,1887292511,-0.54796516895294,0.53913098573685,50.38876342773438,-0.10235310345888,-0.09307678043842,9.95881271362305,1.28315782546997,1.79280424118042,0.78716385364532
520,1887300844,-0.54786878824234,0.53883522748947,50.38852310180664,-0.10185791552067,-0.09323526918888,10.01303958892822,1.33274686336517,1.75625276565552,0.81421244144440
521,1887309177,-0.54780572652817,0.53788256645203,50.38822174072266,-0.10585353523493,-0.08661072701216,10.03300762176514,1.32982695102692,1.68033218383789,0.79187685251236
522,1887317510,-0.54831707477570,0.53751385211945,50.38822937011719,-0.09505274146795,-0.11284328252077,10.01021671295166,1.25982332229614,1.74631416797638,0.81777280569077
523,1887325843,-0.54775846004486,0.53767442703247,50.38809204101562,-0.10484880954027,-0.07867264747620,10.00356674194336,1.38955926895142,1.81391048431396,0.81367450952530
524,1887334176,-0.54681819677353,0.53726106882095,50.38867950439453,-0.09599804878235,-0.09993937611580,10.01563835144043,1.43302690982819,1.74098682403564,0.90780699253082
525,1887342509,-0.54672783613205,0.53641486167908,50.38843536376953,-0.09827414155006,-0.06703143566847,10.00198459625244,1.33415591716766,1.69162809848785,0.79874145984650
526,1887350842,-0.54606479406357,0.53713160753250,50.38819885253906,-0.12718950212002,-0.09823141247034,10.01512622833252,1.40049672126770,1.87848389148712,0.77612411975861
527,1887359175,-0.54574674367905,0.53701907396317,50.38744735717773,-0.12276159971952,-0.10621649026871,10.03258705139160,1.36061537265778,1.77992033958435,0.73931646347046
528,1887367508,-0.54564690589905,0.53722935914993,50.38711166381836,-0.12409454584122,-0.10642956942320,9.99069213867188,1.33328497409821,1.81665110588074,0.79477125406265
529,1887375841,-0.54577362537384,0.53683501482010,50.38727569580078,-0.12378378957510,-0.08492023497820,10.00111865997314,1.30623626708984,1.74700605869293,0.84766465425491
530,1887384174,-0.54593598842621,0.53602117300034,50.38724899291992,-0.11629789322615,-0.11292684823275,10.01419067382812,1.30167698860168,1.69231963157654,0.83173257112503
531,1887392507,-0.54502040147781,0.53619021177292,50.38719940185547,-0.10813286900520,-0.10156938433647,10.00400638580322,1.43251454830170,1.81488394737244,0.82381784915924
532,1887400840,-0.54525601863861,0.53563904762268,50.38737869262695,-0.10009679198265,-0.09824700653553,9.99258995056152,1.29235339164734,1.72443985939026,0.83047747612000
533,1887409173,-0.54583334922791,0.53627604246140,50.38716888427734,-0.09653804451227,-0.09985630959272,10.01649379730225,1.25482869148254,1.87097907066345,0.80427420139313
534,1887417506,-0.54591113328934,0.53654122352600,50.38792419433594,-0.11175096780062,-0.08052331954241,10.02173423767090,1.31020653247833,1.82108259201050,0.90693610906601
535,1887425839,-0.54526841640472,0.53627878427505,50.38721847534180,-0.09915032982826,-0.08813250064850,10.01870441436768,1.40003561973572,1.76321983337402,0.74428564310074
536,1887434172,-0.54401975870132,0.53658282756805,50.38694000244141,-0.10055450350046,-0.08189310878515,10.00401973724365,1.47157633304596,1.82705068588257,0.80212259292603
537,1887442505,-0.54408174753189,0.53597283363342,50.38661193847656,-0.09801147878170,-0.10510616749525,9.99641799926758,1.31522691249847,1.72052097320557,0.78780418634415
538,1887450838,-0.54334628582001,0.53659629821777,50.38695526123047,-0.09548875689507,-0.09447929263115,10.02260398864746,1.40923118591309,1.86675286293030,0.85153251886368
539,1887459171,-0.54269897937775,0.53712511062622,50.38748168945312,-0.09706766158342,-0.10822962224483,9.99850654602051,1.39775598049164,1.85645568370819,0.89287376403809
540,1887467504,-0.54284012317657,0.53736382722855,50.38800048828125,-0.12707698345184,-0.08170223981142,10.01372146606445,1.30457162857056,1.81905913352966,0.90148025751114
541,1887475837,-0.54307305812836,0.53813248872757,50.38803100585938,-0.10665804892778,-0.07871653139591,10.01601219177246,1.29276323318481,1.88575851917267,0.83536988496780
542,1887484170,-0.54349696636200,0.53796327114105,50.38782119750977,-0.11112388968468,-0.08197961002588,10.00181388854980,1.27134978771210,1.77069938182831,0.80491459369659
543,1887492503,-0.54320687055588,0.53764992952347,50.38805389404297,-0.09769877791405,-0.09461558610201,10.00459384918213,1.35731112957001,1.75597095489502,0.85601490736008
544,1887500836,-0.54384970664978,0.53710854053497,50.38799667358398,-0.09374193847179,-0.11318907886744,10.02203369140625,1.24271297454834,1.72715497016907,0.80652809143066
545,1887509169,-0.54345101118088,0.53760987520218,50.38771820068359,-0.12538488209248,-0.11237178742886,10.00121498107910,1.37091231346130,1.85468840599060,0.79635941982269
546,1887517502,-0.54299122095108,0.53895819187164,50.38761520385742,-0.10248938202858,-0.09866896271706,10.01112937927246,1.37624013423920,1.95261168479919,0.81590306758881
547,1887525835,-0.54324847459793,0.53770804405212,50.38769912719727,-0.10895648598671,-0.09338698536158,10.00306034088135,1.29191792011261,1.64298677444458,0.83759826421738
548,1887534168,-0.54326039552689,0.53820639848709,50.38832092285156,-0.09552271664143,-0.07220865041018,9.98906135559082,1.31863355636597,1.85007774829865,0.90808850526810
549,1887542501,-0.54419440031052,0.53808671236038,50.38823318481445,-0.08797582238913,-0.10750328004360,9.99430942535400,1.20905601978302,1.77874219417572,0.81672269105911
550,1887550834,-0.54441004991531,0.53689062595367,50.38840103149414,-0.10510250180960,-0.06985805928707,10.00403213500977,1.29565751552582,1.64772522449493,0.84151726961136
551,1887559167,-0.54414099454880,0.53719282150269,50.38812637329102,-0.09722422808409,-0.09231184422970,10.02554225921631,1.35426318645477,1.83104658126831,0.79687172174454
552,1887567500,-0.54428052902222,0.53770387172699,50.38807296752930,-0.10736674815416,-0.08068673312664,10.01878166198730,1.30503249168396,1.85107696056366,0.82899188995361
553,1887575833,-0.54420322179794,0.53764736652374,50.38789749145508,-0.11128827184439,-0.09822081029415,9.98026371002197,1.33164560794830,1.78839862346649,0.80842363834381
554,1887584166,-0.54324960708618,0.53777188062668,50.38749313354492,-0.10156296193600,-0.08393583446741,10.00619411468506,1.43597233295441,1.80589282512665,0.78470486402512
555,1887592499,-0.54338687658310,0.53734552860260,50.38771820068359,-0.10306997597218,-0.08931841701269,10.01899623870850,1.30526280403137,1.74267721176147,0.85458046197891
556,1887600832,-0.54304963350296,0.53759980201721,50.38816833496094,-0.11405115574598,-0.10955701023340,9.99718189239502,1.36074364185333,1.82108235359192,0.87210065126419
557,1887609165,-0.54263746738434,0.53808325529099,50.38779067993164,-0.09394956380129,-0.08666921406984,9.99650955200195,1.37198817729950,1.85212707519531,0.78506350517273
558,1887617498,-0.54201996326447,0.53799295425415,50.38803482055664,-0.11696716398001,-0.08714364469051,10.00189304351807,1.39514338970184,1.78091919422150,0.84850990772247
559,1887625831,-0.54207152128220,0.53794050216675,50.38792800903320,-0.09129870682955,-0.08561506122351,10.00475025177002,1.31566238403320,1.78706681728363,0.81621044874191
560,1887634164,-0.54217308759689,0.53807240724564,50.38768005371094,-0.10283553600311,-0.10543222725391,9.97457122802734,1.31023216247559,1.80622625350952,0.77376759052277
561,1887642497,-0.54229998588562,0.53803032636642,50.38827514648438,-0.10182848572731,-0.08185059577227,10.00700759887695,1.30592882633209,1.78878283500671,0.90137773752213
562,1887650830,-0.54184824228287,0.53818058967590,50.38787841796875,-0.10478803515434,-0.10799405723810,10.01135826110840,1.37565088272095,1.80973553657532,0.79436153173447
563,1887659163,-0.54206389188766,0.53832757472992,50.38758087158203,-0.10068912059069,-0.07451694458723,10.03243637084961,1.29701530933380,1.81065738201141,0.79320877790451
564,1887667496,-0.54158073663712,0.53825736045837,50.38731002807617,-0.10310214012861,-0.06705212593079,10.00502490997314,1.37813556194305,1.78394174575806,0.80240434408188
565,1887675829,-0.54193538427353,0.53773641586304,50.38696289062500,-0.13033150136471,-0.10436741262674,10.02174949645996,1.28141617774963,1.73156070709229,0.78739434480667
566,1887684162,-0.54256594181061,0.53756445646286,50.38646697998047,-0.10607110708952,-0.09360109269619,10.00071334838867,1.24432671070099,1.77041733264923,0.76726156473160
567,1887692495,-0.54291689395905,0.53790527582169,50.38692092895508,-0.11146502196789,-0.12052428722382,10.03163719177246,1.28031492233276,1.83481192588806,0.88339662551880
568,1887700828,-0.54249697923660,0.53758680820465,50.38698959350586,-0.13134080171585,-0.10903503745794,10.02691364288330,1.37075865268707,1.75284636020660,0.83798253536224
569,1887709161,-0.54150873422623,0.53767526149750,50.38653945922852,-0.09673754870892,-0.09362213313580,10.02721023559570,1.44140279293060,1.80489432811737,0.77589356899261
570,1887717494,-0.54167848825455,0.53677779436111,50.38626480102539,-0.09044480323792,-0.10523887723684,9.99490928649902,1.30206120014191,1.68402063846588,0.79692286252975
571,1887725827,-0.54156798124313,0.53626561164856,50.38604354858398,-0.07871674001217,-0.09393265098333,10.01063060760498,1.33461689949036,1.73286688327789,0.80096995830536
572,1887734160,-0.54162293672562,0.53675478696823,50.38634490966797,-0.07899405062199,-0.10241306573153,10.01567459106445,1.31456100940704,1.84992432594299,0.84776717424393
573,1887742493,-0.54180502891541,0.53825223445892,50.38620758056641,-0.09203449636698,-0.07800062745810,10.01996231079102,1.30060124397278,1.97325682640076,0.81523716449738
574,1887750826,-0.55159533023834,0.53439515829086,50.38592529296875,-0.10501538962126,-0.08563873171806,10.01521968841553,1.37019503116608,1.79344487190247,0.79062169790268
575,1887759159,-0.55173814296722,0.53392046689987,50.38649749755859,-0.10129339993000,-0.08878266811371,10.02709293365479,1.30715847015381,1.73724722862244,0.89625495672226
576,1887767492,-0.55079001188278,0.53444617986679,50.38571929931641,-0.09450680017471,-0.06405377388000,10.02719879150391,1.43594682216644,1.85489332675934,0.74185228347778
577,1887775825,-0.55097156763077,0.53378826379776,50.38620376586914,-0.10752408206463,-0.09105686098337,10.01723575592041,1.30198431015015,1.71527004241943,0.88644456863403
578,1887784158,-0.55078738927841,0.53450262546539,50.38570022583008,-0.09327755868435,-0.11082725971937,10.00149536132812,1.34327435493469,1.87712645530701,0.76669806241989
579,1887792491,-0.55020338296890,0.53442865610123,50.38583374023438,-0.11002790927887,-0.10011798888445,10.02935504913330,1.39358091354370,1.78414666652679,0.84510332345963
580,1887800824,-0.54969233274460,0.53444653749466,50.38595962524414,-0.10255372524261,-0.07335712760687,9.99265861511230,1.38259255886078,1.79462301731110,0.84264433383942
581,1887809157,-0.54937541484833,0.53395956754684,50.38581848144531,-0.10692952573299,-0.10729014128447,10.01326084136963,1.36028242111206,1.73489046096802,0.81144613027573
582,1887817490,-0.54944324493408,0.53415203094482,50.38479614257812,-0.09814187884331,-0.09634254127741,9.98827457427979,1.31450963020325,1.81544721126556,0.70898914337158
583,1887825823,-0.54974251985550,0.53511762619019,50.38459014892578,-0.12302085757256,-0.09909513592720,10.02035427093506,1.28815281391144,1.91109085083008,0.80494010448456
584,1887834156,-0.55036813020706,0.53479421138763,50.38526535034180,-0.09988107532263,-0.09821829199791,10.02667808532715,1.24601745605469,1.75028491020203,0.90637260675430
585,1887842489,-0.55082499980927,0.53490835428238,50.38505554199219,-0.09143014252186,-0.08995074033737,10.01121425628662,1.26883947849274,1.80791676044464,0.80534988641739
586,1887850822,-0.55135762691498,0.53543686866760,50.38452529907227,-0.10083076357841,-0.09094744175673,10.01300239562988,1.25803029537201,1.85627663135529,0.80020153522491
587,1887859155,-0.55217987298965,0.53547239303589,50.38487243652344,-0.07904701679945,-0.08817994594574,10.03391933441162,1.22375845909119,1.79680013656616,0.87069189548492
588,1887867488,-0.55250102281570,0.53546380996704,50.38468933105469,-0.09348140656948,-0.09019239246845,9.99826717376709,1.28377258777618,1.79129314422607,0.82371532917023
589,1887875821,-0.55222028493881,0.53454589843750,50.38401794433594,-0.11810647696257,-0.08988079428673,9.98919105529785,1.35725986957550,1.68432796001434,0.74718004465103
590,1887884154,-0.55118072032928,0.53484076261520,50.38395309448242,-0.10845206677914,-0.10108767449856,10.01012897491455,1.44652533531189,1.82687091827393,0.82855641841888
591,1887892487,-0.55126088857651,0.53439432382584,50.38436126708984,-0.10317911207676,-0.08696502447128,9.97700977325439,1.31297290325165,1.73947572708130,0.87804323434830
592,1887900820,-0.55078512430191,0.53517758846283,50.38472366333008,-0.10993014276028,-0.08418308943510,10.03727245330811,1.37795615196228,1.88450324535370,0.86121457815170
593,1887909153,-0.55097842216492,0.53599160909653,50.38444900512695,-0.10956311225891,-0.10056830942631,10.00717258453369,1.30139529705048,1.89305865764618,0.79569345712662
594,1887917486,-0.55083698034286,0.53685218095779,50.38507843017578,-0.12366961687803,-0.08205508440733,10.03713321685791,1.33799815177917,1.89341723918915,0.90301710367203
595,1887925819,-0.55098921060562,0.53744632005692,50.38545989990234,-0.11800472438335,-0.08857591450214,10.00319385528564,1.30339324474335,1.86503648757935,0.87535375356674
596,1887934152,-0.55031305551529,0.53809994459152,50.38578414916992,-0.10058350116014,-0.08901568502188,10.00621509552002,1.40298140048981,1.86836647987366,0.87010282278061
597,1887942485,-0.54960817098618,0.53815037012100,50.38514328002930,-0.10261530429125,-0.07987336069345,10.02004718780518,1.40846288204193,1.80184638500214,0.75109910964966
598,1887950818,-0.54971206188202,0.53817635774612,50.38477706909180,-0.11245091259480,-0.08009400963783,9.98183727264404,1.30964303016663,1.79475092887878,0.79249161481857
599,1887959151,-0.54937881231308,0.53714692592621,50.38465499877930,-0.09557837247849,-0.09761514514685,10.00426578521729,1.36230576038361,1.67016339302063,0.81318789720535
600,1887967484,-0.55054557323456,0.53673976659775,50.38429641723633,-0.09500258415937,-0.10450937598944,10.00419235229492,1.18239152431488,1.74242103099823,0.78332167863846
601,1887975817,-0.54944962263107,0.53838860988617,50.38373184204102,-0.10395137965679,-0.09001972526312,10.01255226135254,1.45638692378998,1.99326121807098,0.76267665624619
602,1887984150,-0.54942625761032,0.53862553834915,50.38402557373047,-0.08209528774023,-0.09947951883078,9.99825572967529,1.32355165481567,1.81923818588257,0.86331504583359
603,1887992483,-0.54887574911118,0.53822541236877,50.38446807861328,-0.11297048628330,-0.07414261996746,10.01790618896484,1.38794577121735,1.74544358253479,0.88278186321259
604,1888000816,-0.54870390892029,0.53779000043869,50.38543701171875,-0.10320983827114,-0.09777480363846,10.00362682342529,1.34260845184326,1.73763144016266,0.94484513998032
605,1888009149,-0.54955226182938,0.53688067197800,50.38540267944336,-0.12661688029766,-0.08633591979742,9.99601078033447,1.22091531753540,1.68555748462677,0.82174307107925
606,1888017482,-0.54935503005981,0.53791737556458,50.38525390625000,-0.13598199188709,-0.10569809377193,9.97749996185303,1.34645068645477,1.91536867618561,0.79474574327469
607,1888025815,-0.54853004217148,0.53847122192383,50.38591384887695,-0.11590561270714,-0.09847104549408,10.01436710357666,1.42016863822937,1.86004173755646,0.90852415561676
608,1888034148,-0.54837137460709,0.53930330276489,50.38613891601562,-0.11488283425570,-0.07052823901176,9.99033260345459,1.34007263183594,1.88995909690857,0.85107135772705
609,1888042481,-0.54899263381958,0.53853935003281,50.38562774658203,-0.09773576259613,-0.08615884184837,9.99928379058838,1.25034618377686,1.70376932621002,0.76636511087418
610,1888050814,-0.54928869009018,0.53842782974243,50.38548660278320,-0.08658419549465,-0.10517416149378,10.01838493347168,1.28564250469208,1.77846026420593,0.82082092761993
611,1888059147,-0.55013632774353,0.53802770376205,50.38531112670898,-0.10299801826477,-0.09936123341322,10.00785255432129,1.22222161293030,1.74557161331177,0.80821877717972
612,1888067480,-0.55014556646347,0.53724539279938,50.38502120971680,-0.09282357245684,-0.09828688204288,9.99452972412109,1.32109260559082,1.69718635082245,0.78665155172348
613,1888075813,-0.55008244514465,0.53659284114838,50.38510894775391,-0.08382554352283,-0.07785611599684,9.99954319000244,1.32941710948944,1.71593594551086,0.83951932191849
614,1888084146,-0.55051928758621,0.53562670946121,50.38509750366211,-0.08168807625771,-0.09906157851219,10.01693916320801,1.27065813541412,1.67531180381775,0.82481670379639
615,1888092479,-0.55102246999741,0.53498119115829,50.38523864746094,-0.09255271404982,-0.09713896363974,10.00565814971924,1.26110410690308,1.71649944782257,0.84523129463196
616,1888100812,-0.55085623264313,0.53464174270630,50.38546752929688,-0.11011469364166,-0.09879740327597,10.02370452880859,1.34194266796112,1.75084817409515,0.85455483198166
617,1888109145,-0.55032640695572,0.53502321243286,50.38515090942383,-0.10295894742012,-0.08609469234943,9.99250221252441,1.38704931735992,1.83998596668243,0.79146707057953
618,1888117478,-0.55063766241074,0.53588706254959,50.38455581665039,-0.10558163374662,-0.09744583070278,10.00802993774414,1.28443849086761,1.89503061771393,0.75307124853134
619,1888125811,-0.55077767372131,0.53567016124725,50.38405990600586,-0.11018422991037,-0.09838250279427,9.98678112030029,1.30715847015381,1.76826584339142,0.76925945281982
620,1888134144,-0.55102789402008,0.53572124242783,50.38339233398438,-0.12455324083567,-0.08545182645321,10.00839328765869,1.29358303546906,1.79874694347382,0.75214922428131
621,1888142477,-0.55027753114700,0.53660815954208,50.38359451293945,-0.11061720550060,-0.08997741341591,10.01034927368164,1.41245853900909,1.90061473846436,0.85258269309998
622,1888150810,-0.55046510696411,0.53589272499084,50.38323211669922,-0.12500387430191,-0.07890270650387,9.99905109405518,1.30070352554321,1.70522916316986,0.78268134593964
623,1888159143,-0.55099666118622,0.53641891479492,50.38356781005859,-0.12023194879293,-0.10429707914591,10.01066017150879,1.25769734382629,1.85653269290924,0.86915498971939
624,1888167476,-0.55065131187439,0.53511613607407,50.38374710083008,-0.10958702117205,-0.08537859469652,9.98193931579590,1.36256206035614,1.63425207138062,0.88641899824142
625,1888175809,-0.55084407329559,0.53573298454285,50.38296508789062,-0.11163937300444,-0.09327252209187,10.00438976287842,1.30129289627075,1.86823844909668,0.73680627346039
626,1888184142,-0.55044746398926,0.53481483459473,50.38309097290039,-0.09792309254408,-0.10528301447630,10.00933742523193,1.36853003501892,1.68048584461212,0.84425795078278
627,1888192475,-0.55105131864548,0.53365421295166,50.38360214233398,-0.10257024317980,-0.08957835286856,9.99024963378906,1.25098645687103,1.65499973297119,0.89000499248505
628,1888200808,-0.55070739984512,0.53414952754974,50.38390350341797,-0.08623853325844,-0.10942436754704,9.98247909545898,1.36181914806366,1.85035955905914,0.86436516046524
629,1888209141,-0.55083000659943,0.53373599052429,50.38418960571289,-0.09863304346800,-0.09174139797688,9.99092960357666,1.30841338634491,1.74318945407867,0.86405777931213
630,1888217474,-0.55105072259903,0.53405731916428,50.38448333740234,-0.08552186191082,-0.09844987839460,9.99410629272461,1.29509401321411,1.82971441745758,0.86405777931213
631,1888225807,-0.55063927173615,0.53393286466599,50.38538742065430,-0.08950226008892,-0.08520009368658,10.00291728973389,1.37193691730499,1.77792263031006,0.93710964918137
632,1888234140,-0.55085700750351,0.53438150882721,50.38575363159180,-0.09671921283007,-0.08751644194126,9.99172306060791,1.29376232624054,1.84459638595581,0.86987233161926
633,1888242473,-0.55152189731598,0.53391522169113,50.38547134399414,-0.10362631827593,-0.09195031970739,10.00004196166992,1.24407064914703,1.73983430862427,0.79203063249588
634,1888250806,-0.55173367261887,0.53388839960098,50.38509750366211,-0.11255601793528,-0.09543348103762,10.00888156890869,1.29765558242798,1.78793752193451,0.79384917020798
635,1888259139,-0.55174934864044,0.53316950798035,50.38459014892578,-0.10578271746635,-0.11904808878899,10.03375625610352,1.32122063636780,1.70720148086548,0.76869595050812
636,1888267472,-0.55149191617966,0.53230673074722,50.38462448120117,-0.11798556149006,-0.08209164440632,10.02636241912842,1.35234177112579,1.68786275386810,0.82066726684570
637,1888275805,-0.55128651857376,0.53253722190857,50.38512420654297,-0.10626365989447,-0.10231210291386,10.00600051879883,1.34780824184418,1.82200467586517,0.88872438669205
638,1888284138,-0.55127322673798,0.53303641080856,50.38548660278320,-0.11954153329134,-0.08842708170414,10.01831436157227,1.32232213020325,1.85023164749146,0.85837137699127
639,1888292471,-0.55128276348114,0.53376847505569,50.38547897338867,-0.10890802741051,-0.11755695194006,10.02690982818604,1.32252693176270,1.88181388378143,0.82812106609344
640,1888300804,-0.55202680826187,0.53365814685822,50.38482666015625,-0.10739630460739,-0.07978272438049,10.02184867858887,1.23318457603455,1.77802503108978,0.74689829349518
641,1888309137,-0.55211389064789,0.53336769342422,50.38455200195312,-0.11297355592251,-0.09291916340590,9.97428321838379,1.31240928173065,1.76001799106598,0.79579579830170
642,1888317470,-0.55209809541702,0.53263521194458,50.38448715209961,-0.08663934469223,-0.08706498146057,10.03028678894043,1.32355153560638,1.70207870006561,0.83808493614197
643,1888325803,-0.55250245332718,0.53152382373810,50.38525009155273,-0.10796558111906,-0.06592065840960,10.01584815979004,1.27393674850464,1.66032767295837,0.91897475719452
644,1888334136,-0.55166190862656,0.53126144409180,50.38509750366211,-0.10280634462833,-0.08606072515249,10.03174400329590,1.42214095592499,1.75996696949005,0.81062656641006
645,1888342469,-0.55059880018234,0.53117829561234,50.38442230224609,-0.10831359773874,-0.09381441771984,10.01992702484131,1.45228874683380,1.78368556499481,0.74784606695175
646,1888350802,-0.55041515827179,0.53068053722382,50.38365554809570,-0.11275066435337,-0.10881953686476,9.98947811126709,1.34350514411926,1.73214995861053,0.74026423692703
647,1888359135,-0.55017864704132,0.53128224611282,50.38395690917969,-0.09104770421982,-0.08711862564087,9.98253345489502,1.35252118110657,1.86624038219452,0.86416023969650
648,1888367468,-0.55075305700302,0.53124445676804,50.38420867919922,-0.11691963672638,-0.09967935830355,9.98278045654297,1.25190854072571,1.78675937652588,0.85703945159912
649,1888375801,-0.55103397369385,0.53118002414703,50.38423538208008,-0.13240200281143,-0.08429939299822,10.00792598724365,1.28940773010254,1.78476142883301,0.83283394575119
650,1888384134,-0.55082345008850,0.53105396032333,50.38337707519531,-0.08979876339436,-0.07674866914749,10.01474857330322,1.34747517108917,1.77766621112823,0.69805192947388
651,1888392467,-0.55078548192978,0.53170806169510,50.38349533081055,-0.09941243380308,-0.09716311097145,10.01152133941650,1.32777786254883,1.87259280681610,0.84425795078278
652,1888400800,-0.55069589614868,0.53186196088791,50.38341522216797,-0.10036200284958,-0.09579656273127,9.99423599243164,1.33233714103699,1.81001698970795,0.81674820184708
653,1888409133,-0.55048686265945,0.53265064954758,50.38353729248047,-0.12718227505684,-0.12312243878841,10.01529121398926,1.34832060337067,1.88770532608032,0.84556442499161
654,1888417466,-0.55045217275620,0.53212791681290,50.38297271728516,-0.10931157320738,-0.08337481319904,10.01334667205811,1.32575440406799,1.72994697093964,0.75496673583984
655,1888425799,-0.55010139942169,0.53144478797913,50.38250732421875,-0.11056804656982,-0.10421632230282,10.00907135009766,1.36668586730957,1.71327209472656,0.77089881896973
656,1888434132,-0.55022740364075,0.53032666444778,50.38239288330078,-0.09788854420185,-0.09702184796333,10.04077148437500,1.30664622783661,1.65653681755066,0.81349539756775
657,1888442465,-0.55039906501770,0.52916812896729,50.38256072998047,-0.10948228091002,-0.09973306953907,10.00850582122803,1.30234289169312,1.65553760528564,0.84756219387054
658,1888450798,-0.55082935094833,0.52937525510788,50.38304901123047,-0.11041542142630,-0.10599274188280,9.98584365844727,1.26971030235291,1.81521666049957,0.88283300399780
659,1888459131,-0.55081510543823,0.53039395809174,50.38246917724609,-0.11776215583086,-0.08454240858555,10.02207565307617,1.32577991485596,1.91595757007599,0.76170331239700
660,1888467464,-0.55106371641159,0.53063482046127,50.38309097290039,-0.09420550614595,-0.09556750208139,10.01022243499756,1.29084217548370,1.81898200511932,0.91500449180603
661,1888475797,-0.55080258846283,0.53062051534653,50.38321304321289,-0.10752034187317,-0.08462893217802,9.98794555664062,1.35449349880219,1.79262518882751,0.84328472614288
662,1888484130,-0.55091667175293,0.52932214736938,50.38279724121094,-0.11982411146164,-0.10300295054913,9.98923397064209,1.30759382247925,1.63655734062195,0.80460715293884
663,1888492463,-0.55110609531403,0.52990055084229,50.38233566284180,-0.10630862414837,-0.07740528136492,10.03022575378418,1.30003774166107,1.86378133296967,0.77509951591492
664,1888500796,-0.55120867490768,0.53029388189316,50.38149642944336,-0.09171918779612,-0.10097710788250,9.99752521514893,1.31094932556152,1.83867931365967,0.79064738750458
665,1888509129,-0.55117213726044,0.52987724542618,50.38209533691406,-0.10913358628750,-0.10546986758709,10.01851081848145,1.32683026790619,1.74270308017731,0.89986652135849
666,1888517462,-0.55024659633636,0.53102469444275,50.38166809082031,-0.09286402165890,-0.11211238801479,9.99542427062988,1.43366718292236,1.93004560470581,0.77950519323349
667,1888525795,-0.55057024955750,0.53029739856720,50.38175582885742,-0.11872038245201,-0.10263008624315,10.00177955627441,1.28400313854218,1.70615124702454,0.83972424268723
668,1888534128,-0.55089807510376,0.52998697757721,50.38124465942383,-0.10973268747330,-0.10251896083355,9.99784564971924,1.28292751312256,1.75361466407776,0.76551985740662
669,1888542461,-0.55114752054214,0.52992206811905,50.38118743896484,-0.12451467663050,-0.09727995097637,10.00140571594238,1.29260957241058,1.78670823574066,0.82123076915741
670,1888550794,-0.55125361680984,0.53088527917862,50.38080978393555,-0.10035473853350,-0.10889850556850,10.00640964508057,1.30907952785492,1.90763306617737,0.78503793478012
671,1888559127,-0.55103063583374,0.53065270185471,50.38030242919922,-0.11499491333961,-0.09227898716927,10.01384544372559,1.35165035724640,1.76675486564636,0.76708227396011
672,1888567460,-0.55124008655548,0.53085523843765,50.38042068481445,-0.08755137026310,-0.08096896857023,10.02336883544922,1.29560637474060,1.81508862972260,0.88045090436935
673,1888575793,-0.55089795589447,0.53144425153732,50.38003921508789,-0.10074124485254,-0.09642795473337,9.99238872528076,1.36432933807373,1.86547195911407,0.78316795825958
674,1888584126,-0.55086362361908,0.53135263919830,50.38006973266602,-0.09607835114002,-0.09311369806528,9.98265647888184,1.32675325870514,1.77925431728363,0.84638392925262
675,1888592459,-0.55055427551270,0.53072386980057,50.37916946411133,-0.09673444926739,-0.09877215325832,10.01000881195068,1.36033356189728,1.71977806091309,0.72048997879028
676,1888600792,-0.55086702108383,0.53157144784927,50.37984085083008,-0.10429977625608,-0.10110592097044,10.03039741516113,1.28341412544250,1.89095818996429,0.90726906061172
677,1888609125,-0.55103844404221,0.53196728229523,50.37927627563477,-0.09772423654795,-0.07798911631107,10.03308105468750,1.30349564552307,1.84264969825745,0.76162654161453
678,1888617458,-0.55036979913712,0.53054869174957,50.37950134277344,-0.09691084176302,-0.10626991093159,10.00789928436279,1.40162360668182,1.62034356594086,0.85468298196793
679,1888625791,-0.54987382888794,0.53011351823807,50.37904739379883,-0.08932276070118,-0.09064456820488,10.00279808044434,1.38195192813873,1.74244666099548,0.77586793899536
680,1888634124,-0.54947543144226,0.53002959489822,50.37930679321289,-0.08337309211493,-0.10362915694714,10.00106906890869,1.37063062191010,1.78135490417480,0.86377608776093
681,1888642457,-0.55030435323715,0.53029596805573,50.37991333007812,-0.11144421994686,-0.09910815209150,9.99966239929199,1.22291302680969,1.82551360130310,0.90060919523239
682,1888650790,-0.55031907558441,0.52975529432297,50.37927627563477,-0.10238464921713,-0.09101184457541,10.01353263854980,1.32014501094818,1.72659146785736,0.77433115243912
683,1888659123,-0.55006200075150,0.52923136949539,50.37943267822266,-0.12300716340542,-0.11483873426914,10.00773334503174,1.35457050800323,1.73143255710602,0.84610217809677
684,1888667456,-0.54971700906754,0.52962005138397,50.37917327880859,-0.11894232034683,-0.09179751574993,9.99687099456787,1.36228013038635,1.83821845054626,0.78450006246567
685,1888675789,-0.55073630809784,0.52985954284668,50.37915039062500,-0.10652522742748,-0.10156117379665,10.00588512420654,1.20108985900879,1.82338774204254,0.82579004764557
686,1888684122,-0.55064326524734,0.52992218732834,50.37936019897461,-0.09983763843775,-0.08448025584221,10.00042819976807,1.33220922946930,1.79756879806519,0.84543627500534
687,1888692455,-0.55068606138229,0.52945429086685,50.37918853759766,-0.10614015161991,-0.10842680186033,10.00153160095215,1.31858229637146,1.73832273483276,0.80926889181137
688,1888700788,-0.55127793550491,0.53063148260117,50.37913513183594,-0.10187888890505,-0.07755913585424,10.00840854644775,1.25114023685455,1.93301677703857,0.82033431529999
689,1888709121,-0.55063128471375,0.53085958957672,50.37837600708008,-0.08462406694889,-0.10450709611177,10.00340843200684,1.40203368663788,1.82169723510742,0.73923969268799
690,1888717454,-0.55024695396423,0.53157132863998,50.37817764282227,-0.10811922699213,-0.09605216234922,10.00072860717773,1.36801791191101,1.87643480300903,0.80867981910706
691,1888725787,-0.55117672681808,0.53208702802658,50.37780380249023,-0.08675082027912,-0.09416557848454,9.99746894836426,1.21125876903534,1.85660934448242,0.78324490785599
692,1888734120,-0.55052781105042,0.53269439935684,50.37756729125977,-0.09219699352980,-0.10321847349405,10.03845691680908,1.39995884895325,1.86501097679138,0.81587749719620
693,1888742453,-0.55131894350052,0.53202474117279,50.37747955322266,-0.09068718552589,-0.06546624749899,9.99554061889648,1.22898375988007,1.71332347393036,0.81677395105362
