sep=,
DeviceTag:,left leg
FirmwareVersion:,2.2.1
AppVersion:,2023.6.0
StartTime: ,2025-03-06_12:42:08_000 PST
© Movella Technologies B. V. 2005-2025

PacketCounter,SampleTimeFine,Euler_X,Euler_Y,Euler_Z,Acc_X,Acc_Y,Acc_Z,Gyr_X,Gyr_Y,Gyr_Z
0,1952264912,-0.57409769296646,0.55189657211304,50.41911697387695,0.00000000000000,0.00000000000000,0.00000000000000,0.00000000000000,0.00000000000000,0.00000000000000
1,1952273245,-0.57395356893539,0.55160206556320,50.41896057128906,-0.11714645475149,-0.11204217374325,10.00321102142334,1.33713996410370,1.76010787487030,0.81681233644485
2,1952281578,-0.57473105192184,0.55023425817490,50.41848754882812,-0.10901347547770,-0.07879526913166,10.00669765472412,1.22520565986633,1.62955200672150,0.76750487089157
3,1952289911,-0.57472640275955,0.54995381832123,50.41859054565430,-0.11993377655745,-0.09835164248943,10.00637817382812,1.32049059867859,1.76228487491608,0.84826660156250
4,1952298244,-0.57508206367493,0.54974359273911,50.41829681396484,-0.13113756477833,-0.07577920705080,10.01090240478516,1.27589619159698,1.76868844032288,0.80031681060791
5,1952306577,-0.57584851980209,0.55075699090958,50.41868209838867,-0.10397799313068,-0.08021511882544,9.98358058929443,1.22745990753174,1.91835260391235,0.88302522897720
6,1952314910,-0.57586997747421,0.54939728975296,50.41897964477539,-0.10428889095783,-0.08205585181713,9.99388980865479,1.31544458866119,1.62868106365204,0.85641193389893
7,1952323243,-0.57535982131958,0.54981774091721,50.41873550415039,-0.10931795835495,-0.06206749007106,10.02531147003174,1.38204157352448,1.84765732288361,0.80664354562759
8,1952331576,-0.57566201686859,0.54993999004364,50.41807937622070,-0.12764328718185,-0.08052787929773,10.01361274719238,1.28214609622955,1.80987608432770,0.78730469942093
9,1952339909,-0.57554221153259,0.55058199167252,50.41830825805664,-0.08277069032192,-0.05051553621888,10.02473831176758,1.33370780944824,1.87309229373932,0.86345595121384
10,1952348242,-0.57550072669983,0.55020445585251,50.41792297363281,-0.10553530603647,-0.07640221714973,9.98665904998779,1.32384598255157,1.74883735179901,0.77974849939346
11,1952356575,-0.57561349868774,0.54983347654343,50.41702270507812,-0.07925634086132,-0.08063878864050,9.98204040527344,1.30663323402405,1.75288450717926,0.72877615690231
12,1952364908,-0.57627254724503,0.55038988590240,50.41643142700195,-0.10204517841339,-0.10105486959219,9.98216819763184,1.24019002914429,1.86120712757111,0.72447293996811
13,1952373241,-0.57629042863846,0.55075383186340,50.41712570190430,-0.08065461367369,-0.07010553777218,9.97459983825684,1.31657171249390,1.83864104747772,0.92062687873840
14,1952381574,-0.57626128196716,0.55025571584702,50.41740798950195,-0.09020890295506,-0.07115656137466,9.98675918579102,1.32192504405975,1.73436558246613,0.87103778123856
15,1952389907,-0.57611566781998,0.55144733190536,50.41696166992188,-0.09011401236057,-0.07431557029486,10.03133678436279,1.33798503875732,1.93933045864105,0.78387236595154
16,1952398240,-0.57667505741119,0.55219149589539,50.41706085205078,-0.11093094944954,-0.08813751488924,10.01285171508789,1.25051259994507,1.88326096534729,0.81850284337997
17,1952406573,-0.57679390907288,0.55264198780060,50.41686248779297,-0.09890334308147,-0.09561837464571,10.01304817199707,1.30617225170135,1.85126900672913,0.81217622756958
18,1952414906,-0.57682299613953,0.55156964063644,50.41640090942383,-0.11494633555412,-0.10321599990129,10.00805282592773,1.31541895866394,1.66446423530579,0.77401089668274
19,1952423239,-0.57701933383942,0.55134016275406,50.41648101806641,-0.14258563518524,-0.12573187053204,10.02575397491455,1.29664373397827,1.76925194263458,0.84337425231934
20,1952431572,-0.57732510566711,0.55126684904099,50.41702651977539,-0.13544943928719,-0.07986807078123,9.99397087097168,1.28089106082916,1.78290462493896,0.91102153062820
21,1952439905,-0.57783681154251,0.55203115940094,50.41649627685547,-0.12421879172325,-0.08552178740501,10.02391433715820,1.25883734226227,1.88956224918365,0.77208995819092
22,1952448238,-0.57813948392868,0.55156713724136,50.41628646850586,-0.10724305361509,-0.09216284006834,10.00120735168457,1.28171062469482,1.73659384250641,0.87918299436569
23,1952456571,-0.57826304435730,0.55106782913208,50.41616821289062,-0.11701849102974,-0.10278000682592,10.01383972167969,1.30519890785217,1.73710632324219,0.81945055723190
24,1952464904,-0.57827490568161,0.55168205499649,50.41657638549805,-0.11481440067291,-0.09304735809565,10.03444576263428,1.31590569019318,1.86750841140747,0.92462265491486
25,1952473237,-0.57755416631699,0.55110496282578,50.41733551025391,-0.11207960546017,-0.08760964870453,10.01464748382568,1.40476155281067,1.72560548782349,0.92646694183350
26,1952481570,-0.57692462205887,0.55137223005295,50.41652679443359,-0.09430997818708,-0.09996569156647,10.03116607666016,1.39446461200714,1.82580840587616,0.73758757114410
27,1952489903,-0.57707762718201,0.55030941963196,50.41570281982422,-0.08038826286793,-0.07481405884027,10.03089332580566,1.30276548862457,1.67035543918610,0.73374533653259
28,1952498236,-0.57722038030624,0.55057066679001,50.41580581665039,-0.09002785384655,-0.09025242924690,9.97863388061523,1.30151069164276,1.82478392124176,0.84988039731979
29,1952506569,-0.57695239782333,0.55093502998352,50.41570281982422,-0.10738437622786,-0.08958563208580,10.00554084777832,1.35133016109467,1.83910214900970,0.82290858030319
30,1952514902,-0.57705783843994,0.55178231000900,50.41579437255859,-0.08732763677835,-0.11255483329296,9.99826431274414,1.30601847171783,1.89578628540039,0.83889180421829
31,1952523235,-0.57639825344086,0.55186843872070,50.41638565063477,-0.09704177826643,-0.08655501902103,9.98666763305664,1.39797377586365,1.80639278888702,0.90740996599197
32,1952531568,-0.57646238803864,0.55191957950592,50.41585922241211,-0.11226075887680,-0.10322368144989,10.03867435455322,1.31144869327545,1.80119287967682,0.76373964548111
33,1952539901,-0.57636785507202,0.55219227075577,50.41505432128906,-0.12616623938084,-0.09348339587450,9.99720001220703,1.33211958408356,1.82867729663849,0.73943173885345
34,1952548234,-0.57631850242615,0.55242860317230,50.41453170776367,-0.12137676775455,-0.10430391132832,10.01539802551270,1.32517814636230,1.82322144508362,0.77416467666626
35,1952556567,-0.57656025886536,0.55304807424545,50.41437149047852,-0.13004690408707,-0.11836453527212,10.02323055267334,1.29080379009247,1.87132501602173,0.81627446413040
36,1952564900,-0.57650017738342,0.55365449190140,50.41430282592773,-0.12994118034840,-0.08061760663986,10.02174663543701,1.32466590404510,1.86581790447235,0.83261632919312
37,1952573233,-0.57635194063187,0.55517435073853,50.41487503051758,-0.12535987794399,-0.10461273789406,10.01870155334473,1.33801066875458,1.97916066646576,0.90556561946869
38,1952581566,-0.57584571838379,0.55472177267075,50.41405868530273,-0.14524218440056,-0.09484712034464,10.01694011688232,1.37912166118622,1.73910403251648,0.81125402450562
39,1952589899,-0.57645839452744,0.55376309156418,50.41382980346680,-0.10958000272512,-0.09680531919003,10.02321720123291,1.24585080146790,1.68160009384155,0.80789864063263
40,1952598232,-0.57717555761337,0.55429565906525,50.41402435302734,-0.10070804506540,-0.09995140880346,9.99976253509521,1.23196780681610,1.85657095909119,0.84004443883896
41,1952606565,-0.57702636718750,0.55465883016586,50.41416549682617,-0.06950751692057,-0.10561551153660,10.00322341918945,1.33813881874084,1.83979392051697,0.85374814271927
42,1952614898,-0.57709580659866,0.55425578355789,50.41518402099609,-0.08388386666775,-0.08958509564400,10.03945064544678,1.30847740173340,1.74476480484009,0.93128234148026
43,1952623231,-0.57634007930756,0.55498230457306,50.41534042358398,-0.08191330730915,-0.06542845070362,10.01679420471191,1.41065287590027,1.88221108913422,0.85753905773163
44,1952631564,-0.57637953758240,0.55520486831665,50.41569900512695,-0.10091771930456,-0.09149558842182,10.02024364471436,1.31244790554047,1.82127439975739,0.87841451168060
45,1952639897,-0.57640284299850,0.55509549379349,50.41506958007812,-0.10910710692406,-0.09228445589542,10.00398254394531,1.31831336021423,1.78467178344727,0.76064032316208
46,1952648230,-0.57679426670074,0.55567729473114,50.41495132446289,-0.11378299444914,-0.10637316852808,10.00800991058350,1.27115762233734,1.86241102218628,0.81993722915649
47,1952656563,-0.57669228315353,0.55593335628510,50.41469573974609,-0.10464922338724,-0.08717700093985,10.00353336334229,1.33217072486877,1.82755005359650,0.80618244409561
48,1952664896,-0.57599985599518,0.55574744939804,50.41469192504883,-0.10174108296633,-0.08971522748470,10.02163028717041,1.40104746818542,1.77076339721680,0.84114593267441
49,1952673229,-0.57635086774826,0.55573946237564,50.41426467895508,-0.12963452935219,-0.07257412374020,9.99530792236328,1.27894425392151,1.79681301116943,0.78236114978790
50,1952681562,-0.57665967941284,0.55630439519882,50.41400527954102,-0.14146701991558,-0.07678894698620,10.00066471099854,1.28173613548279,1.86212897300720,0.80841082334518
51,1952689895,-0.57721114158630,0.55548816919327,50.41366195678711,-0.12844043970108,-0.09179399907589,10.01807117462158,1.25391924381256,1.69753217697144,0.79235076904297
52,1952698228,-0.57699364423752,0.55637633800507,50.41299819946289,-0.11638066917658,-0.09889726340771,9.98997688293457,1.34469604492188,1.90170311927795,0.77144950628281
53,1952706561,-0.57593250274658,0.55695992708206,50.41305160522461,-0.10780652612448,-0.11052828282118,10.00090885162354,1.44748604297638,1.86673986911774,0.84406590461731
54,1952714894,-0.57556951045990,0.55673724412918,50.41266250610352,-0.11810408532619,-0.11572276055813,10.00282478332520,1.36211383342743,1.76622974872589,0.81453269720078
55,1952723227,-0.57539403438568,0.55759549140930,50.41161727905273,-0.08935717493296,-0.08560859411955,9.99922752380371,1.34152007102966,1.89950037002563,0.71294665336609
56,1952731560,-0.57568436861038,0.55823922157288,50.41114807128906,-0.07685090601444,-0.09460062533617,10.01703453063965,1.28401601314545,1.87163233757019,0.78284788131714
57,1952739893,-0.57553970813751,0.55754703283310,50.41119003295898,-0.08879615366459,-0.09774862229824,10.02594470977783,1.33739614486694,1.71356666088104,0.83986508846283
58,1952748226,-0.57621878385544,0.55750340223312,50.41106033325195,-0.07887655496597,-0.08690888434649,9.97445869445801,1.23657834529877,1.78843700885773,0.81519860029221
59,1952756559,-0.57706898450851,0.55709016323090,50.41077041625977,-0.08472207933664,-0.10533455014229,10.01365756988525,1.21793103218079,1.74658334255219,0.80139255523682
60,1952764892,-0.57678490877151,0.55690580606461,50.41069793701172,-0.09038454294205,-0.10641382634640,9.99172687530518,1.35189366340637,1.77081453800201,0.85067433118820
61,1952773225,-0.57735502719879,0.55738538503647,50.41033554077148,-0.09356685727835,-0.09114908427000,9.99020004272461,1.25230550765991,1.85439360141754,0.79299104213715
62,1952781558,-0.57768249511719,0.55728489160538,50.41060256958008,-0.11912905424833,-0.10029026865959,10.01579093933105,1.27873933315277,1.78275072574615,0.86604285240173
63,1952789891,-0.57785922288895,0.55821448564529,50.41094970703125,-0.13059967756271,-0.08588785678148,10.02582359313965,1.29866743087769,1.90669786930084,0.87882441282272
64,1952798224,-0.57719308137894,0.55808967351913,50.41076278686523,-0.11381093412638,-0.09899101406336,10.01637268066406,1.39769196510315,1.77865254878998,0.81650501489639
65,1952806557,-0.57712918519974,0.55830895900726,50.41064071655273,-0.11562634259462,-0.09672749042511,10.00305938720703,1.32837998867035,1.82293951511383,0.82165348529816
66,1952814890,-0.57732725143433,0.55693781375885,50.41138839721680,-0.12889677286148,-0.09765337407589,10.01140689849854,1.29341638088226,1.62724673748016,0.92490440607071
67,1952823223,-0.57715946435928,0.55756425857544,50.41157531738281,-0.10033333301544,-0.08361175656319,9.98356246948242,1.33985507488251,1.87222146987915,0.85925519466400
68,1952831556,-0.57754993438721,0.55676501989365,50.41140747070312,-0.08215028047562,-0.09064058959484,10.00663185119629,1.27095270156860,1.69850564002991,0.78750973939896
69,1952839889,-0.57763141393661,0.55677783489227,50.41093826293945,-0.08982972055674,-0.09853582084179,10.02425670623779,1.31088519096375,1.79732525348663,0.77895450592041
70,1952848222,-0.57773381471634,0.55637794733047,50.41132354736328,-0.07878851145506,-0.06425093859434,10.01966857910156,1.30550611019135,1.74586617946625,0.87849134206772
71,1952856555,-0.57829755544662,0.55601125955582,50.41150665283203,-0.10389832407236,-0.07979599386454,10.04310798645020,1.25235676765442,1.75178301334381,0.85582274198532
72,1952864888,-0.57816112041473,0.55620992183685,50.41099548339844,-0.08172239363194,-0.07293241471052,9.99636554718018,1.33532130718231,1.81850838661194,0.78379559516907
73,1952873221,-0.57807749509811,0.55638682842255,50.41097259521484,-0.07401058077812,-0.06976640224457,10.04898357391357,1.32953262329102,1.81748366355896,0.83463990688324
74,1952881554,-0.57830953598022,0.55622327327728,50.41048049926758,-0.08702224493027,-0.08593282848597,9.99126720428467,1.29100871086121,1.77260768413544,0.77851903438568
75,1952889887,-0.57876461744308,0.55624938011169,50.41147232055664,-0.10458555072546,-0.09602560847998,10.00570678710938,1.26401126384735,1.79924643039703,0.95261907577515
76,1952898220,-0.57870781421661,0.55600154399872,50.41125488281250,-0.11346194893122,-0.09809989482164,9.99918365478516,1.32504999637604,1.76377058029175,0.81558281183243
77,1952906553,-0.57880437374115,0.55561357736588,50.41136932373047,-0.12188456207514,-0.06554520130157,9.99880695343018,1.30847764015198,1.75004136562347,0.84895813465118
78,1952914886,-0.57927381992340,0.55530458688736,50.41124343872070,-0.12658232450485,-0.08497454226017,10.04215335845947,1.26219248771667,1.75736689567566,0.83435803651810
79,1952923219,-0.57953554391861,0.55485570430756,50.41131591796875,-0.12117880582809,-0.09560910612345,9.98673534393311,1.28755068778992,1.74243390560150,0.84273397922516
80,1952931552,-0.58002340793610,0.55562841892242,50.41170883178711,-0.12370706349611,-0.09290593117476,9.99026107788086,1.25983631610870,1.88561761379242,0.86855316162109
81,1952939885,-0.58024495840073,0.55570697784424,50.41158294677734,-0.12028706073761,-0.06316277384758,10.02842617034912,1.29285275936127,1.80590593814850,0.81952738761902
82,1952948218,-0.57992589473724,0.55556428432465,50.41120147705078,-0.11882682144642,-0.10103560984135,10.02173614501953,1.35670912265778,1.77611660957336,0.78548610210419
83,1952956551,-0.58034425973892,0.55501997470856,50.41175842285156,-0.10768377780914,-0.09604772180319,9.99444007873535,1.26928770542145,1.73113799095154,0.90287607908249
84,1952964884,-0.58006125688553,0.55562531948090,50.41178894042969,-0.10354482382536,-0.08064761757851,10.03064155578613,1.35253405570984,1.86566400527954,0.83748304843903
85,1952973217,-0.58001536130905,0.55612790584564,50.41178894042969,-0.09692868590355,-0.09331958740950,10.00607204437256,1.32553672790527,1.85698091983795,0.83594620227814
86,1952981550,-0.57969164848328,0.55648928880692,50.41181182861328,-0.08939575403929,-0.09203799813986,9.99110221862793,1.35678589344025,1.83595144748688,0.84865081310272
87,1952989883,-0.58021026849747,0.55645418167114,50.41254806518555,-0.08236349374056,-0.08460743725300,10.00671672821045,1.25678825378418,1.79087054729462,0.92467391490936
88,1952998216,-0.57953935861588,0.55678099393845,50.41274642944336,-0.07736463844776,-0.09003499895334,10.00863647460938,1.39810192584991,1.83349263668060,0.86862999200821
89,1953006549,-0.57985860109329,0.55684113502502,50.41296386718750,-0.09081447869539,-0.06711934506893,10.01829433441162,1.28140330314636,1.80208945274353,0.86127859354019
90,1953014882,-0.57974499464035,0.55674558877945,50.41193008422852,-0.12273605167866,-0.07418592274189,9.99975204467773,1.33247816562653,1.78421080112457,0.74319708347321
91,1953023215,-0.57927429676056,0.55696499347687,50.41191482543945,-0.09503884613514,-0.06864609569311,9.98371124267578,1.37668848037720,1.82229924201965,0.83446061611176
92,1953031548,-0.57970023155212,0.55670303106308,50.41213607788086,-0.11109621077776,-0.09443273395300,9.99852466583252,1.26567625999451,1.76136279106140,0.86775898933411
93,1953039881,-0.58008706569672,0.55645209550858,50.41173171997070,-0.12048326432705,-0.06974238902330,10.04172992706299,1.27418005466461,1.76740777492523,0.78576791286469
94,1953048214,-0.57978141307831,0.55693846940994,50.41197967529297,-0.11313273757696,-0.07312911003828,10.01661300659180,1.35460865497589,1.85229313373566,0.86337900161743
95,1953056547,-0.57979661226273,0.55731987953186,50.41226577758789,-0.12344066798687,-0.09896153211594,10.02955245971680,1.31831347942352,1.84127938747406,0.87116581201553
96,1953064880,-0.58025014400482,0.55814683437347,50.41132354736328,-0.10031119734049,-0.08749071508646,9.98735237121582,1.26383197307587,1.89332735538483,0.75659328699112
97,1953073213,-0.57970130443573,0.55779963731766,50.41130065917969,-0.10661666095257,-0.08685318380594,10.00850200653076,1.38573026657104,1.75493383407593,0.83195042610168
98,1953081546,-0.57909893989563,0.55800783634186,50.41043472290039,-0.11725793033838,-0.08966148644686,10.02677249908447,1.39198005199432,1.81955838203430,0.73651176691055
99,1953089879,-0.57883846759796,0.55791908502579,50.41159057617188,-0.09357745945454,-0.08683695644140,10.00392723083496,1.34946048259735,1.78382647037506,0.97492903470993
100,1953098212,-0.57849806547165,0.55746370553970,50.41094207763672,-0.10465188324451,-0.07546884566545,9.99385356903076,1.35927045345306,1.74079453945160,0.76996380090714
101,1953106545,-0.57820624113083,0.55732882022858,50.41141891479492,-0.10288857668638,-0.09952206164598,10.03290939331055,1.35476267337799,1.77834522724152,0.89211821556091
102,1953114878,-0.57835233211517,0.55755919218063,50.41039657592773,-0.08910159021616,-0.09380055218935,10.02630901336670,1.30110073089600,1.82242703437805,0.76299685239792
103,1953123211,-0.57835394144058,0.55668133497238,50.41009521484375,-0.10265441983938,-0.09393715858459,9.98515796661377,1.31997835636139,1.69028329849243,0.79703807830811
104,1953131544,-0.57841747999191,0.55763429403305,50.41012573242188,-0.09365990012884,-0.08475045114756,10.00975608825684,1.31034743785858,1.90925967693329,0.84158140420914
105,1953139877,-0.57937014102936,0.55651712417603,50.41027832031250,-0.09566778689623,-0.08657801896334,10.01077938079834,1.20561099052429,1.66085267066956,0.85180145502090
106,1953148210,-0.57934892177582,0.55720019340515,50.41047286987305,-0.10372104495764,-0.07167991995811,10.00343704223633,1.31995284557343,1.87652468681335,0.86148363351822
107,1953156543,-0.58014196157455,0.55664491653442,50.41032791137695,-0.08739841729403,-0.08765334635973,9.99125385284424,1.22494935989380,1.72944748401642,0.81747835874557
108,1953164876,-0.57994687557220,0.55622923374176,50.40920257568359,-0.12161748856306,-0.09894689172506,10.02107048034668,1.34292876720428,1.74509799480438,0.71525192260742
109,1953173209,-0.58013457059860,0.55755507946014,50.40848159790039,-0.11393342912197,-0.09413530677557,10.02031707763672,1.29853940010071,1.95679974555969,0.75164979696274
110,1953181542,-0.57986062765121,0.55856043100357,50.40800476074219,-0.11708737164736,-0.09037791937590,10.00466060638428,1.35127902030945,1.91343462467194,0.78558862209320
111,1953189875,-0.57923972606659,0.55826276540756,50.40870666503906,-0.12915375828743,-0.09612863510847,10.00286674499512,1.39367043972015,1.76069712638855,0.91942298412323
112,1953198208,-0.57899111509323,0.55814719200134,50.40871429443359,-0.10752810537815,-0.09573494642973,10.02809619903564,1.34743678569794,1.77901113033295,0.87134510278702
113,1953206541,-0.57914656400681,0.55747729539871,50.40886306762695,-0.12162270396948,-0.09056638181210,10.01389312744141,1.30087006092072,1.71510350704193,0.85180133581161
114,1953214874,-0.57963693141937,0.55646389722824,50.40874481201172,-0.11314547061920,-0.07020159810781,10.02800750732422,1.25937521457672,1.67268633842468,0.81179189682007
115,1953223207,-0.57999664545059,0.55700820684433,50.40943145751953,-0.11375680565834,-0.07716161012650,10.02652740478516,1.27620351314545,1.86031067371368,0.92070364952087
116,1953231540,-0.57949537038803,0.55656552314758,50.40876770019531,-0.09803460538387,-0.06884099543095,10.00222969055176,1.37845563888550,1.73989808559418,0.79962521791458
117,1953239873,-0.57830137014389,0.55610632896423,50.40968322753906,-0.11213219165802,-0.08909261971712,10.00995635986328,1.46188139915466,1.74010324478149,0.94391030073166
118,1953248206,-0.57842248678207,0.55606895685196,50.40878677368164,-0.08055885881186,-0.09727481007576,9.99782085418701,1.30345714092255,1.79092168807983,0.76681333780289
119,1953256539,-0.57910263538361,0.55652934312820,50.40847015380859,-0.08545000106096,-0.09575957059860,10.00168323516846,1.23878121376038,1.85249817371368,0.79744797945023
120,1953264872,-0.57853406667709,0.55635660886765,50.40768432617188,-0.10588914155960,-0.08762505650520,10.00743770599365,1.38665235042572,1.77373456954956,0.76017928123474
121,1953273205,-0.57786214351654,0.55637943744659,50.40721130371094,-0.10660739243031,-0.08017506450415,10.00029087066650,1.40140581130981,1.79891324043274,0.77728956937790
122,1953281538,-0.57833099365234,0.55597048997879,50.40737152099609,-0.10021793097258,-0.08844882249832,10.02208805084229,1.26075816154480,1.74340724945068,0.86663198471069
123,1953289871,-0.57836639881134,0.55718481540680,50.40749740600586,-0.10439974814653,-0.09687152504921,10.01152229309082,1.31608510017395,1.94312155246735,0.85205757617950
124,1953298204,-0.57824331521988,0.55811452865601,50.40769195556641,-0.12116225063801,-0.10193228721619,10.02274417877197,1.33309280872345,1.90459764003754,0.83522897958755
125,1953306537,-0.57796859741211,0.55849081277847,50.40710067749023,-0.11293022334576,-0.08778556436300,9.99113559722900,1.35330259799957,1.84222686290741,0.76502037048340
126,1953314870,-0.57726460695267,0.55800926685333,50.40744018554688,-0.11555087566376,-0.08575718104839,9.99112129211426,1.40109872817993,1.73487770557404,0.89929026365280
127,1953323203,-0.57761043310165,0.55854713916779,50.40747451782227,-0.10633118450642,-0.10219145566225,9.99997711181641,1.27863693237305,1.86028504371643,0.83994191884995
128,1953331536,-0.57721382379532,0.55925250053406,50.40676116943359,-0.12256633490324,-0.07416347414255,9.98898696899414,1.36634016036987,1.87934219837189,0.76404708623886
129,1953339869,-0.57665371894836,0.55911725759506,50.40713119506836,-0.12030665576458,-0.06866524368525,10.05827045440674,1.38729250431061,1.78006124496460,0.88007950782776
130,1953348202,-0.57633882761002,0.55938702821732,50.40790557861328,-0.10425053536892,-0.08948274701834,10.01340293884277,1.35401976108551,1.82560348510742,0.92541676759720
131,1953356535,-0.57648283243179,0.55917441844940,50.40751647949219,-0.11784441769123,-0.08876515179873,10.02690601348877,1.30320096015930,1.77035331726074,0.78891837596893
132,1953364868,-0.57676523923874,0.55815672874451,50.40781402587891,-0.11136982589960,-0.09329947084188,10.01167964935303,1.28414404392242,1.67114949226379,0.85820490121841
133,1953373201,-0.57716763019562,0.55740094184875,50.40811157226562,-0.10624184459448,-0.09194926917553,10.00999164581299,1.27095270156860,1.70501148700714,0.87006431818008
134,1953381534,-0.57733982801437,0.55713790655136,50.40917205810547,-0.10289694368839,-0.09021400660276,10.00817394256592,1.29584980010986,1.76100420951843,0.95164567232132
135,1953389867,-0.57751762866974,0.55752497911453,50.40920257568359,-0.09270615130663,-0.06558958441019,9.98888778686523,1.29892361164093,1.84243202209473,0.83955782651901
136,1953398200,-0.57772934436798,0.55793100595474,50.40880966186523,-0.09721227735281,-0.07974292337894,9.98561477661133,1.29259681701660,1.84309792518616,0.79350346326828
137,1953406533,-0.57724839448929,0.55699872970581,50.40943145751953,-0.09605251252651,-0.08908817917109,9.99821949005127,1.37663710117340,1.68239402770996,0.90635973215103
138,1953414866,-0.57725870609283,0.55675911903381,50.41011428833008,-0.10165546089411,-0.08101882785559,10.03255844116211,1.31667411327362,1.76361691951752,0.93763458728790
139,1953423199,-0.57696139812469,0.55703365802765,50.40993118286133,-0.09258263558149,-0.08940424025059,10.02032947540283,1.35501861572266,1.82947111129761,0.81235551834106
140,1953431532,-0.57702380418777,0.55705416202545,50.40917205810547,-0.11693883687258,-0.09450054168701,10.00868034362793,1.31224286556244,1.79712033271790,0.75049704313278
141,1953439865,-0.57724839448929,0.55695074796677,50.40899658203125,-0.11071966588497,-0.06860756129026,10.01933002471924,1.29298102855682,1.78469765186310,0.81558287143707
142,1953448198,-0.57691776752472,0.55797731876373,50.40946197509766,-0.12192610651255,-0.09414115548134,9.99628448486328,1.35637617111206,1.91556048393250,0.84936803579330
143,1953456531,-0.57759314775467,0.55833798646927,50.40917205810547,-0.09370282292366,-0.11458056420088,9.98764133453369,1.23924219608307,1.84058761596680,0.80341607332230
144,1953464864,-0.57742756605148,0.55884873867035,50.40943145751953,-0.12156108766794,-0.09135934710503,9.99092578887939,1.33795964717865,1.85393273830414,0.85592532157898
145,1953473197,-0.57775181531906,0.55805492401123,50.40944290161133,-0.12016167491674,-0.08146090805531,10.00971794128418,1.28058362007141,1.70078516006470,0.83735495805740
146,1953481530,-0.57750612497330,0.55817502737045,50.40908432006836,-0.12647472321987,-0.09113144129515,9.99948787689209,1.34782111644745,1.80895423889160,0.83748298883438
147,1953489863,-0.57733124494553,0.55772769451141,50.40817642211914,-0.08363149315119,-0.08376615494490,10.01389980316162,1.34144306182861,1.74307441711426,0.72603553533554
148,1953498196,-0.57667726278305,0.55911171436310,50.40870285034180,-0.10414353013039,-0.09867777675390,9.99919891357422,1.39648807048798,1.95892560482025,0.85881972312927
149,1953506529,-0.57721620798111,0.55850809812546,50.40867614746094,-0.08117540180683,-0.10190544277430,10.01247024536133,1.25537931919098,1.72445261478424,0.83131003379822
150,1953514862,-0.57715046405792,0.55800414085388,50.40922164916992,-0.07577382773161,-0.07926105707884,10.00308322906494,1.32438409328461,1.73211133480072,0.92769634723663
151,1953523195,-0.57779961824417,0.55894905328751,50.40924072265625,-0.08313515037298,-0.09210920333862,10.01653099060059,1.24259769916534,1.90874719619751,0.83940404653549
152,1953531528,-0.57769143581390,0.55918174982071,50.40840148925781,-0.10032716393471,-0.07479369640350,10.00825214385986,1.33147931098938,1.82445096969604,0.75175219774246
153,1953539861,-0.57755798101425,0.55898958444595,50.40765380859375,-0.09684121608734,-0.07799876481295,10.00976943969727,1.33716571331024,1.77347850799561,0.74683433771133
154,1953548194,-0.57819736003876,0.55933171510696,50.40726470947266,-0.10272363573313,-0.12180655449629,10.02605724334717,1.24108636379242,1.83492696285248,0.81417405605316
155,1953556527,-0.57814019918442,0.55897939205170,50.40721893310547,-0.10601325333118,-0.09323813021183,10.02250862121582,1.32648444175720,1.75296151638031,0.82972198724747
156,1953564860,-0.57777118682861,0.55945849418640,50.40704345703125,-0.11765605956316,-0.08551993221045,10.01314544677734,1.36252355575562,1.85247266292572,0.82319039106369
157,1953573193,-0.57798802852631,0.55928522348404,50.40790557861328,-0.11779983341694,-0.08760816603899,9.99340152740479,1.29354465007782,1.77422142028809,0.93917161226273
158,1953581526,-0.57751268148422,0.56010073423386,50.40802764892578,-0.12606804072857,-0.09583052247763,9.98657226562500,1.37399888038635,1.89107346534729,0.86686253547668
159,1953589859,-0.57791608572006,0.56060719490051,50.40805816650391,-0.13486744463444,-0.08254057168961,10.00043487548828,1.27154195308685,1.85682725906372,0.83927607536316
160,1953598192,-0.57787793874741,0.56023454666138,50.40828323364258,-0.12964838743210,-0.08650669455528,9.97938728332520,1.32238626480103,1.74919617176056,0.79739677906036
161,1953606525,-0.57762706279755,0.56008797883987,50.40836334228516,-0.09826421737671,-0.07930377125740,10.01843070983887,1.35061299800873,1.77770471572876,0.84370726346970
162,1953614858,-0.57707601785660,0.56112575531006,50.40826797485352,-0.10689519345760,-0.07340084761381,10.03430938720703,1.38337349891663,1.91809642314911,0.86601722240448
163,1953623191,-0.57688325643539,0.56109511852264,50.40741729736328,-0.10330647230148,-0.09007968753576,10.01491069793701,1.34356904029846,1.79345738887787,0.73438560962677
164,1953631524,-0.57643914222717,0.56169563531876,50.40695190429688,-0.09029318392277,-0.07830145955086,10.01627254486084,1.37143754959106,1.86597168445587,0.79140311479568
165,1953639857,-0.57648897171021,0.56264460086823,50.40702819824219,-0.09814243018627,-0.07815425843000,10.02616310119629,1.31452250480652,1.91118049621582,0.84509038925171
166,1953648190,-0.57640588283539,0.56326162815094,50.40793228149414,-0.10856413096189,-0.07487297058105,10.05224800109863,1.32615149021149,1.86574089527130,0.94729131460190
167,1953656523,-0.57600891590118,0.56381422281265,50.40844726562500,-0.09631477296352,-0.07877933233976,9.99522686004639,1.36756968498230,1.86300003528595,0.89677995443344
168,1953664856,-0.57654505968094,0.56449902057648,50.40737533569336,-0.10271747410297,-0.08414844423532,9.99338722229004,1.25412428379059,1.87606346607208,0.75405752658844
169,1953673189,-0.57632529735565,0.56449598073959,50.40727233886719,-0.09910143911839,-0.07258033007383,10.01362419128418,1.34630966186523,1.79578828811646,0.82411235570908
170,1953681522,-0.57627350091934,0.56469827890396,50.40708541870117,-0.10700045526028,-0.09537661820650,9.98237419128418,1.32384622097015,1.81845724582672,0.82170468568802
171,1953689855,-0.57663613557816,0.56495010852814,50.40659713745117,-0.11527042090893,-0.08867395669222,9.99422454833984,1.27697193622589,1.82813918590546,0.77898007631302
172,1953698188,-0.57621848583221,0.56494551897049,50.40674209594727,-0.13551983237267,-0.10098485648632,10.00349998474121,1.36759519577026,1.79197192192078,0.85958808660507
173,1953706521,-0.57658284902573,0.56426519155502,50.40673065185547,-0.13644459843636,-0.09064560383558,10.00691127777100,1.27663910388947,1.71407914161682,0.83338481187820
174,1953714854,-0.57615327835083,0.56438499689102,50.40730285644531,-0.13609401881695,-0.07695146650076,9.98843479156494,1.36867117881775,1.80780172348022,0.89893168210983
175,1953723187,-0.57630455493927,0.56418937444687,50.40779113769531,-0.10592212527990,-0.08226722478867,10.02350234985352,1.30112624168396,1.77117311954498,0.89493584632874
176,1953731520,-0.57731568813324,0.56384950876236,50.40779495239258,-0.09658746421337,-0.09652470797300,10.03396701812744,1.19728612899780,1.75347363948822,0.80467116832733
177,1953739853,-0.57749778032303,0.56346821784973,50.40733718872070,-0.09599275887012,-0.08793237060308,10.01882553100586,1.29795014858246,1.75257718563080,0.78077310323715
178,1953748186,-0.56733292341232,0.55696785449982,50.41666793823242,-0.09277986735106,-0.09327194094658,9.99814796447754,1.26905727386475,1.68416154384613,0.85761576890945
179,1953756519,-0.56714916229248,0.55822563171387,50.41692733764648,-0.07043021917343,-0.09616748243570,9.98477554321289,1.33977806568146,1.94883334636688,0.86724674701691
180,1953764852,-0.56678158044815,0.55910551548004,50.41657257080078,-0.08990352600813,-0.08287818729877,10.03069210052490,1.36188328266144,1.89909076690674,0.79107004404068
181,1953773185,-0.56667953729630,0.55866801738739,50.41623687744141,-0.10102637857199,-0.08388376981020,9.98950576782227,1.33181214332581,1.74540531635284,0.79465609788895
182,1953781518,-0.56618022918701,0.55865752696991,50.41616439819336,-0.08611893653870,-0.08566004037857,10.03660392761230,1.37622725963593,1.79332959651947,0.82500892877579
183,1953789851,-0.56629329919815,0.55856692790985,50.41663742065430,-0.11190251260996,-0.08961514383554,9.98443984985352,1.30491733551025,1.78446710109711,0.89132422208786
184,1953798184,-0.56643408536911,0.55885559320450,50.41579055786133,-0.13627913594246,-0.10265449434519,9.99383735656738,1.30130553245544,1.82990670204163,0.73633241653442
185,1953806517,-0.56727385520935,0.55865633487701,50.41559219360352,-0.10627195239067,-0.07970796525478,10.02482414245605,1.21913504600525,1.77176213264465,0.81138211488724
186,1953814850,-0.56673252582550,0.55838871002197,50.41553878784180,-0.13864567875862,-0.08103658258915,10.01166725158691,1.38209307193756,1.76179838180542,0.84147888422012
187,1953823183,-0.56681877374649,0.55851131677628,50.41524505615234,-0.14235697686672,-0.09847051650286,10.01137447357178,1.30916929244995,1.81169486045837,0.80057293176651
188,1953831516,-0.56673800945282,0.55746138095856,50.41545486450195,-0.13347509503365,-0.10242935270071,9.99429512023926,1.32671487331390,1.66730737686157,0.86576110124588
189,1953839849,-0.56626975536346,0.55703276395798,50.41605377197266,-0.12016681581736,-0.09488146752119,10.02352333068848,1.37428057193756,1.74486744403839,0.90861368179321
190,1953848182,-0.56687104701996,0.55677014589310,50.41641235351562,-0.11268579214811,-0.08488626033068,9.99865818023682,1.24500548839569,1.76274597644806,0.92462259531021
191,1953856515,-0.56715631484985,0.55661660432816,50.41772842407227,-0.09529167413712,-0.08263286203146,9.97047996520996,1.28250479698181,1.77665472030640,0.99257731437683
192,1953864848,-0.56747674942017,0.55638366937637,50.41751480102539,-0.09662586450577,-0.06741002947092,9.99148559570312,1.27899551391602,1.76448774337769,0.82288289070129
193,1953873181,-0.56834167242050,0.55588901042938,50.41792678833008,-0.07837178558111,-0.10403956472874,10.00860595703125,1.21519052982330,1.73764395713806,0.88479250669479
194,1953881514,-0.56842827796936,0.55432564020157,50.41813659667969,-0.06825867295265,-0.09024967998266,10.00746440887451,1.30678701400757,1.60470616817474,0.86348146200180
195,1953889847,-0.56915158033371,0.55330753326416,50.41781997680664,-0.08610372990370,-0.09348428994417,10.01612377166748,1.23281335830688,1.67481231689453,0.79611605405807
196,1953898180,-0.57017433643341,0.55372518301010,50.41756057739258,-0.09128614515066,-0.07880388945341,10.03901767730713,1.19467341899872,1.84437847137451,0.84258019924164
197,1953906513,-0.56984561681747,0.55449825525284,50.41715240478516,-0.09377763420343,-0.09604170173407,10.02728176116943,1.35883510112762,1.89076590538025,0.78704869747162
198,1953914846,-0.56949424743652,0.55526876449585,50.41724395751953,-0.11205036193132,-0.07443752139807,10.00415134429932,1.35944986343384,1.88479781150818,0.84696036577225
199,1953923179,-0.56921613216400,0.55542296171188,50.41711044311523,-0.10281014442444,-0.10709609091282,10.00478553771973,1.35243165493011,1.81602370738983,0.82085943222046
200,1953931512,-0.56945443153381,0.55487179756165,50.41699981689453,-0.11858836561441,-0.10579001158476,9.98178672790527,1.28890812397003,1.72742390632629,0.81107473373413
201,1953939845,-0.56902968883514,0.55431228876114,50.41634368896484,-0.11787237226963,-0.08577474951744,10.01479721069336,1.37077140808105,1.73141956329346,0.75526130199432
202,1953948178,-0.56934726238251,0.55488806962967,50.41579055786133,-0.11553451418877,-0.08325809985399,10.04331302642822,1.27991783618927,1.86256480216980,0.79801154136658
203,1953956511,-0.56900757551193,0.55539327859879,50.41586685180664,-0.11291340738535,-0.09361967444420,9.99740886688232,1.35973167419434,1.85710883140564,0.84283649921417
204,1953964844,-0.56985515356064,0.55393391847610,50.41603088378906,-0.09484161436558,-0.09389084577560,10.01010799407959,1.21595907211304,1.61659133434296,0.85362011194229
205,1953973177,-0.56968498229980,0.55352073907852,50.41554641723633,-0.09694074094296,-0.12299682199955,10.00558280944824,1.33931696414948,1.74922156333923,0.77698212862015
206,1953981510,-0.56895172595978,0.55409544706345,50.41592788696289,-0.08978677541018,-0.07829125225544,9.99932003021240,1.40563261508942,1.86220645904541,0.87201106548309
207,1953989843,-0.56884694099426,0.55458521842957,50.41594696044922,-0.09365157037973,-0.10074795037508,10.02344036102295,1.33129990100861,1.85549545288086,0.83763682842255
208,1953998176,-0.56851536035538,0.55489116907120,50.41603088378906,-0.10572734475136,-0.09519840031862,10.01260185241699,1.35701644420624,1.82860028743744,0.87283051013947
209,1954006509,-0.56833511590958,0.55416554212570,50.41640853881836,-0.08667623251677,-0.09110568463802,10.02789878845215,1.34075140953064,1.70987820625305,0.87815839052200
210,1954014842,-0.56924891471863,0.55420625209808,50.41622924804688,-0.08395230025053,-0.08600959926844,10.00236034393311,1.20783936977386,1.79832410812378,0.80144381523132
211,1954023175,-0.56877100467682,0.55416822433472,50.41606521606445,-0.10332665592432,-0.08354230225086,10.00166511535645,1.37632966041565,1.79245877265930,0.81732463836670
212,1954031508,-0.56858354806900,0.55360758304596,50.41582107543945,-0.09034616500139,-0.09684973210096,10.03321361541748,1.33985495567322,1.72619450092316,0.82413792610168
213,1954039841,-0.56799286603928,0.55433481931686,50.41587448120117,-0.10556653887033,-0.09321492165327,9.97704505920410,1.38962352275848,1.88402938842773,0.84296447038651
214,1954048174,-0.56847292184830,0.55431348085403,50.41484069824219,-0.13043323159218,-0.10193727910519,9.97946739196777,1.26157784461975,1.79256093502045,0.74271041154861
215,1954056507,-0.56832975149155,0.55400675535202,50.41388320922852,-0.10234232991934,-0.08998864889145,9.98321914672852,1.33683252334595,1.76077365875244,0.72147613763809
216,1954064840,-0.56819039583206,0.55435472726822,50.41365814208984,-0.12232253700495,-0.09064809978008,9.99865245819092,1.33503961563110,1.83577215671539,0.80064976215363
217,1954073173,-0.56857329607010,0.55398005247116,50.41305160522461,-0.12730318307877,-0.09542068094015,10.02149009704590,1.27400076389313,1.75229537487030,0.76184421777725
218,1954081506,-0.56809973716736,0.55368292331696,50.41276168823242,-0.13495919108391,-0.09143289923668,9.96731472015381,1.37381970882416,1.75887846946716,0.81063932180405
219,1954089839,-0.56840181350708,0.55367541313171,50.41234970092773,-0.10033877938986,-0.07665253430605,9.98766613006592,1.28358066082001,1.79571163654327,0.78576797246933
220,1954098172,-0.56901210546494,0.55352228879929,50.41261672973633,-0.08171371370554,-0.09803289175034,10.01791858673096,1.24387836456299,1.77537381649017,0.84760069847107
221,1954106505,-0.56888687610626,0.55401080846786,50.41191101074219,-0.10011355578899,-0.07207998633385,10.01044082641602,1.33465540409088,1.85631501674652,0.75211089849472
222,1954114838,-0.56921267509460,0.55304694175720,50.41234207153320,-0.09166026115417,-0.07786493748426,9.99396991729736,1.27807343006134,1.67765557765961,0.89908522367477
223,1954123171,-0.56969642639160,0.55261147022247,50.41225433349609,-0.09218888729811,-0.06895793974400,10.02820873260498,1.26096308231354,1.74361205101013,0.82203757762909
224,1954131504,-0.56929755210876,0.55315560102463,50.41272354125977,-0.09404450654984,-0.07852979749441,9.99527072906494,1.36582779884338,1.85969579219818,0.84842026233673
225,1954139837,-0.56942778825760,0.55253112316132,50.41367340087891,-0.08558458834887,-0.07853043079376,9.99241256713867,1.30207407474518,1.71925294399261,0.94867444038391
226,1954148170,-0.56950765848160,0.55210953950882,50.41416549682617,-0.11314531415701,-0.09406631439924,9.98900985717773,1.30694079399109,1.74276709556580,0.86773347854614
227,1954156503,-0.56909507513046,0.55219495296478,50.41357040405273,-0.09131924808025,-0.08964699506760,10.01579380035400,1.36987507343292,1.80821144580841,0.76263821125031
228,1954164836,-0.56886994838715,0.55299448966980,50.41353225708008,-0.10866536200047,-0.08755810558796,9.99425411224365,1.34446561336517,1.88928031921387,0.85318458080292
229,1954173169,-0.56898033618927,0.55290502309799,50.41366577148438,-0.12472549825907,-0.08348560333252,10.01609706878662,1.30486583709717,1.78682315349579,0.85108417272568
230,1954181502,-0.56890267133713,0.55388885736465,50.41440582275391,-0.13738852739334,-0.08881391584873,9.98729038238525,1.32548546791077,1.91077065467834,0.92057555913925
231,1954189835,-0.56894642114639,0.55439728498459,50.41474914550781,-0.13684791326523,-0.07461816072464,10.02007770538330,1.31436884403229,1.85762107372284,0.87672400474548
232,1954198168,-0.56993764638901,0.55372476577759,50.41439819335938,-0.13426639139652,-0.07499766349792,10.01712322235107,1.19831073284149,1.71200406551361,0.81409716606140
233,1954206501,-0.56957876682281,0.55299037694931,50.41402816772461,-0.11914948374033,-0.10655644536018,10.02172279357910,1.36265182495117,1.70885384082794,0.78855991363525
234,1954214834,-0.56980299949646,0.55254799127579,50.41357040405273,-0.11756845563650,-0.08077535033226,10.00536727905273,1.29044508934021,1.74156284332275,0.78387236595154
235,1954223167,-0.57088184356689,0.55306082963943,50.41365432739258,-0.10542346537113,-0.08495921641588,10.01331424713135,1.18988370895386,1.85703194141388,0.84537220001221
236,1954231500,-0.57090139389038,0.55385285615921,50.41321563720703,-0.10104744136333,-0.08797566592693,10.02451133728027,1.31516313552856,1.88963913917542,0.81007587909698
237,1954239833,-0.57190984487534,0.55350989103317,50.41303634643555,-0.08447549492121,-0.09382887929678,10.00265407562256,1.19820821285248,1.75583016872406,0.81404602527618
238,1954248166,-0.57180190086365,0.55328607559204,50.41322708129883,-0.11280963569880,-0.08986559510231,9.98391056060791,1.32968616485596,1.76628100872040,0.87895256280899
239,1954256499,-0.57201749086380,0.55299413204193,50.41272735595703,-0.08621641248465,-0.07188794761896,10.01461887359619,1.29436409473419,1.76228487491608,0.77531725168228
240,1954264832,-0.57117915153503,0.55449688434601,50.41259765625000,-0.08620309084654,-0.08268313109875,10.01456928253174,1.41759419441223,1.97329509258270,0.84713959693909
241,1954273165,-0.57108920812607,0.55406844615936,50.41309738159180,-0.08170720189810,-0.08542226254940,10.00481414794922,1.32904577255249,1.74491846561432,0.89396238327026
242,1954281498,-0.57056087255478,0.55407512187958,50.41305923461914,-0.10528212040663,-0.08784157782793,9.99577236175537,1.38035118579865,1.79443097114563,0.84165823459625
243,1954289831,-0.56986451148987,0.55506241321564,50.41352081298828,-0.11235728114843,-0.06731038540602,9.99395179748535,1.40214884281158,1.91571438312531,0.89270740747452
244,1954298164,-0.56987160444260,0.55550467967987,50.41294097900391,-0.10517916828394,-0.10298043489456,10.00350475311279,1.31731450557709,1.84683775901794,0.78451281785965
245,1954306497,-0.56995379924774,0.55527490377426,50.41234588623047,-0.09175959974527,-0.08610609918833,9.99590110778809,1.30978393554688,1.76912391185760,0.76235646009445
246,1954314830,-0.56972724199295,0.55542171001434,50.41215133666992,-0.10645917057991,-0.08789767324924,9.97741699218750,1.34441459178925,1.81200230121613,0.83922487497330
247,1954323163,-0.56939446926117,0.55513495206833,50.41239166259766,-0.11925203353167,-0.09086468815804,10.00522613525391,1.35888648033142,1.76177287101746,0.86576122045517
248,1954331496,-0.56892633438110,0.55609184503555,50.41308212280273,-0.11321006715298,-0.09502265602350,9.99967575073242,1.37305092811584,1.90723574161530,0.92139530181885
249,1954339829,-0.56905585527420,0.55655378103256,50.41393661499023,-0.11580190062523,-0.08922889083624,10.00620555877686,1.30225336551666,1.85175549983978,0.93740409612656
250,1954348162,-0.56938666105270,0.55610519647598,50.41376876831055,-0.10427349805832,-0.08364319801331,10.00567722320557,1.27727949619293,1.74018001556396,0.81868219375610
251,1954356495,-0.56977242231369,0.55588793754578,50.41394424438477,-0.10529825091362,-0.11056788265705,10.01040840148926,1.27312994003296,1.77045583724976,0.85321021080017
252,1954364828,-0.57042574882507,0.55575937032700,50.41389846801758,-0.08741676807404,-0.08101921528578,10.01065731048584,1.23916542530060,1.77849864959717,0.84375846385956
253,1954373161,-0.57073897123337,0.55652552843094,50.41462326049805,-0.08781032264233,-0.09697297960520,9.98539447784424,1.28004586696625,1.88812792301178,0.92216372489929
254,1954381494,-0.57054269313812,0.55659312009811,50.41494750976562,-0.08620822429657,-0.07339508086443,9.99635887145996,1.34095644950867,1.80093693733215,0.87413704395294
255,1954389827,-0.57037186622620,0.55645716190338,50.41470336914062,-0.07407771050930,-0.07839244604111,10.00090885162354,1.33941948413849,1.78070151805878,0.80505543947220
256,1954398160,-0.57138842344284,0.55541938543320,50.41506195068359,-0.09661296010017,-0.08744845539331,10.03205776214600,1.19564688205719,1.66853678226471,0.86847621202469
257,1954406493,-0.57174962759018,0.55433320999146,50.41503906250000,-0.09837953746319,-0.11537763476372,10.02561664581299,1.27566564083099,1.66669261455536,0.83184790611267
258,1954414826,-0.57263869047165,0.55278038978577,50.41493225097656,-0.12450623512268,-0.10368010401726,10.02173614501953,1.21006774902344,1.60821545124054,0.86486470699310
259,1954423159,-0.57349950075150,0.55236703157425,50.41481018066406,-0.10240793228149,-0.08369632810354,10.00006961822510,1.21624076366425,1.74642992019653,0.82050079107285
260,1954431492,-0.57304155826569,0.55242067575455,50.41407775878906,-0.11527070403099,-0.08760580420494,10.01090621948242,1.37292313575745,1.80198729038239,0.74568164348602
261,1954439825,-0.57281637191772,0.55258965492249,50.41423034667969,-0.10239382833242,-0.09251420944929,10.00974082946777,1.34610486030579,1.81633090972900,0.85367131233215
262,1954448158,-0.57337445020676,0.55214095115662,50.41459274291992,-0.12030585855246,-0.08573297411203,10.00385856628418,1.25002574920654,1.73959088325500,0.87032055854797
263,1954456491,-0.57380324602127,0.55180382728577,50.41434478759766,-0.12066025286913,-0.06591334193945,9.99284076690674,1.26823770999908,1.75613749027252,0.80485051870346
264,1954464824,-0.57385540008545,0.55187261104584,50.41388320922852,-0.11114592850208,-0.09073814004660,10.00892448425293,1.31124401092529,1.80334472656250,0.78702300786972
265,1954473157,-0.57366412878036,0.55249226093292,50.41371154785156,-0.11855971068144,-0.09128888696432,10.04386520385742,1.34198117256165,1.87063324451447,0.81527554988861
266,1954481490,-0.57265669107437,0.55364501476288,50.41271972656250,-0.11576806753874,-0.07882338762283,9.98930358886719,1.43918693065643,1.93297815322876,0.78187447786331
267,1954489823,-0.57253140211105,0.55385398864746,50.41288757324219,-0.11504981666803,-0.08695713430643,9.98485279083252,1.33398938179016,1.82071113586426,0.85528498888016
268,1954498156,-0.57244753837585,0.55417639017105,50.41216659545898,-0.10164928436279,-0.07449981570244,9.96899032592773,1.32794451713562,1.83441483974457,0.76332986354828
269,1954506489,-0.57249540090561,0.55460256338120,50.41186904907227,-0.09782026708126,-0.07815170288086,9.99771499633789,1.31316506862640,1.84660720825195,0.80123895406723
270,1954514822,-0.57272315025330,0.55452620983124,50.41260910034180,-0.10561304539442,-0.08586537092924,10.03481101989746,1.28924131393433,1.78387784957886,0.93453532457352
271,1954523155,-0.57317787408829,0.55440622568130,50.41242980957031,-0.10074010491371,-0.08549533784389,10.01645660400391,1.26413929462433,1.78275072574615,0.81212490797043
272,1954531488,-0.57329374551773,0.55474448204041,50.41232299804688,-0.10013125836849,-0.07598181813955,9.99132156372070,1.30361092090607,1.83295452594757,0.83712440729141
273,1954539821,-0.57334285974503,0.55560046434402,50.41183090209961,-0.10614001750946,-0.08215483278036,10.00122737884521,1.31342113018036,1.90129351615906,0.77826291322708
274,1954548154,-0.57403343915939,0.55474072694778,50.41227722167969,-0.12033252418041,-0.09854596853256,10.00815010070801,1.23394012451172,1.69002735614777,0.89508938789368
275,1954556487,-0.57470935583115,0.55568695068359,50.41226196289062,-0.12265013903379,-0.09790318459272,10.00463676452637,1.23744940757751,1.91051471233368,0.83535706996918
276,1954564820,-0.57447737455368,0.55590075254440,50.41268157958984,-0.14112852513790,-0.10120356082916,9.99782180786133,1.34397900104523,1.81773984432220,0.92536544799805
277,1954573153,-0.57482349872589,0.55564463138580,50.41265487670898,-0.10952362418175,-0.08105832338333,10.02066898345947,1.27791976928711,1.76617825031281,0.83292365074158
278,1954581486,-0.57418084144592,0.55571329593658,50.41244506835938,-0.12302944064140,-0.08742593228817,10.01498889923096,1.39400362968445,1.80162847042084,0.81991171836853
279,1954589819,-0.57487410306931,0.55619817972183,50.41258239746094,-0.10299835354090,-0.09580244868994,10.00955486297607,1.23627102375031,1.85508513450623,0.85157078504562
280,1954598152,-0.57481127977371,0.55666965246201,50.41211318969727,-0.10354202985764,-0.09075409173965,10.02973937988281,1.32461452484131,1.84968078136444,0.81612080335617
281,1954606485,-0.57463324069977,0.55675947666168,50.41142272949219,-0.09225922822952,-0.08313305675983,10.03632354736328,1.34151983261108,1.80828809738159,0.75057387351990
282,1954614818,-0.57437831163406,0.55525749921799,50.41213226318359,-0.08222874253988,-0.07551935315132,9.99308490753174,1.34628403186798,1.61300516128540,0.92592895030975
283,1954623151,-0.57471722364426,0.55489242076874,50.41247940063477,-0.08912776410580,-0.07030608505011,10.02058506011963,1.27820146083832,1.75250029563904,0.87669837474823
284,1954631484,-0.57440859079361,0.55504065752029,50.41239166259766,-0.08022059500217,-0.07216212898493,10.01266860961914,1.35496747493744,1.81261694431305,0.77670043706894
285,1954639817,-0.57459551095963,0.55569875240326,50.41204452514648,-0.08254919946194,-0.09538400918245,9.98773288726807,1.29700231552124,1.87649881839752,0.79465603828430
286,1954648150,-0.57380461692810,0.55525994300842,50.41256332397461,-0.10238564014435,-0.10024102032185,9.97367954254150,1.41121637821198,1.74012875556946,0.90933108329773
287,1954656483,-0.57368785142899,0.55550217628479,50.41235351562500,-0.10950764268637,-0.08906191587448,10.02813816070557,1.33329761028290,1.82519352436066,0.80966597795486
288,1954664816,-0.57356125116348,0.55539458990097,50.41212844848633,-0.12372630089521,-0.08768421411514,10.02776336669922,1.33275985717773,1.78059923648834,0.84450143575668
289,1954673149,-0.57382369041443,0.55544930696487,50.41182327270508,-0.13766272366047,-0.08493988960981,9.99823474884033,1.28760182857513,1.80401051044464,0.79908728599548
290,1954681482,-0.57438224554062,0.55500662326813,50.41138458251953,-0.13511717319489,-0.05294042825699,10.00464630126953,1.25064051151276,1.74187040328979,0.78402608633041
291,1954689815,-0.57417821884155,0.55484050512314,50.41134643554688,-0.13407523930073,-0.08880318701267,9.97410202026367,1.34377384185791,1.77724361419678,0.83148926496506
292,1954698148,-0.57363736629486,0.55522060394287,50.41144561767578,-0.11620247364044,-0.06864941120148,10.03083038330078,1.38150393962860,1.83943521976471,0.86332786083221
293,1954706481,-0.57397204637527,0.55476468801498,50.41100692749023,-0.11710697412491,-0.07690618932247,10.02447128295898,1.27940523624420,1.74212658405304,0.78064495325089
294,1954714814,-0.57375198602676,0.55527418851852,50.41203689575195,-0.13310080766678,-0.09321624040604,9.98906612396240,1.34269833564758,1.85400962829590,0.95889455080032
295,1954723147,-0.57323324680328,0.55522543191910,50.41145324707031,-0.09586122632027,-0.08545609563589,10.01610088348389,1.38255405426025,1.79069125652313,0.76514846086502
296,1954731480,-0.57285791635513,0.55542343854904,50.41102981567383,-0.10650330781937,-0.07755817472935,9.98705863952637,1.36198568344116,1.81740689277649,0.80674600601196
297,1954739813,-0.57262110710144,0.55488741397858,50.41042327880859,-0.09829377382994,-0.08742832392454,10.02572822570801,1.34874331951141,1.73344349861145,0.76261264085770
298,1954748146,-0.57309341430664,0.55465078353882,50.41156768798828,-0.09111186861992,-0.08091482520103,9.99027729034424,1.25847864151001,1.76351463794708,0.97101002931595
299,1954756479,-0.57300812005997,0.55440759658813,50.41141510009766,-0.10741089284420,-0.07742457091808,9.98143577575684,1.33012139797211,1.76856040954590,0.81481438875198
300,1954764812,-0.57331681251526,0.55435633659363,50.41133117675781,-0.09370976686478,-0.08149587363005,10.00516319274902,1.27994346618652,1.78779673576355,0.83361524343491
301,1954773145,-0.57317543029785,0.55523818731308,50.41099548339844,-0.10605064779520,-0.08516377955675,10.01017761230469,1.33649957180023,1.90226686000824,0.79573178291321
302,1954781478,-0.57329910993576,0.55458974838257,50.41109466552734,-0.11891959607601,-0.08256135135889,10.01523971557617,1.30225324630737,1.71571826934814,0.84757500886917
303,1954789811,-0.57277703285217,0.55478161573410,50.41125488281250,-0.09349851310253,-0.08843417465687,9.97682571411133,1.38163197040558,1.81943047046661,0.85500323772430
304,1954798144,-0.57293581962585,0.55528795719147,50.41192245483398,-0.11210057139397,-0.07682950049639,9.98646259307861,1.29687440395355,1.85329222679138,0.90789663791656
305,1954806477,-0.57254564762115,0.55486148595810,50.41180801391602,-0.12125561386347,-0.07480878382921,10.02064037322998,1.36590468883514,1.74553322792053,0.82027024030685
306,1954814810,-0.57243335247040,0.55548965930939,50.41184234619141,-0.12630869448185,-0.09116467088461,10.00309467315674,1.32983982563019,1.86917328834534,0.89411604404449
307,1954823143,-0.57323843240738,0.55600482225418,50.41190719604492,-0.10967177152634,-0.09145268052816,9.98174285888672,1.22218322753906,1.85787737369537,0.84347683191299
308,1954831476,-0.57355082035065,0.55630999803543,50.41106414794922,-0.10188562422991,-0.08656214922667,10.02353763580322,1.28089106082916,1.83192992210388,0.74701350927353
309,1954839809,-0.57358980178833,0.55646896362305,50.41081237792969,-0.12393484264612,-0.10555420070887,10.02703666687012,1.31485557556152,1.81581878662109,0.80664348602295
310,1954848142,-0.57324999570847,0.55592209100723,50.41164779663086,-0.11377346515656,-0.07950206845999,9.97996139526367,1.35722160339355,1.72798764705658,0.93404877185822
311,1954856475,-0.57361871004105,0.55527502298355,50.41187667846680,-0.08289712667465,-0.08604605495930,10.02655982971191,1.27405190467834,1.71845912933350,0.86189335584641
312,1954864808,-0.57448601722717,0.55523949861526,50.41197204589844,-0.11681824177504,-0.07737320661545,10.00359249114990,1.21301329135895,1.78933346271515,0.85090488195419
313,1954873141,-0.57406812906265,0.55466043949127,50.41204071044922,-0.09290485829115,-0.07424044609070,10.00842475891113,1.36892724037170,1.72716772556305,0.84263151884079
314,1954881474,-0.57366716861725,0.55516028404236,50.41148757934570,-0.10919309407473,-0.11936549842358,10.00305652618408,1.36567425727844,1.85462415218353,0.77997905015945
315,1954889807,-0.57350987195969,0.55502927303314,50.41110992431641,-0.09838708490133,-0.08641010522842,10.03449916839600,1.33895862102509,1.78157246112823,0.78943073749542
316,1954898140,-0.57344210147858,0.55613833665848,50.41117858886719,-0.11291906237602,-0.07943739742041,9.99195575714111,1.32458889484406,1.92601132392883,0.85531061887741
317,1954906473,-0.57344871759415,0.55713576078415,50.41162490844727,-0.10892391949892,-0.08223646134138,10.01681232452393,1.31754505634308,1.91548383235931,0.88965928554535
318,1954914806,-0.57289028167725,0.55666792392731,50.41095733642578,-0.11560890078545,-0.08149618655443,10.02852153778076,1.38542282581329,1.73802816867828,0.77928751707077
319,1954923139,-0.57273113727570,0.55687904357910,50.41100311279297,-0.10936073213816,-0.07350452244282,10.00406646728516,1.33765208721161,1.82158195972443,0.84186303615570
320,1954931472,-0.57267701625824,0.55724370479584,50.41037750244141,-0.11806664615870,-0.11059895902872,10.02737236022949,1.32476830482483,1.83879470825195,0.76993829011917
321,1954939805,-0.57264649868011,0.55859571695328,50.41044616699219,-0.10623758286238,-0.09698873758316,10.02834510803223,1.32225799560547,1.95795226097107,0.84363049268723
322,1954948138,-0.57213568687439,0.55867189168930,50.41014862060547,-0.10430122911930,-0.07635487616062,9.98826026916504,1.37817382812500,1.80334472656250,0.82075697183609
323,1954956471,-0.57167959213257,0.55761778354645,50.41001892089844,-0.11793205142021,-0.08694265037775,9.98773765563965,1.37456226348877,1.67086768150330,0.81865656375885
324,1954964804,-0.57176995277405,0.55654877424240,50.40979003906250,-0.09567563235760,-0.09659357368946,10.03499317169189,1.30606973171234,1.66502773761749,0.81763195991516
325,1954973137,-0.57141131162643,0.55697941780090,50.41005325317383,-0.10453958064318,-0.09123550355434,10.03351020812988,1.36229324340820,1.84809279441833,0.86775910854340
326,1954981470,-0.57209259271622,0.55743914842606,50.41065597534180,-0.09328035265207,-0.08415413647890,10.01155185699463,1.23396575450897,1.84729874134064,0.95538544654846
327,1954989803,-0.57218629121780,0.55849879980087,50.41041564941406,-0.10133855789900,-0.08037293702364,10.01255798339844,1.30804216861725,1.92391085624695,0.80787295103073
328,1954998136,-0.57163131237030,0.55860161781311,50.41081237792969,-0.10496944189072,-0.06906225532293,10.02302265167236,1.38332235813141,1.80646955966949,0.89421862363815
329,1955006469,-0.57219952344894,0.55963987112045,50.41128158569336,-0.10188282281160,-0.08505294471979,10.00204372406006,1.24961602687836,1.92129802703857,0.89332199096680
330,1955014802,-0.57153475284576,0.55884587764740,50.41156005859375,-0.08933126926422,-0.09391885250807,9.99478054046631,1.39720523357391,1.69758331775665,0.82828748226166
331,1955023135,-0.57147842645645,0.55876916646957,50.41146850585938,-0.08396410942078,-0.08053647726774,10.00125980377197,1.32602322101593,1.78751492500305,0.82334387302399
332,1955031468,-0.57130020856857,0.55860602855682,50.41041183471680,-0.12898157536983,-0.07889394462109,10.01621723175049,1.33893275260925,1.77486145496368,0.75838619470596
333,1955039801,-0.57094156742096,0.55930733680725,50.41015625000000,-0.11121515929699,-0.10148258507252,10.01544189453125,1.36260044574738,1.88044333457947,0.80546528100967
334,1955048134,-0.57079237699509,0.55888217687607,50.41014480590820,-0.11321795731783,-0.08997534215450,10.00097942352295,1.33496260643005,1.74268996715546,0.82475268840790
335,1955056467,-0.56980770826340,0.56001460552216,50.41061401367188,-0.09700158238411,-0.09001597762108,9.98726749420166,1.43726599216461,1.93279910087585,0.89386004209518
336,1955064800,-0.57018512487411,0.55902487039566,50.41028594970703,-0.10107695311308,-0.09999872744083,10.01217365264893,1.27131128311157,1.67532467842102,0.82821071147919
337,1955073133,-0.57078117132187,0.55924564599991,50.41001892089844,-0.10708976536989,-0.09232023358345,9.99472618103027,1.24823296070099,1.82301640510559,0.80374908447266
338,1955081466,-0.57097917795181,0.55817520618439,50.40970611572266,-0.07830626517534,-0.07567705214024,10.00347042083740,1.29285287857056,1.66556572914124,0.83090019226074
339,1955089799,-0.57144790887833,0.55808913707733,50.40940475463867,-0.12003125250340,-0.09558343142271,9.96951866149902,1.26331949234009,1.78692579269409,0.79816514253616
340,1955098132,-0.57154309749603,0.55815249681473,50.40933609008789,-0.11557117104530,-0.07789272069931,10.01685523986816,1.30578804016113,1.80006563663483,0.82331830263138
341,1955106465,-0.57227760553360,0.55758887529373,50.40938568115234,-0.09956150501966,-0.09612461179495,10.00891971588135,1.23078954219818,1.72921693325043,0.84081286191940
342,1955114798,-0.57257211208344,0.55720722675323,50.40933990478516,-0.09656526893377,-0.06975038349628,10.01686286926270,1.28119838237762,1.74737763404846,0.87513601779938
343,1955123131,-0.57252025604248,0.55772590637207,50.40930175781250,-0.12186170369387,-0.07507259398699,9.98889923095703,1.32520365715027,1.85897874832153,0.83113074302673
344,1955131464,-0.57177698612213,0.55871373414993,50.40943145751953,-0.08807961642742,-0.08634721487761,10.02986335754395,1.40565812587738,1.91289675235748,0.86396819353104
345,1955139797,-0.57138961553574,0.55785709619522,50.40969467163086,-0.10519172996283,-0.06988104432821,10.03602695465088,1.36569964885712,1.69235801696777,0.86524879932404
346,1955148130,-0.57163852453232,0.55765777826309,50.40963745117188,-0.10827249288559,-0.08242294937372,9.98670101165771,1.28737139701843,1.77094256877899,0.84007006883621
347,1955156463,-0.57239484786987,0.55709898471832,50.40989303588867,-0.10352481156588,-0.07969117909670,9.97723579406738,1.22704994678497,1.72885835170746,0.86489033699036
348,1955164796,-0.57306087017059,0.55686974525452,50.40961074829102,-0.12838387489319,-0.10695889592171,10.02355861663818,1.23755192756653,1.76748478412628,0.81676119565964
349,1955173129,-0.57326066493988,0.55603086948395,50.40884399414062,-0.09737385809422,-0.08812720328569,10.00868320465088,1.29554224014282,1.69566202163696,0.74071240425110
350,1955181462,-0.57290345430374,0.55722063779831,50.40921783447266,-0.11339359730482,-0.10745362192392,10.01067638397217,1.35952675342560,1.93635952472687,0.90454119443893
351,1955189795,-0.57227843999863,0.55662918090820,50.40886688232422,-0.09768040478230,-0.09190540760756,9.96136665344238,1.39459264278412,1.72596418857574,0.79229956865311
352,1955198128,-0.57234859466553,0.55705523490906,50.40882873535156,-0.11613393574953,-0.09006044268608,9.99118423461914,1.30860555171967,1.84517264366150,0.88010507822037
353,1955206461,-0.57192903757095,0.55690634250641,50.40872192382812,-0.13411676883698,-0.07761849462986,10.01000118255615,1.36941373348236,1.77803790569305,0.82242184877396
354,1955214794,-0.57228088378906,0.55641728639603,50.40838623046875,-0.11439990252256,-0.06580565869808,10.00633239746094,1.27412879467010,1.73538970947266,0.80984526872635
355,1955223127,-0.57253795862198,0.55515956878662,50.40761566162109,-0.11019267141819,-0.06463197618723,10.01083278656006,1.28916454315186,1.64684176445007,0.74081498384476
356,1955231460,-0.57266807556152,0.55549192428589,50.40752410888672,-0.11353474855423,-0.08405558019876,9.97900295257568,1.30230474472046,1.83290350437164,0.80000942945480
357,1955239793,-0.57247203588486,0.55612230300903,50.40808105468750,-0.12029819935560,-0.08777434378862,10.00938892364502,1.34146881103516,1.87240076065063,0.90187728404999
358,1955248126,-0.57162427902222,0.55627006292343,50.40802001953125,-0.11093974113464,-0.07908391952515,10.01763534545898,1.41941297054291,1.81136190891266,0.83919924497604
359,1955256459,-0.57131814956665,0.55633169412613,50.40832519531250,-0.11159934103489,-0.09788577258587,10.03018951416016,1.35481393337250,1.80416440963745,0.87042301893234
360,1955264792,-0.57144105434418,0.55709826946259,50.40776062011719,-0.08647284656763,-0.10150222480297,10.00098896026611,1.30284249782562,1.88469552993774,0.79719191789627
361,1955273125,-0.57176482677460,0.55686080455780,50.40803146362305,-0.08834484219551,-0.11433896422386,10.01925182342529,1.27935409545898,1.76845800876617,0.86822009086609
362,1955281458,-0.57066047191620,0.55588006973267,50.40848541259766,-0.08351240307093,-0.10163920372725,10.00280857086182,1.44930481910706,1.67540168762207,0.86996197700500
363,1955289791,-0.57068026065826,0.55467718839645,50.40828323364258,-0.10674993693829,-0.08703814446926,10.02252292633057,1.31675100326538,1.65224611759186,0.80966597795486
364,1955298124,-0.57076185941696,0.55446541309357,50.40881729125977,-0.10215595364571,-0.07231136411428,9.99956893920898,1.30706870555878,1.76899588108063,0.85080242156982
365,1955306457,-0.57170939445496,0.55440479516983,50.40907287597656,-0.11078914254904,-0.07006108760834,10.01445102691650,1.20466303825378,1.78818094730377,0.86378878355026
366,1955314790,-0.57103490829468,0.55492174625397,50.40938568115234,-0.12625002861023,-0.10158501565456,9.98961162567139,1.39741003513336,1.85531592369080,0.87234395742416
367,1955323123,-0.57121068239212,0.55472147464752,50.40867996215820,-0.12123816460371,-0.06673885136843,10.04702377319336,1.29961502552032,1.77278673648834,0.75131672620773
368,1955331456,-0.57211196422577,0.55411750078201,50.40823745727539,-0.11841427534819,-0.06053659692407,9.99394989013672,1.20865881443024,1.72207057476044,0.82201200723648
369,1955339789,-0.57157540321350,0.55349373817444,50.40789031982422,-0.11387162655592,-0.08823138475418,9.99617195129395,1.38393712043762,1.72178876399994,0.79242753982544
370,1955348122,-0.57128459215164,0.55409377813339,50.40793228149414,-0.13249486684799,-0.08920983970165,9.99602508544922,1.35125339031219,1.86522865295410,0.86153489351273
371,1955356455,-0.57070988416672,0.55396527051926,50.40782546997070,-0.11558717489243,-0.10894024372101,10.00432682037354,1.38834273815155,1.78159809112549,0.82283169031143
372,1955364788,-0.57053977251053,0.55391943454742,50.40713882446289,-0.10969315469265,-0.09977228939533,10.02378177642822,1.33806204795837,1.78859066963196,0.77398538589478
373,1955373121,-0.57056456804276,0.55408918857574,50.40685653686523,-0.10376849025488,-0.08194918185472,9.95945453643799,1.31585454940796,1.81743252277374,0.80177682638168
374,1955381454,-0.57061940431595,0.55352950096130,50.40646362304688,-0.08617888391018,-0.09315667301416,10.00361347198486,1.31129503250122,1.72693729400635,0.77969723939896
375,1955389787,-0.57031059265137,0.55381518602371,50.40574264526367,-0.10115186870098,-0.08982262015343,9.97530841827393,1.35663235187531,1.83210945129395,0.74967747926712
376,1955398120,-0.56958353519440,0.55399173498154,50.40623855590820,-0.06704995781183,-0.08454649895430,9.99212074279785,1.40399312973022,1.81451261043549,0.89731794595718
377,1955406453,-0.56928420066833,0.55313235521317,50.40583419799805,-0.09368265420198,-0.08931084722281,10.01009368896484,1.35563337802887,1.69292151927948,0.78510189056396
378,1955414786,-0.57020139694214,0.55235058069229,50.40513992309570,-0.09038543701172,-0.10103160887957,9.99755573272705,1.20760858058929,1.70142567157745,0.73062044382095
379,1955423119,-0.57032710313797,0.55265414714813,50.40489959716797,-0.09503959864378,-0.07876668870449,10.02352333068848,1.30478918552399,1.83267271518707,0.80492728948593
380,1955431452,-0.57085704803467,0.55314970016479,50.40565109252930,-0.09905754029751,-0.09295254945755,10.02861881256104,1.25274109840393,1.85252404212952,0.92362374067307
381,1955439785,-0.57133698463440,0.55388432741165,50.40570449829102,-0.10127280652523,-0.07460027188063,10.01750659942627,1.26137292385101,1.88413178920746,0.84342551231384
382,1955448118,-0.57095277309418,0.55382341146469,50.40562438964844,-0.11005016416311,-0.10881856828928,10.01723861694336,1.36288225650787,1.78674650192261,0.79183846712112
383,1955456451,-0.57162678241730,0.55380177497864,50.40594100952148,-0.11201327294111,-0.08557287603617,9.98913192749023,1.23803842067719,1.79376482963562,0.87385523319244
384,1955464784,-0.57139724493027,0.55439358949661,50.40546035766602,-0.11243813484907,-0.08197935670614,9.99063396453857,1.34556698799133,1.86579215526581,0.76455932855606
385,1955473117,-0.57088929414749,0.55346953868866,50.40574645996094,-0.12647682428360,-0.09822060167789,10.03050327301025,1.37922394275665,1.68585205078125,0.86893713474274
386,1955481450,-0.57017439603806,0.55490452051163,50.40555191040039,-0.11021175235510,-0.09153792262077,9.99356746673584,1.40337836742401,1.96630215644836,0.80948668718338
387,1955489783,-0.57117366790771,0.55530244112015,50.40522384643555,-0.10685050487518,-0.08506353199482,10.02151393890381,1.19948887825012,1.84343075752258,0.79657703638077
388,1955498116,-0.57085520029068,0.55507302284241,50.40458679199219,-0.10255053639412,-0.08411358296871,10.01263809204102,1.35645306110382,1.76738238334656,0.75203400850296
389,1955506449,-0.57116544246674,0.55467551946640,50.40446090698242,-0.08288922905922,-0.08076730370522,10.00794887542725,1.28183865547180,1.74970841407776,0.82060319185257
390,1955514782,-0.57124018669128,0.55634152889252,50.40413284301758,-0.07141649723053,-0.08638058602810,9.99201774597168,1.30870807170868,1.99286413192749,0.81440454721451
391,1955523115,-0.57091307640076,0.55615282058716,50.40351867675781,-0.09751231968403,-0.10640033334494,10.02654552459717,1.35873270034790,1.77460539340973,0.76199787855148
392,1955531448,-0.57021802663803,0.55632531642914,50.40337371826172,-0.09149952232838,-0.08950719982386,9.99909973144531,1.39974105358124,1.81400024890900,0.86407059431076
393,1955539781,-0.57030797004700,0.55680048465729,50.40402221679688,-0.10342042893171,-0.09270519763231,10.01170825958252,1.30747878551483,1.85290825366974,0.91324996948242
394,1955548114,-0.57095056772232,0.55701094865799,50.40398788452148,-0.12694340944290,-0.09247256815434,10.03008651733398,1.23965215682983,1.81830358505249,0.85528498888016
395,1955556447,-0.57083404064178,0.55733621120453,50.40384674072266,-0.11217234283686,-0.09601382166147,9.98480033874512,1.33363080024719,1.83707869052887,0.81993728876114
396,1955564780,-0.57124096155167,0.55777740478516,50.40438079833984,-0.13519647717476,-0.09356182068586,10.00439548492432,1.26728987693787,1.84512162208557,0.90874183177948
397,1955573113,-0.57092726230621,0.55780780315399,50.40484237670898,-0.13096834719181,-0.07229947298765,9.98307704925537,1.35627377033234,1.80068075656891,0.88999217748642
398,1955581446,-0.57035648822784,0.55858671665192,50.40455627441406,-0.11513157188892,-0.09742137789726,10.01260089874268,1.38629353046417,1.88677000999451,0.79173594713211
399,1955589779,-0.57061702013016,0.55844825506210,50.40414810180664,-0.11566320806742,-0.08923433721066,10.00880908966064,1.28819108009338,1.78026628494263,0.78482019901276
400,1955598112,-0.57061696052551,0.55821257829666,50.40385437011719,-0.10906997323036,-0.10091161727905,10.00040054321289,1.31636655330658,1.76546108722687,0.83054149150848
401,1955606445,-0.57016319036484,0.55791753530502,50.40425109863281,-0.10490421950817,-0.08635864406824,10.01605701446533,1.37297427654266,1.76033842563629,0.88202625513077
402,1955614778,-0.57029992341995,0.55726599693298,50.40424346923828,-0.10736282169819,-0.08191250264645,10.03071784973145,1.30084455013275,1.71671712398529,0.83110511302948
403,1955623111,-0.57008486986160,0.55730181932449,50.40414047241211,-0.08290332555771,-0.10412084311247,10.01357269287109,1.34477293491364,1.80039882659912,0.82211446762085
404,1955631444,-0.56954658031464,0.55841737985611,50.40427780151367,-0.08868920803070,-0.09061919897795,9.98243999481201,1.38147819042206,1.92718958854675,0.85566920042038
405,1955639777,-0.56894457340240,0.55803000926971,50.40375900268555,-0.09058574587107,-0.09237550199032,10.01666069030762,1.39205694198608,1.75086092948914,0.76970773935318
406,1955648110,-0.56945449113846,0.55817240476608,50.40377044677734,-0.07561143487692,-0.09187595546246,10.02422237396240,1.25530254840851,1.81056785583496,0.84035187959671
407,1955656443,-0.56936222314835,0.55736625194550,50.40401077270508,-0.09435807168484,-0.08891896903515,9.98402786254883,1.33024954795837,1.69868481159210,0.86440354585648
408,1955664776,-0.56984931230545,0.55715441703796,50.40427017211914,-0.10136265307665,-0.07849194854498,10.01371574401855,1.25840175151825,1.76891899108887,0.85769265890121
409,1955673109,-0.57001066207886,0.55631887912750,50.40361022949219,-0.10344462841749,-0.07883112132549,10.00677108764648,1.30063939094543,1.69648194313049,0.75280231237411
410,1955681442,-0.57040578126907,0.55687242746353,50.40230941772461,-0.12106527388096,-0.11058846861124,10.01865196228027,1.26951825618744,1.86177039146423,0.74678301811218
411,1955689775,-0.57009071111679,0.55796617269516,50.40190124511719,-0.13091643154621,-0.10074699670076,10.01737594604492,1.35798990726471,1.92742002010345,0.78799629211426
412,1955698108,-0.56967055797577,0.55853462219238,50.40150070190430,-0.12670013308525,-0.09271991997957,10.03137493133545,1.36698031425476,1.86192429065704,0.83241140842438
413,1955706441,-0.56966257095337,0.55898463726044,50.40122222900391,-0.10999199748039,-0.07297138124704,10.02501678466797,1.32049083709717,1.85119211673737,0.80377471446991
414,1955714774,-0.56979733705521,0.55941462516785,50.40021133422852,-0.12380685657263,-0.06540058553219,9.98554992675781,1.30199718475342,1.84663259983063,0.71079498529434
415,1955723107,-0.57012557983398,0.55971831083298,50.39990615844727,-0.11009400337934,-0.09043723344803,10.02667808532715,1.28014826774597,1.83249342441559,0.79724299907684
416,1955731440,-0.57023829221725,0.56088393926620,50.39878463745117,-0.09034647047520,-0.07350586354733,10.02142047882080,1.30394387245178,1.93548846244812,0.74122470617294
417,1955739773,-0.56985342502594,0.56140816211700,50.39847564697266,-0.09951609373093,-0.11903645098209,10.00381469726562,1.36616086959839,1.85992622375488,0.79596233367920
418,1955748106,-0.56669026613235,0.55874609947205,50.40450286865234,-0.07291888445616,-0.09131263941526,10.02075481414795,1.39192879199982,1.73715734481812,0.83233451843262
419,1955756439,-0.56640988588333,0.55867999792099,50.40464401245117,-0.09531584382057,-0.10039807111025,10.02871417999268,1.35232913494110,1.78856527805328,0.85029017925262
420,1955764772,-0.56661188602448,0.55795735120773,50.40446090698242,-0.07708942145109,-0.07752947509289,10.00789928436279,1.29308342933655,1.70795714855194,0.80953794717789
421,1955773105,-0.56691843271255,0.55757391452789,50.40407943725586,-0.10408031940460,-0.08267576247454,10.00445556640625,1.28250479698181,1.75257730484009,0.78884166479111
422,1955781438,-0.56699460744858,0.55767697095871,50.40369415283203,-0.07724803686142,-0.10137912631035,10.00198459625244,1.30786275863647,1.80595707893372,0.81189435720444
423,1955789771,-0.56646579504013,0.55786865949631,50.40416717529297,-0.11295407265425,-0.08813041448593,10.02269363403320,1.38142704963684,1.81820082664490,0.89181077480316
424,1955798104,-0.56594711542130,0.55827504396439,50.40370941162109,-0.11651298403740,-0.09853865206242,10.00743198394775,1.38042807579041,1.84322607517242,0.74750030040741
425,1955806437,-0.56644600629807,0.55746406316757,50.40350723266602,-0.13223218917847,-0.09265259653330,9.99930858612061,1.25950300693512,1.70104122161865,0.80876940488815
426,1955814770,-0.56649476289749,0.55695128440857,50.40373229980469,-0.09915606677532,-0.08109910041094,10.01044940948486,1.31078279018402,1.73144543170929,0.89993047714233
427,1955823103,-0.56673824787140,0.55640715360641,50.40375900268555,-0.11342163383961,-0.08298829197884,10.00498962402344,1.28895962238312,1.73101007938385,0.83817464113235
428,1955831436,-0.56650400161743,0.55546694993973,50.40393447875977,-0.11695674806833,-0.09787453711033,9.99503421783447,1.34469604492188,1.68008887767792,0.87698012590408
429,1955839769,-0.56698405742645,0.55571901798248,50.40449142456055,-0.11912158876657,-0.08363538980484,10.03544521331787,1.26063024997711,1.82616698741913,0.90231269598007
430,1955848102,-0.56651192903519,0.55647081136703,50.40402221679688,-0.10960811376572,-0.08034794032574,10.00104808807373,1.37405014038086,1.88410639762878,0.81133091449738
431,1955856435,-0.56668704748154,0.55708914995193,50.40378189086914,-0.09550499916077,-0.09194391220808,9.98176670074463,1.29787325859070,1.87229835987091,0.80723261833191
432,1955864768,-0.56688636541367,0.55692970752716,50.40463638305664,-0.11400333046913,-0.10025992244482,10.02267932891846,1.29277610778809,1.77388834953308,0.89485889673233
433,1955873101,-0.56651145219803,0.55712872743607,50.40418243408203,-0.10379708558321,-0.08478100597858,10.01527023315430,1.36434209346771,1.81991696357727,0.77936428785324
434,1955881434,-0.56635200977325,0.55578547716141,50.40392303466797,-0.09090568870306,-0.08956448733807,10.00333499908447,1.33611536026001,1.63375282287598,0.79270935058594
435,1955889767,-0.56592077016830,0.55671274662018,50.40416717529297,-0.09827913343906,-0.08450464159250,9.98242378234863,1.36979794502258,1.90759432315826,0.86481338739395
436,1955898100,-0.56597942113876,0.55713641643524,50.40454483032227,-0.10745080560446,-0.07876677066088,10.01359462738037,1.30950236320496,1.84404563903809,0.86483907699585
437,1955906433,-0.56649380922318,0.55805414915085,50.40568923950195,-0.10886781662703,-0.07815939188004,10.00441741943359,1.25599396228790,1.90592968463898,0.97188097238541
438,1955914766,-0.56696480512619,0.55805915594101,50.40560150146484,-0.09263110160828,-0.08797216415405,10.01960563659668,1.26014351844788,1.79540419578552,0.81020385026932
439,1955923099,-0.56674695014954,0.55715292692184,50.40591049194336,-0.11359818279743,-0.08760440349579,10.00116252899170,1.34436309337616,1.68738889694214,0.86845064163208
440,1955931432,-0.56677085161209,0.55634969472885,50.40575027465820,-0.11292944848537,-0.09596338123083,9.97777462005615,1.31395888328552,1.69666123390198,0.83049035072327
441,1955939765,-0.56654214859009,0.55648708343506,50.40603256225586,-0.10393206030130,-0.08260316401720,10.00776672363281,1.34677100181580,1.81320631504059,0.86998748779297
442,1955948098,-0.56669622659683,0.55539035797119,50.40695953369141,-0.09807413071394,-0.08880750089884,10.02287292480469,1.29672062397003,1.66046833992004,0.95307999849319
443,1955956431,-0.56715041399002,0.55531477928162,50.40726852416992,-0.13228610157967,-0.06455647945404,10.00878334045410,1.26406264305115,1.78797602653503,0.87126815319061
444,1955964764,-0.56755769252777,0.55482697486877,50.40718078613281,-0.13594163954258,-0.09918705374002,10.03268241882324,1.26772522926331,1.73485207557678,0.83955776691437
445,1955973097,-0.56693756580353,0.55474632978439,50.40692138671875,-0.11992128938437,-0.09886975586414,10.03474044799805,1.39367055892944,1.78733563423157,0.80264765024185
446,1955981430,-0.56712532043457,0.55435472726822,50.40753555297852,-0.10998103022575,-0.09673477709293,9.99693012237549,1.29395425319672,1.74709570407867,0.89644694328308
447,1955989763,-0.56777179241180,0.55356264114380,50.40789794921875,-0.08381795883179,-0.06447190046310,10.00261116027832,1.24003636837006,1.69993984699249,0.87692880630493
448,1955998096,-0.56745791435242,0.55309283733368,50.40830612182617,-0.09599477797747,-0.10855692625046,10.03871345520020,1.35530030727386,1.73866856098175,0.87925982475281
449,1956006429,-0.56694555282593,0.55275321006775,50.40850448608398,-0.10931358486414,-0.06780677288771,10.00910949707031,1.37960839271545,1.75439572334290,0.85838431119919
450,1956014762,-0.56718426942825,0.55282843112946,50.40804290771484,-0.09688457846642,-0.08774549514055,10.01976299285889,1.28834474086761,1.80377995967865,0.80538839101791
451,1956023095,-0.56786537170410,0.55314540863037,50.40803527832031,-0.09749063849449,-0.07573069632053,10.00288200378418,1.23716759681702,1.83523428440094,0.83502405881882
452,1956031428,-0.56787061691284,0.55247175693512,50.40771484375000,-0.10705719143152,-0.07331170886755,10.00988197326660,1.31695592403412,1.71354126930237,0.81094664335251
453,1956039761,-0.56740409135818,0.55237931013107,50.40836334228516,-0.11777944862843,-0.08112397044897,10.00857353210449,1.37333297729492,1.78421080112457,0.91191810369492
454,1956048094,-0.56773358583450,0.55231541395187,50.40809249877930,-0.10055750608444,-0.07999603450298,10.01443958282471,1.27827847003937,1.78613197803497,0.79688447713852
455,1956056427,-0.56731051206589,0.55217844247818,50.40737533569336,-0.10909412801266,-0.11048404872417,10.00750350952148,1.37013089656830,1.78136742115021,0.74921631813049
456,1956064760,-0.56783455610275,0.55145037174225,50.40686416625977,-0.10988484323025,-0.09225129336119,9.99046993255615,1.25489258766174,1.70654845237732,0.78202825784683
457,1956073093,-0.56789207458496,0.55140715837479,50.40728759765625,-0.11373027414083,-0.08893868327141,10.03252792358398,1.31139767169952,1.79181838035583,0.88533043861389
458,1956081426,-0.56910097599030,0.55218571424484,50.40753173828125,-0.11073686927557,-0.09695483744144,10.00724983215332,1.17072427272797,1.88682138919830,0.86207276582718
459,1956089759,-0.56866842508316,0.55218321084976,50.40706253051758,-0.12402784824371,-0.08462224155664,9.99690628051758,1.37197518348694,1.79655683040619,0.77913379669189
460,1956098092,-0.56834828853607,0.55254393815994,50.40732955932617,-0.11223855614662,-0.09385361522436,9.99613571166992,1.35455751419067,1.83574652671814,0.90282487869263
461,1956106425,-0.56924778223038,0.55165946483612,50.40665054321289,-0.11150407046080,-0.08932685852051,10.00142002105713,1.21178388595581,1.69294738769531,0.75190585851669
462,1956114758,-0.57045817375183,0.55184811353683,50.40689468383789,-0.10310919582844,-0.08982519060373,10.01280117034912,1.17103171348572,1.81489670276642,0.86540257930756
463,1956123091,-0.57037889957428,0.55236476659775,50.40664672851562,-0.09035627543926,-0.06999425590038,10.00985527038574,1.32791888713837,1.85892760753632,0.80600315332413
464,1956131424,-0.57073986530304,0.55352717638016,50.40633392333984,-0.09272986650467,-0.09722501784563,9.99461269378662,1.27441060543060,1.93500185012817,0.82216560840607
465,1956139757,-0.57160472869873,0.55257534980774,50.40599441528320,-0.08877880126238,-0.06089377775788,9.98924732208252,1.21529281139374,1.68229162693024,0.79219704866409
466,1956148090,-0.57197016477585,0.55277609825134,50.40561676025391,-0.08447083085775,-0.09626260399818,10.00063133239746,1.27379572391510,1.81935346126556,0.78971242904663
467,1956156423,-0.57180893421173,0.55299121141434,50.40521240234375,-0.08609879761934,-0.09047230333090,10.00130367279053,1.33816444873810,1.82201743125916,0.78551179170609
468,1956164756,-0.57212644815445,0.55307912826538,50.40542602539062,-0.09279888123274,-0.09612566232681,10.01133060455322,1.27955913543701,1.80442047119141,0.85792315006256
469,1956173089,-0.57211166620255,0.55225259065628,50.40573883056641,-0.11830084025860,-0.10788730531931,10.01985549926758,1.31992721557617,1.69712257385254,0.87216472625732
470,1956181422,-0.57113170623779,0.55060684680939,50.40527725219727,-0.11112435907125,-0.05830157548189,9.98877429962158,1.43467891216278,1.59750866889954,0.76058906316757
471,1956189755,-0.57189226150513,0.55095082521439,50.40525436401367,-0.10763436555862,-0.09052520245314,10.00881099700928,1.22815132141113,1.83787250518799,0.83131003379822
472,1956198088,-0.57233256101608,0.55217057466507,50.40505981445312,-0.11467795073986,-0.08421538025141,10.01849269866943,1.26406264305115,1.94038081169128,0.81402045488358
473,1956206421,-0.57275700569153,0.55211687088013,50.40536117553711,-0.13280338048935,-0.10983958095312,10.01692008972168,1.26705932617188,1.78843677043915,0.87085837125778
474,1956214754,-0.57281982898712,0.55287432670593,50.40613555908203,-0.12671396136284,-0.06959906965494,10.03938579559326,1.30901551246643,1.88397836685181,0.93555992841721
475,1956223087,-0.57311630249023,0.55273318290710,50.40626144409180,-0.13661655783653,-0.08893535286188,10.03443527221680,1.28317081928253,1.78016388416290,0.84952181577682
476,1956231420,-0.57305896282196,0.55325073003769,50.40619277954102,-0.11926640570164,-0.08656459301710,10.03214740753174,1.32318019866943,1.85572588443756,0.86880928277969
477,1956239753,-0.57337415218353,0.55360555648804,50.40567779541016,-0.09378404170275,-0.09144588559866,10.01565837860107,1.28150570392609,1.83966553211212,0.77334499359131
478,1956248086,-0.57360833883286,0.55433660745621,50.40598297119141,-0.08004333078861,-0.07232440263033,9.98585987091064,1.28783237934113,1.88110923767090,0.88858342170715
479,1956256419,-0.57368797063828,0.55471998453140,50.40599441528320,-0.09187739342451,-0.08882959187031,10.02642059326172,1.30952787399292,1.84325170516968,0.83674025535583
480,1956264752,-0.57445847988129,0.55501264333725,50.40645599365234,-0.07701600342989,-0.09449988603592,10.03452682495117,1.22351503372192,1.82778036594391,0.89511501789093
481,1956273085,-0.57488614320755,0.55473965406418,50.40623474121094,-0.09080459177494,-0.06600579619408,10.01064872741699,1.26757156848907,1.76425719261169,0.80864137411118
482,1956281418,-0.57444059848785,0.55438226461411,50.40648269653320,-0.08405598998070,-0.08823817223310,10.02764701843262,1.36967003345490,1.75104045867920,0.86796402931213
483,1956289751,-0.57440716028214,0.55367171764374,50.40636825561523,-0.09497000277042,-0.08351860940456,10.01426792144775,1.32328271865845,1.71210682392120,0.81860536336899
484,1956298084,-0.57453525066376,0.55298626422882,50.40573501586914,-0.10813273489475,-0.09239505976439,10.01315879821777,1.30204832553864,1.71136355400085,0.77918493747711
485,1956306417,-0.57551729679108,0.55188465118408,50.40575408935547,-0.12265682220459,-0.07670521736145,10.00530242919922,1.20064175128937,1.66497671604156,0.83686834573746
486,1956314750,-0.57571548223495,0.55280542373657,50.40555572509766,-0.13976643979549,-0.08516957610846,9.97630310058594,1.29357004165649,1.90485394001007,0.81878465414047
487,1956323083,-0.57533770799637,0.55260354280472,50.40569305419922,-0.13838586211205,-0.07294709980488,10.00034427642822,1.36421418190002,1.77191591262817,0.85139149427414
488,1956331416,-0.57515060901642,0.55271649360657,50.40490341186523,-0.12287198007107,-0.08501769602299,9.97575473785400,1.33962452411652,1.80759680271149,0.77616262435913
489,1956339749,-0.57520550489426,0.55241906642914,50.40515136718750,-0.11687774956226,-0.06033204495907,10.02506446838379,1.31244802474976,1.76184964179993,0.86489033699036
490,1956348082,-0.57551044225693,0.55178236961365,50.40452957153320,-0.11989871412516,-0.06673265993595,10.00457859039307,1.27996897697449,1.71766507625580,0.77360117435455
491,1956356415,-0.57569020986557,0.55123418569565,50.40392684936523,-0.09845368564129,-0.09312183409929,9.99914836883545,1.29836010932922,1.73175299167633,0.76061475276947
492,1956364748,-0.57512694597244,0.55038380622864,50.40297698974609,-0.10822029411793,-0.08184505999088,10.02052021026611,1.38526904582977,1.69228136539459,0.72460114955902
493,1956373081,-0.57458442449570,0.55100238323212,50.40247344970703,-0.09193187206984,-0.08212909102440,10.04055786132812,1.38427031040192,1.87094056606293,0.77524048089981
494,1956381414,-0.57375323772430,0.55109673738480,50.40222549438477,-0.07013827562332,-0.07048424333334,10.00834083557129,1.41761982440948,1.80687940120697,0.80113649368286
495,1956389747,-0.57368421554565,0.55034965276718,50.40182495117188,-0.07631301134825,-0.09469851851463,10.01724052429199,1.32756006717682,1.70629215240479,0.78494817018509
496,1956398080,-0.57358145713806,0.55069029331207,50.40188598632812,-0.08490665256977,-0.09256654232740,9.97953605651855,1.32904577255249,1.83559286594391,0.84150445461273
497,1956406413,-0.57316362857819,0.55086839199066,50.40188217163086,-0.11151044815779,-0.08886756002903,10.03511714935303,1.36826133728027,1.81773984432220,0.83435815572739
498,1956414746,-0.57290637493134,0.55173999071121,50.40225601196289,-0.09223807603121,-0.08280606567860,10.00844860076904,1.34771871566772,1.89896273612976,0.88258975744247
499,1956423079,-0.57292520999908,0.55122464895248,50.40243530273438,-0.11547762900591,-0.07598581910133,10.00091838836670,1.31644356250763,1.73500573635101,0.85482382774353
500,1956431412,-0.57339686155319,0.55224794149399,50.40180969238281,-0.12662068009377,-0.08539027720690,9.96895790100098,1.26075828075409,1.91573977470398,0.79988127946854
501,1956439745,-0.57326108217239,0.55168426036835,50.40141296386719,-0.14827516674995,-0.08320059627295,10.00604438781738,1.33519315719604,1.72942185401917,0.78699731826782
502,1956448078,-0.57346397638321,0.55156570672989,50.40115356445312,-0.12251248955727,-0.09714136272669,10.00652027130127,1.29310905933380,1.77929282188416,0.80431264638901
503,1956456411,-0.57384794950485,0.55271905660629,50.40114974975586,-0.12829756736755,-0.09357150644064,9.99582386016846,1.27231037616730,1.93528378009796,0.83471673727036
504,1956464744,-0.57367712259293,0.55315124988556,50.40059661865234,-0.11996236443520,-0.09359311312437,9.99561309814453,1.33729362487793,1.84589004516602,0.85282593965530
505,1956473077,-0.57378703355789,0.55248612165451,50.40065002441406,-0.11477715522051,-0.08416337519884,9.99569892883301,1.30514764785767,1.71661448478699,0.83963459730148
506,1956481410,-0.57408976554871,0.55310136079788,50.40073776245117,-0.09617443382740,-0.08617026358843,9.98154449462891,1.28104484081268,1.86663758754730,0.82390743494034
507,1956489743,-0.57493937015533,0.55193960666656,50.40036773681641,-0.07701351493597,-0.07802426815033,9.96784114837646,1.21700906753540,1.65895700454712,0.78909760713577
508,1956498076,-0.57526195049286,0.55190235376358,50.40003204345703,-0.06765495985746,-0.09274616837502,10.01183414459229,1.27861130237579,1.78966653347015,0.79480969905853
509,1956506409,-0.57486039400101,0.55126154422760,50.40032577514648,-0.06362797319889,-0.06569001823664,10.01528072357178,1.36682689189911,1.71881771087646,0.86786156892776
510,1956514742,-0.57377099990845,0.55159896612167,50.40050506591797,-0.07888703793287,-0.07852452248335,9.98026657104492,1.44746029376984,1.83390235900879,0.83950650691986
511,1956523075,-0.57322680950165,0.55154532194138,50.40032196044922,-0.09093490988016,-0.08983351290226,9.99774742126465,1.38355290889740,1.78971791267395,0.81366181373596
512,1956531408,-0.57302922010422,0.55093634128571,50.40019607543945,-0.09601721912622,-0.08271974325180,10.01717281341553,1.34167349338531,1.72201931476593,0.79760164022446
513,1956539741,-0.57295888662338,0.55096334218979,50.40031433105469,-0.10600110143423,-0.10094049572945,10.01575756072998,1.32694542407990,1.79947698116302,0.84834355115891
514,1956548074,-0.57237303256989,0.55118477344513,50.40041732788086,-0.13294696807861,-0.07093635946512,10.01314640045166,1.38662660121918,1.81950736045837,0.87459796667099
515,1956556407,-0.57187151908875,0.55034279823303,50.40047073364258,-0.12325915694237,-0.08445886522532,10.01599788665771,1.37901914119720,1.69717347621918,0.84058231115341
516,1956564740,-0.57171845436096,0.54920387268066,50.40044021606445,-0.13923196494579,-0.08719827979803,9.99878597259521,1.33493709564209,1.65680575370789,0.82134610414505
517,1956573073,-0.57138216495514,0.54944205284119,50.40106582641602,-0.13138914108276,-0.09488614648581,10.05001449584961,1.35880959033966,1.82496321201324,0.90984332561493
518,1956581406,-0.57118040323257,0.54932701587677,50.40033340454102,-0.11120533198118,-0.09371393918991,10.04090023040771,1.34136629104614,1.78090620040894,0.74801242351532
519,1956589739,-0.57196760177612,0.54885971546173,50.40012359619141,-0.13669148087502,-0.08785502612591,9.99620914459229,1.22461652755737,1.74128139019012,0.80887192487717
520,1956598072,-0.57197445631027,0.55040162801743,50.40074539184570,-0.11953071504831,-0.09747586399317,10.00802326202393,1.31521427631378,1.97685551643372,0.91399276256561
521,1956606405,-0.57175207138062,0.55015015602112,50.40060806274414,-0.09094819426537,-0.10408344119787,10.02208328247070,1.34543883800507,1.76692104339600,0.81868219375610
522,1956614738,-0.57195138931274,0.55029404163361,50.40032196044922,-0.08994144201279,-0.09071348607540,10.03007125854492,1.29300653934479,1.81146442890167,0.79314476251602
523,1956623071,-0.57230114936829,0.55059695243835,50.40047073364258,-0.09231129288673,-0.06568559259176,10.01401901245117,1.27679276466370,1.83338987827301,0.85267221927643
524,1956631404,-0.57247430086136,0.55035197734833,50.39963150024414,-0.08714790642262,-0.10078859329224,10.00850486755371,1.29697668552399,1.76461577415466,0.72967267036438
525,1956639737,-0.57228183746338,0.55031538009644,50.39938735961914,-0.10190390050411,-0.11722881346941,10.01380634307861,1.34228837490082,1.79245853424072,0.80380028486252
526,1956648070,-0.57228797674179,0.55022692680359,50.39946746826172,-0.09170923382044,-0.08227351307869,10.01697349548340,1.31593120098114,1.78400576114655,0.84972661733627
527,1956656403,-0.57280403375626,0.55007308721542,50.39966201782227,-0.11974032968283,-0.08951171487570,10.02352046966553,1.25627589225769,1.77811467647552,0.85820490121841
528,1956664736,-0.57296866178513,0.54940259456635,50.39933013916016,-0.12394586950541,-0.08008997887373,10.03238296508789,1.29759156703949,1.71359229087830,0.79570615291595
529,1956673069,-0.57319182157516,0.54985350370407,50.39920043945312,-0.12676462531090,-0.11253727972507,10.03289413452148,1.29259669780731,1.85093605518341,0.82142293453217
530,1956681402,-0.57314848899841,0.55049318075180,50.39886093139648,-0.14685109257698,-0.10130012035370,9.99842739105225,1.32133591175079,1.87047934532166,0.82903027534485
531,1956689735,-0.57237064838409,0.55073606967926,50.39879226684570,-0.12373960018158,-0.08595310151577,9.98648548126221,1.41285574436188,1.82593643665314,0.82777529954910
532,1956698068,-0.57260787487030,0.55126965045929,50.39949417114258,-0.12685945630074,-0.09559576958418,10.00037479400635,1.28660297393799,1.85641729831696,0.94088768959045
533,1956706401,-0.57230031490326,0.55194979906082,50.39921569824219,-0.12699148058891,-0.10659696161747,10.00722217559814,1.35624814033508,1.87952125072479,0.80164873600006
534,1956714734,-0.57281500101089,0.55120271444321,50.39899063110352,-0.10174015909433,-0.09549628198147,9.99709606170654,1.25517416000366,1.70234763622284,0.83046466112137
535,1956723067,-0.57305943965912,0.55244314670563,50.39879226684570,-0.09974982589483,-0.10023391991854,10.01354026794434,1.28942060470581,1.94575977325439,0.81312388181686
536,1956731400,-0.57276546955109,0.55271208286285,50.39891433715820,-0.09406026452780,-0.09859689325094,10.02821826934814,1.35130465030670,1.82565474510193,0.85223692655563
537,1956739733,-0.57235831022263,0.55304217338562,50.39916610717773,-0.08545775711536,-0.07836289703846,10.00911331176758,1.36754381656647,1.83730900287628,0.86594039201736
538,1956748066,-0.57170021533966,0.55314803123474,50.39941406250000,-0.07153147459030,-0.09040623158216,10.02178478240967,1.39574527740479,1.80541920661926,0.87336856126785
539,1956756399,-0.57165861129761,0.55380451679230,50.39954757690430,-0.07784605771303,-0.08485153317451,10.01620292663574,1.32374370098114,1.87529504299164,0.85154533386230
540,1956764732,-0.57067143917084,0.55415552854538,50.39901351928711,-0.11703467369080,-0.08062003552914,10.00766468048096,1.43572926521301,1.83669424057007,0.75467216968536
541,1956773065,-0.57042664289474,0.55422121286392,50.39916229248047,-0.10483557730913,-0.08859937638044,10.02458477020264,1.34794902801514,1.80370318889618,0.85239046812057
542,1956781398,-0.57043719291687,0.55250072479248,50.39993667602539,-0.09988598525524,-0.08675475418568,9.98827838897705,1.31490671634674,1.58723711967468,0.94667649269104
543,1956789731,-0.56965148448944,0.55228579044342,50.39996719360352,-0.11741160601377,-0.07784611731768,10.00564861297607,1.41282999515533,1.77081465721130,0.83802092075348
544,1956798064,-0.57030940055847,0.55180823802948,50.39955139160156,-0.12318952381611,-0.07638812810183,10.01922702789307,1.23821759223938,1.73654258251190,0.78827804327011
545,1956806397,-0.57031327486038,0.55206197500229,50.39991378784180,-0.13749857246876,-0.08675367385149,10.01255416870117,1.31823658943176,1.82734501361847,0.87961840629578
546,1956814730,-0.57043445110321,0.55071175098419,50.40045166015625,-0.12445256114006,-0.08439259231091,10.01214122772217,1.30056285858154,1.63083291053772,0.88517677783966
547,1956823063,-0.56990915536880,0.55057621002197,50.40029907226562,-0.11660157889128,-0.06640630960464,10.02302074432373,1.38257956504822,1.78034317493439,0.81624889373779
548,1956831396,-0.56943839788437,0.54981017112732,50.40109252929688,-0.11689766496420,-0.09679499268532,10.01348018646240,1.37266671657562,1.70201468467712,0.93018096685410
549,1956839729,-0.56870454549789,0.54956656694412,50.40119934082031,-0.09404627978802,-0.07999312877655,10.02451229095459,1.40591430664062,1.76666522026062,0.84829235076904
550,1956848062,-0.56818515062332,0.54945778846741,50.40193176269531,-0.08150205016136,-0.09594665467739,10.01110363006592,1.37825083732605,1.78098344802856,0.92226624488831
551,1956856395,-0.56794750690460,0.54972738027573,50.40146255493164,-0.09750995784998,-0.07066474854946,10.00512599945068,1.34784662723541,1.82862603664398,0.77833980321884
552,1956864728,-0.56776988506317,0.54905617237091,50.40062332153320,-0.10636499524117,-0.09914734214544,9.99206829071045,1.33975267410278,1.71471941471100,0.74657809734344
553,1956873061,-0.56855106353760,0.54977357387543,50.40139770507812,-0.09061343222857,-0.11227168887854,10.02295589447021,1.22423255443573,1.88187801837921,0.92797821760178
554,1956881394,-0.56812775135040,0.54987555742264,50.40103149414062,-0.08793334662914,-0.09201825410128,10.02272605895996,1.36744153499603,1.80764782428741,0.77782750129700
555,1956889727,-0.56797397136688,0.54874509572983,50.40074539184570,-0.08872352540493,-0.08081725239754,9.99022293090820,1.33783149719238,1.66087830066681,0.79995822906494
556,1956898060,-0.56762546300888,0.54901868104935,50.40128326416016,-0.10629878193140,-0.08146657794714,10.00318050384521,1.35824596881866,1.82606410980225,0.90748667716980
557,1956906393,-0.56760543584824,0.54891335964203,50.40139389038086,-0.10978223383427,-0.07886572927237,10.01658439636230,1.32061874866486,1.78398036956787,0.84744691848755
558,1956914726,-0.56715911626816,0.54939985275269,50.40060424804688,-0.11334826052189,-0.09525272250175,9.97808933258057,1.37054097652435,1.85198616981506,0.78146475553513
559,1956923059,-0.56678479909897,0.54950386285782,50.40032577514648,-0.12564018368721,-0.09140564501286,9.99791622161865,1.36398363113403,1.81023490428925,0.80351859331131
560,1956931392,-0.56605827808380,0.54852157831192,50.40054702758789,-0.12773282825947,-0.09153045713902,10.01053524017334,1.40358304977417,1.67622101306915,0.86757969856262
561,1956939725,-0.56587976217270,0.54816639423370,50.40091705322266,-0.10308640450239,-0.08647654205561,10.00647163391113,1.34036719799042,1.75260281562805,0.87820959091187
562,1956948058,-0.56662708520889,0.54786425828934,50.40098571777344,-0.11195137351751,-0.11376841366291,10.02238845825195,1.22625577449799,1.75910890102386,0.84304141998291
563,1956956391,-0.56658768653870,0.54824197292328,50.40033340454102,-0.10118379443884,-0.07196173816919,9.99739933013916,1.32466578483582,1.84220147132874,0.75692629814148
564,1956964724,-0.56693845987320,0.54761320352554,50.39926147460938,-0.08745913952589,-0.08724093437195,9.98790550231934,1.27584517002106,1.71881771087646,0.70815682411194
565,1956973057,-0.56713968515396,0.54760330915451,50.39902496337891,-0.08040077984333,-0.08626677840948,10.01473045349121,1.29485058784485,1.79560899734497,0.80556762218475
566,1956981390,-0.56730598211288,0.54721164703369,50.39889907836914,-0.10184334218502,-0.09987796097994,10.00854778289795,1.29625964164734,1.74735188484192,0.83901989459991
567,1956989723,-0.56724190711975,0.54669600725174,50.39998626708984,-0.08854262530804,-0.07756777107716,10.02631378173828,1.32579278945923,1.73380196094513,0.96414536237717
568,1956998056,-0.56787979602814,0.54595744609833,50.39954376220703,-0.09153320640326,-0.08906430006027,10.00964736938477,1.23970341682434,1.70552372932434,0.80584943294525
569,1957006389,-0.56731438636780,0.54571545124054,50.39907073974609,-0.11646302789450,-0.09152995795012,10.00873184204102,1.38680601119995,1.76669073104858,0.77767384052277
570,1957014722,-0.56719577312469,0.54709750413895,50.39856719970703,-0.09228385984898,-0.09684541821480,10.01042366027832,1.33250391483307,1.96151256561279,0.76998960971832
571,1957023055,-0.56687700748444,0.54774695634842,50.39871597290039,-0.12123853713274,-0.07729271054268,10.02850151062012,1.35683715343475,1.87396311759949,0.85385048389435
572,1957031388,-0.56749331951141,0.54791444540024,50.39917755126953,-0.13075637817383,-0.10044625401497,10.02523994445801,1.24223911762238,1.81328296661377,0.88699531555176
573,1957039721,-0.56749945878983,0.54919934272766,50.39944458007812,-0.13586555421352,-0.09917342662811,10.02708244323730,1.31723749637604,1.95165085792542,0.87229263782501
574,1957048054,-0.56782162189484,0.54916805028915,50.39920806884766,-0.10417113453150,-0.08186188340187,9.98800945281982,1.27789402008057,1.78966653347015,0.80221217870712
575,1957056387,-0.56799077987671,0.54988700151443,50.39876174926758,-0.10516136884689,-0.10100556910038,9.98808193206787,1.29956388473511,1.88323557376862,0.78320646286011
576,1957064720,-0.56796407699585,0.54999685287476,50.39850234985352,-0.11652807146311,-0.09489548206329,9.99733734130859,1.32000410556793,1.80703306198120,0.81722223758698
577,1957073053,-0.56706178188324,0.55106437206268,50.39918136596680,-0.12148649245501,-0.09958813339472,9.99947547912598,1.42573940753937,1.92429506778717,0.91852641105652
578,1957081386,-0.56735897064209,0.55058789253235,50.39888763427734,-0.13228669762611,-0.09498169273138,10.02910041809082,1.28117275238037,1.73725986480713,0.79842126369476
579,1957089719,-0.56675308942795,0.55144697427750,50.39923095703125,-0.12528325617313,-0.07691150903702,10.00841426849365,1.39123725891113,1.89891147613525,0.87695461511612
580,1957098052,-0.56652486324310,0.55141818523407,50.39968490600586,-0.11701776832342,-0.08038564771414,10.00386524200439,1.34408152103424,1.78930807113647,0.86898851394653
581,1957106385,-0.56656855344772,0.55097097158432,50.39873886108398,-0.09902972728014,-0.09052385389805,10.00875473022461,1.31475317478180,1.74371457099915,0.72029793262482
582,1957114718,-0.56650328636169,0.55141162872314,50.39866638183594,-0.09462425112724,-0.08718124777079,10.01486301422119,1.32446074485779,1.84747803211212,0.82657134532928
583,1957123051,-0.56623345613480,0.55173110961914,50.39875030517578,-0.09075470268726,-0.05592019483447,10.02436065673828,1.35043370723724,1.83469665050507,0.84552586078644
584,1957131384,-0.56643909215927,0.55287927389145,50.39846420288086,-0.09155055135489,-0.07105749100447,10.03679943084717,1.29226374626160,1.93246603012085,0.82495766878128
585,1957139717,-0.56645208597183,0.55360198020935,50.39794540405273,-0.07958398014307,-0.05856618657708,10.01098537445068,1.31787812709808,1.88344025611877,0.77116781473160
586,1957148050,-0.56644082069397,0.55239111185074,50.39783096313477,-0.08803927153349,-0.11386514455080,10.00416183471680,1.31833922863007,1.64809679985046,0.82085943222046
587,1957156383,-0.56652474403381,0.55398941040039,50.39759826660156,-0.10495268553495,-0.10113237053156,9.99641513824463,1.30855453014374,1.98961150646210,0.80976843833923
588,1957164716,-0.56626230478287,0.55543720722198,50.39770889282227,-0.12647236883640,-0.09508685767651,10.00646877288818,1.34800040721893,1.96604633331299,0.85643762350082
589,1957173049,-0.56639122962952,0.55509203672409,50.39840698242188,-0.12734965980053,-0.09314380586147,10.01460170745850,1.30217647552490,1.75600969791412,0.91857761144638
590,1957181382,-0.56617909669876,0.55478829145432,50.39894104003906,-0.14019958674908,-0.05994491279125,10.02334594726562,1.34128952026367,1.75652170181274,0.90269690752029
591,1957189715,-0.56689155101776,0.55468094348907,50.39835357666016,-0.11369907855988,-0.09568984806538,10.03489589691162,1.23458039760590,1.78362154960632,0.76455926895142
592,1957198048,-0.56672477722168,0.55498963594437,50.39780426025391,-0.10587839782238,-0.09776675701141,10.01002788543701,1.33729350566864,1.83226299285889,0.76163923740387
593,1957206381,-0.56657493114471,0.55461376905441,50.39802932739258,-0.14759790897369,-0.09849664568901,10.03203105926514,1.33578240871429,1.75034868717194,0.86066389083862
594,1957214714,-0.56606876850128,0.55621564388275,50.39805221557617,-0.12423226237297,-0.08217472583055,10.00601100921631,1.37707269191742,1.98646092414856,0.86903971433640
595,1957223047,-0.56570762395859,0.55625903606415,50.39760208129883,-0.11141398549080,-0.07545851171017,9.99431610107422,1.36293351650238,1.80144917964935,0.78005594015121
596,1957231380,-0.56458795070648,0.55757898092270,50.39752960205078,-0.10728462785482,-0.06427776813507,10.01129817962646,1.45109772682190,1.95262432098389,0.83230900764465
597,1957239713,-0.56500595808029,0.55672180652618,50.39698028564453,-0.10472632199526,-0.08949345350266,10.00256633758545,1.26967215538025,1.69384396076202,0.76786351203918
598,1957248046,-0.56560683250427,0.55596697330475,50.39711761474609,-0.08367907255888,-0.11378872394562,10.03677749633789,1.24408316612244,1.70288550853729,0.87905490398407
599,1957256379,-0.56569343805313,0.55630153417587,50.39710998535156,-0.09296839684248,-0.09353768080473,9.97981548309326,1.30783724784851,1.83805191516876,0.83520340919495
600,1957264712,-0.56514382362366,0.55743503570557,50.39714431762695,-0.08342167735100,-0.09038047492504,10.02211093902588,1.38250279426575,1.92859804630280,0.85592532157898
601,1957273045,-0.56606328487396,0.55728393793106,50.39770126342773,-0.10785144567490,-0.07025961577892,10.00292110443115,1.20835161209106,1.77849888801575,0.90246641635895
602,1957281378,-0.56574249267578,0.55871790647507,50.39771652221680,-0.09970626980066,-0.10905612260103,9.99774742126465,1.35453200340271,1.96412503719330,0.88940304517746
603,1957289711,-0.56527328491211,0.55994790792465,50.39745330810547,-0.10772933810949,-0.07371339201927,10.01214218139648,1.37474167346954,1.94522166252136,0.80500411987305
604,1957298044,-0.56441372632980,0.55921381711960,50.39731597900391,-0.13323816657066,-0.09540847688913,9.99478149414062,1.42010438442230,1.70567739009857,0.81883585453033
605,1957306377,-0.56463980674744,0.55936890840530,50.39732360839844,-0.11992521584034,-0.10208936780691,9.97432613372803,1.29172599315643,1.81464064121246,0.83571565151215
606,1957314710,-0.56418907642365,0.55983477830887,50.39708328247070,-0.12183436006308,-0.09392890334129,9.98780155181885,1.37100195884705,1.85014176368713,0.81868219375610
607,1957323043,-0.56431120634079,0.55922031402588,50.39730453491211,-0.12271001935005,-0.09382937103510,10.00252151489258,1.30327785015106,1.72278785705566,0.86120176315308
608,1957331376,-0.56506222486496,0.55917978286743,50.39703750610352,-0.12104678153992,-0.07088291645050,10.00292682647705,1.22735738754272,1.78938496112823,0.80820602178574
609,1957339709,-0.56597959995270,0.55880677700043,50.39645767211914,-0.12170980870724,-0.09053330868483,9.98369407653809,1.20917117595673,1.75396025180817,0.76512277126312
610,1957348042,-0.56585687398911,0.55826145410538,50.39609909057617,-0.09870097041130,-0.08147930353880,10.00963401794434,1.33235001564026,1.72801303863525,0.78748399019241
611,1957356375,-0.56570231914520,0.55725115537643,50.39567184448242,-0.07850465923548,-0.08994713425636,10.01632690429688,1.33770346641541,1.67517101764679,0.78412860631943
612,1957364708,-0.56565147638321,0.55740326642990,50.39588546752930,-0.08787617832422,-0.08136265724897,9.97942066192627,1.32197630405426,1.81292450428009,0.87382960319519
613,1957373041,-0.56552582979202,0.55811166763306,50.39595031738281,-0.08205453306437,-0.06137361750007,10.02482509613037,1.33434796333313,1.88221085071564,0.84375846385956
614,1957381374,-0.56623339653015,0.55766069889069,50.39604187011719,-0.09537722915411,-0.08032132685184,10.01770305633545,1.23114824295044,1.73807966709137,0.83825153112411
615,1957389707,-0.56633800268173,0.55778264999390,50.39608001708984,-0.07715070992708,-0.07245018333197,10.00409221649170,1.30617225170135,1.81207883358002,0.83932721614838
616,1957398040,-0.56589549779892,0.55782014131546,50.39627838134766,-0.10041718184948,-0.10378336161375,10.01616573333740,1.36951637268066,1.79770970344543,0.85103303194046
617,1957406373,-0.56599795818329,0.55832660198212,50.39596557617188,-0.11173300445080,-0.08247604221106,10.02747058868408,1.30722248554230,1.85736489295959,0.79798591136932
618,1957414706,-0.56591266393661,0.55912917852402,50.39560699462891,-0.10544978082180,-0.08799993246794,10.02152824401855,1.32656109333038,1.89179039001465,0.80008620023727
619,1957423039,-0.56546092033386,0.55813544988632,50.39577102661133,-0.11414261162281,-0.08321714401245,9.99215126037598,1.37364029884338,1.67778384685516,0.85310763120651
620,1957431372,-0.56561142206192,0.55829733610153,50.39544677734375,-0.14569076895714,-0.06790041178465,9.99924755096436,1.29884672164917,1.81282186508179,0.78740721940994
621,1957439705,-0.56584566831589,0.55896657705307,50.39467620849609,-0.12824937701225,-0.06731658428907,10.01205253601074,1.29152095317841,1.87736952304840,0.74560469388962
622,1957448038,-0.56559079885483,0.55952620506287,50.39358520507812,-0.12118177860975,-0.09296493232250,10.00204086303711,1.34759056568146,1.86300003528595,0.71514940261841
623,1957456371,-0.56415694952011,0.56034541130066,50.39419174194336,-0.11197699606419,-0.08826373517513,9.98072910308838,1.49100470542908,1.89437758922577,0.90892112255096
624,1957464704,-0.56416046619415,0.56052023172379,50.39417266845703,-0.12462395429611,-0.09027460217476,10.02452278137207,1.31534242630005,1.81379544734955,0.83458864688873
625,1957473037,-0.56412303447723,0.56053763628006,50.39417266845703,-0.09615851938725,-0.09749738872051,10.01411342620850,1.32379496097565,1.79901587963104,0.83412760496140
626,1957481370,-0.56397867202759,0.55971229076385,50.39401245117188,-0.10822878032923,-0.07138393819332,10.00174808502197,1.33406627178192,1.69532954692841,0.80423581600189
627,1957489703,-0.56349295377731,0.56051295995712,50.39308166503906,-0.08324704319239,-0.11456804722548,10.00265693664551,1.37791776657104,1.89463388919830,0.72570252418518
628,1957498036,-0.56312435865402,0.55995023250580,50.39336013793945,-0.08687593787909,-0.07913631945848,10.01544380187988,1.36085879802704,1.72483682632446,0.87569940090179
629,1957506369,-0.56387811899185,0.56023001670837,50.39310836791992,-0.09261640906334,-0.09008684754372,10.00416374206543,1.22792077064514,1.83082854747772,0.80720692873001
630,1957514702,-0.56459110975266,0.55902296304703,50.39277267456055,-0.10966090857983,-0.07961513102055,10.00105381011963,1.23145532608032,1.64935171604156,0.80672037601471
631,1957523035,-0.56556141376495,0.55869132280350,50.39277267456055,-0.09764292091131,-0.07719017565250,9.98283767700195,1.20205044746399,1.75616335868835,0.83469110727310
632,1957531368,-0.56575804948807,0.55809628963470,50.39286422729492,-0.11760699003935,-0.07030299305916,9.99645423889160,1.29413378238678,1.72240376472473,0.82490646839142
633,1957539701,-0.56593465805054,0.55819779634476,50.39248275756836,-0.13234619796276,-0.08060944080353,10.00746822357178,1.29743766784668,1.80905628204346,0.78886717557907
634,1957548034,-0.56644994020462,0.55907446146011,50.39295196533203,-0.12640148401260,-0.08496762067080,10.00496578216553,1.25361192226410,1.89811754226685,0.90090388059616
635,1957556367,-0.56636106967926,0.55839079618454,50.39358520507812,-0.13549855351448,-0.08830915391445,10.00025939941406,1.32945561408997,1.71351540088654,0.91007375717163
636,1957564700,-0.56663131713867,0.55862659215927,50.39352416992188,-0.13279986381531,-0.08005955070257,9.99452209472656,1.28368294239044,1.82306754589081,0.79373383522034
637,1957573033,-0.56672030687332,0.55709552764893,50.39272689819336,-0.11267063021660,-0.08309317380190,9.99934768676758,1.30996322631836,1.61464440822601,0.73656290769577
638,1957581366,-0.56764400005341,0.55819433927536,50.39190673828125,-0.11830317974091,-0.10439268499613,9.97615623474121,1.20566201210022,1.92578065395355,0.74478501081467
639,1957589699,-0.56757944822311,0.55916291475296,50.39200973510742,-0.11787968873978,-0.09220930933952,9.99229335784912,1.32722723484039,1.91266620159149,0.84775441884995
640,1957598032,-0.56674218177795,0.56017488241196,50.39216995239258,-0.09018337726593,-0.08809311687946,10.01510143280029,1.41651844978333,1.91422879695892,0.83804655075073
641,1957606365,-0.56617015600204,0.56043332815170,50.39271163940430,-0.08746221661568,-0.08413249254227,10.02693843841553,1.38675475120544,1.82819044589996,0.89952075481415
642,1957614698,-0.56675583124161,0.56150609254837,50.39263534545898,-0.09234470129013,-0.08507122099400,10.01591396331787,1.24659347534180,1.92293727397919,0.81491684913635
643,1957623031,-0.56685411930084,0.56143909692764,50.39205932617188,-0.08090846985579,-0.08028719574213,9.96126651763916,1.30796539783478,1.78905177116394,0.76509720087051
644,1957631364,-0.56769227981567,0.56157028675079,50.39243316650391,-0.10827882587910,-0.09959886968136,9.98009872436523,1.21547222137451,1.80880033969879,0.88492053747177
645,1957639697,-0.56731742620468,0.56256431341171,50.39204406738281,-0.10307583212852,-0.09029722958803,10.02959728240967,1.36395800113678,1.91614961624146,0.79132622480392
646,1957648030,-0.56697839498520,0.56280601024628,50.39205932617188,-0.10853748023510,-0.09999671578407,10.01005649566650,1.35670924186707,1.82350325584412,0.87759500741959
647,1957656363,-0.56721568107605,0.56308424472809,50.39194869995117,-0.12002819031477,-0.08359073847532,9.97562599182129,1.29059886932373,1.82972741127014,0.82249867916107
648,1957664696,-0.56766903400421,0.56371033191681,50.39189147949219,-0.11419524997473,-0.08943127095699,10.01134872436523,1.26206469535828,1.86830246448517,0.83720129728317
649,1957673029,-0.56662243604660,0.56496030092239,50.39159011840820,-0.12406439334154,-0.08532013744116,10.00359344482422,1.44538581371307,1.94829571247101,0.79934346675873
650,1957681362,-0.56664991378784,0.56455582380295,50.39212799072266,-0.13229072093964,-0.09323487430811,10.02856540679932,1.31239652633667,1.74409890174866,0.87949031591415
651,1957689695,-0.56684160232544,0.56468117237091,50.39264297485352,-0.12490958720446,-0.06938961893320,10.00744724273682,1.29472279548645,1.81108021736145,0.89603728055954
652,1957698028,-0.56742542982101,0.56477922201157,50.39249420166016,-0.09934777021408,-0.10639893263578,10.02823448181152,1.24736189842224,1.80529117584229,0.83246260881424
653,1957706361,-0.56762963533401,0.56456631422043,50.39254379272461,-0.10780052095652,-0.08151728659868,10.01652812957764,1.29359579086304,1.77153193950653,0.83966016769409
654,1957714694,-0.56778740882874,0.56498759984970,50.39213562011719,-0.10446710139513,-0.10119757801294,9.99004268646240,1.29853928089142,1.84550583362579,0.78251487016678
655,1957723027,-0.56793493032455,0.56508868932724,50.39290237426758,-0.10065563768148,-0.08875819295645,10.01647186279297,1.30030667781830,1.80734062194824,0.92733764648438
656,1957731360,-0.56804424524307,0.56502044200897,50.39248657226562,-0.09359674155712,-0.09614752978086,9.98178195953369,1.30343163013458,1.78574776649475,0.78668999671936
657,1957739693,-0.56850010156631,0.56554931402206,50.39216232299805,-0.10075577348471,-0.09978096187115,10.00904083251953,1.26518952846527,1.86077189445496,0.79601365327835
658,1957748026,-0.56833821535110,0.56536245346069,50.39290237426758,-0.09644893556833,-0.06657069921494,9.98784637451172,1.33742165565491,1.77309429645538,0.92395675182343
659,1957756359,-0.56720268726349,0.56313705444336,50.39732360839844,-0.09814976155758,-0.09530103951693,10.00189495086670,1.28381097316742,1.89453125000000,0.81371307373047
660,1957764692,-0.56766116619110,0.56278622150421,50.39670181274414,-0.10557961463928,-0.08421669155359,10.02345752716064,1.26193642616272,1.75152671337128,0.76376515626907
661,1957773025,-0.56803655624390,0.56268203258514,50.39610290527344,-0.11365043371916,-0.11752606928349,10.01070880889893,1.27428257465363,1.78646469116211,0.76251012086868
662,1957781358,-0.56810843944550,0.56339734792709,50.39591598510742,-0.12021186202765,-0.08950196951628,9.98009681701660,1.30773472785950,1.87941873073578,0.82482957839966
663,1957789691,-0.56873780488968,0.56328684091568,50.39670181274414,-0.09379199147224,-0.06509511172771,10.00091361999512,1.24216222763062,1.78195667266846,0.92931002378464
664,1957798024,-0.56880044937134,0.56298333406448,50.39640808105469,-0.10616607964039,-0.07842615991831,10.00556278228760,1.31014251708984,1.75775146484375,0.80344176292419
665,1957806357,-0.56865906715393,0.56265377998352,50.39593124389648,-0.10739985853434,-0.05739932879806,9.98437309265137,1.33606410026550,1.75844275951385,0.77723830938339
666,1957814690,-0.56768387556076,0.56227374076843,50.39564514160156,-0.10949379950762,-0.09809719771147,10.01699447631836,1.43311631679535,1.74707007408142,0.81151008605957
667,1957823023,-0.56739121675491,0.56202977895737,50.39559555053711,-0.10329847782850,-0.10897056013346,10.01332855224609,1.35473692417145,1.76894485950470,0.82739108800888
668,1957831356,-0.56785863637924,0.56254452466965,50.39474487304688,-0.10708172619343,-0.10128804296255,10.01685714721680,1.26103997230530,1.85585403442383,0.74091738462448
669,1957839689,-0.56820154190063,0.56121492385864,50.39531326293945,-0.08936967700720,-0.08738601207733,10.02084445953369,1.27689516544342,1.63613474369049,0.90251749753952
670,1957848022,-0.56827473640442,0.56098860502243,50.39549636840820,-0.09880521148443,-0.09133479744196,10.02611446380615,1.30750441551208,1.76720309257507,0.85236495733261
671,1957856355,-0.56883823871613,0.56068754196167,50.39564514160156,-0.09857519716024,-0.08476738631725,10.01276683807373,1.25058948993683,1.75980031490326,0.85072565078735
672,1957864688,-0.56894689798355,0.56194341182709,50.39510726928711,-0.08292166143656,-0.08059516549110,9.99839019775391,1.30404639244080,1.94545245170593,0.77252542972565
673,1957873021,-0.56869584321976,0.56198930740356,50.39492416381836,-0.10009677708149,-0.10326826572418,9.99424934387207,1.34887123107910,1.80244815349579,0.81312388181686
674,1957881354,-0.56887525320053,0.56198322772980,50.39482879638672,-0.09020373970270,-0.09800341725349,10.01844882965088,1.29538869857788,1.79394412040710,0.83579242229462
675,1957889687,-0.56827217340469,0.56200766563416,50.39443588256836,-0.13042198121548,-0.10140285640955,9.98965358734131,1.39126265048981,1.80024516582489,0.78666436672211
676,1957898020,-0.56877225637436,0.56211614608765,50.39433288574219,-0.12042696774006,-0.07424741983414,9.99332141876221,1.25586593151093,1.80498385429382,0.83876377344131
677,1957906353,-0.56901460886002,0.56234723329544,50.39427185058594,-0.10362236201763,-0.09831648319960,9.99427032470703,1.28995835781097,1.82573151588440,0.82631516456604
678,1957914686,-0.56913179159164,0.56294971704483,50.39358520507812,-0.12922348082066,-0.08889519423246,10.00800609588623,1.30330359935760,1.86720108985901,0.74834555387497
679,1957923019,-0.56916874647141,0.56310975551605,50.39389419555664,-0.11830292642117,-0.09185181558132,10.03361511230469,1.31424081325531,1.81528079509735,0.87137061357498
680,1957931352,-0.56912261247635,0.56212550401688,50.39374542236328,-0.10868646204472,-0.07764084637165,9.99274635314941,1.32202744483948,1.67537593841553,0.82659691572189
681,1957939685,-0.56882977485657,0.56224763393402,50.39350509643555,-0.09038974344730,-0.08460120856762,10.00899219512939,1.35414791107178,1.81254029273987,0.80533719062805
682,1957948018,-0.56857275962830,0.56256663799286,50.39329910278320,-0.09666694700718,-0.08803418278694,9.97090911865234,1.34705257415771,1.83308255672455,0.84655040502548
683,1957956351,-0.56908601522446,0.56180053949356,50.39222717285156,-0.11205678433180,-0.08636301755905,9.97329521179199,1.25835061073303,1.70529341697693,0.70482689142227
684,1957964684,-0.56955552101135,0.56298708915710,50.39231872558594,-0.09795763343573,-0.09101307392120,9.98599433898926,1.26065587997437,1.93692302703857,0.84222173690796
685,1957973017,-0.57030200958252,0.56240111589432,50.39171981811523,-0.09919081628323,-0.08849498629570,10.02573585510254,1.22897100448608,1.72668111324310,0.76197224855423
686,1957981350,-0.56981575489044,0.56277102231979,50.39107894897461,-0.11110982298851,-0.09340599924326,10.00123596191406,1.37576615810394,1.83958899974823,0.76204913854599
687,1957989683,-0.56991088390350,0.56326609849930,50.39146804809570,-0.10689955204725,-0.06877246499062,10.00905895233154,1.30709433555603,1.85598182678223,0.88194930553436
688,1957998016,-0.57013404369354,0.56358724832535,50.39157104492188,-0.11794270575047,-0.08549316972494,10.01134014129639,1.28995847702026,1.83236539363861,0.82703238725662
689,1958006349,-0.57024145126343,0.56350779533386,50.39110565185547,-0.11196761578321,-0.08494877070189,9.99916744232178,1.30640280246735,1.78741252422333,0.77921068668365
690,1958014682,-0.57021236419678,0.56317681074142,50.39032745361328,-0.10959552228451,-0.09547623246908,10.01077651977539,1.32005536556244,1.75485694408417,0.76386779546738
691,1958023015,-0.57051229476929,0.56271177530289,50.39055633544922,-0.10541623085737,-0.06954365968704,9.99815845489502,1.28253042697906,1.74166548252106,0.86202144622803
692,1958031348,-0.57035458087921,0.56273883581161,50.39035034179688,-0.09627821296453,-0.08278020471334,10.00381183624268,1.33591055870056,1.79694128036499,0.83333349227905
693,1958039681,-0.57083261013031,0.56315016746521,50.39085388183594,-0.10595688968897,-0.06424144655466,10.02002334594727,1.26016914844513,1.84448111057281,0.89795815944672
