sep=,
DeviceTag:,left leg
FirmwareVersion:,2.2.1
AppVersion:,2023.6.0
StartTime: ,2025-03-06_12:26:07_000 PST
© Movella Technologies B. V. 2005-2025

PacketCounter,SampleTimeFine,Euler_X,Euler_Y,Euler_Z,Acc_X,Acc_Y,Acc_Z,Gyr_X,Gyr_Y,Gyr_Z
0,991011697,1.54833090305328,-0.48580533266068,50.73851013183594,0.00000000000000,0.00000000000000,0.00000000000000,0.00000000000000,0.00000000000000,0.00000000000000
1,991020030,1.54834556579590,-0.48568695783615,50.73808670043945,0.04908800870180,0.28458994626999,9.97094154357910,1.30642843246460,1.81843137741089,0.70825922489166
2,991028363,1.54833102226257,-0.48512047529221,50.73772430419922,0.03932894393802,0.26227346062660,10.00090694427490,1.30215084552765,1.87393736839294,0.72029793262482
3,991036696,1.54874169826508,-0.48586988449097,50.73778152465820,0.06212376803160,0.27779328823090,9.99427700042725,1.35294389724731,1.71635878086090,0.76960539817810
4,991045029,1.54899501800537,-0.48527789115906,50.73794555664062,0.06279207766056,0.27514702081680,9.99403476715088,1.33742165565491,1.87721610069275,0.78169518709183
5,991053362,1.54936552047729,-0.48487731814384,50.73857879638672,0.05309650674462,0.27591830492020,10.01126575469971,1.34761619567871,1.85544419288635,0.82749348878860
6,991061695,1.55047762393951,-0.48461991548538,50.73867797851562,0.06348806619644,0.28510367870331,10.00303077697754,1.43821370601654,1.83846175670624,0.77536845207214
7,991070028,1.55063748359680,-0.48542603850365,50.73916244506836,0.07094676792622,0.28979012370110,10.00381183624268,1.32476830482483,1.71021139621735,0.82534193992615
8,991078361,1.55061328411102,-0.48649144172668,50.73961639404297,0.09912874549627,0.27612826228142,10.03233337402344,1.30179226398468,1.68149757385254,0.82365131378174
9,991086694,1.55148422718048,-0.48806521296501,50.73966979980469,0.10962267965078,0.28024062514305,9.98096656799316,1.40906476974487,1.61648869514465,0.77785313129425
10,991095027,1.55116558074951,-0.48862874507904,50.73918914794922,0.11774463951588,0.29575896263123,9.99158382415771,1.26554799079895,1.73810505867004,0.70918124914169
11,991103360,1.55099856853485,-0.48828852176666,50.73883819580078,0.09949346631765,0.27271470427513,10.00290203094482,1.28396475315094,1.84481406211853,0.70887392759323
12,991111693,1.55130195617676,-0.48803931474686,50.73913574218750,0.11574687063694,0.26734724640846,10.00856208801270,1.34131515026093,1.83715546131134,0.80049616098404
13,991120026,1.55151534080505,-0.48735454678535,50.73962402343750,0.12193965166807,0.28579321503639,10.02685260772705,1.33040332794189,1.88889610767365,0.82068008184433
14,991128359,1.55140221118927,-0.48770663142204,50.73915863037109,0.11858431994915,0.27256780862808,10.00811100006104,1.29100859165192,1.76400101184845,0.71023148298264
15,991136692,1.55146610736847,-0.48796087503433,50.73943328857422,0.12254291772842,0.28322944045067,10.01092243194580,1.31116712093353,1.77545058727264,0.79106998443604
16,991145025,1.55082631111145,-0.48849001526833,50.73906326293945,0.11625568568707,0.27583736181259,9.95590972900391,1.22845876216888,1.74297201633453,0.72183477878571
17,991153358,1.55108225345612,-0.48752048611641,50.73984527587891,0.11575204133987,0.30310907959938,10.01859664916992,1.33468103408813,1.92449998855591,0.83510100841522
18,991161691,1.55096650123596,-0.48686495423317,50.74066162109375,0.10063575208187,0.27941945195198,9.99861907958984,1.29262232780457,1.88741052150726,0.86112499237061
19,991170024,1.55096626281738,-0.48675307631493,50.74055480957031,0.09818569570780,0.29466077685356,10.00618267059326,1.30358529090881,1.81853401660919,0.76409828662872
20,991178357,1.55016899108887,-0.48749232292175,50.74095916748047,0.08879476785660,0.30280587077141,10.01272583007812,1.21065664291382,1.72002124786377,0.81586450338364
21,991186690,1.55014741420746,-0.48803254961967,50.74043655395508,0.09221775084734,0.27717733383179,10.02076053619385,1.30015289783478,1.73831021785736,0.70329004526138
22,991195023,1.55070531368256,-0.48755380511284,50.74044418334961,0.07849311828613,0.30089682340622,9.99957084655762,1.37356328964233,1.86353778839111,0.76665967702866
23,991203356,1.55048263072968,-0.48726907372475,50.74023056030273,0.06855490058661,0.26464062929153,9.99528884887695,1.27581930160522,1.84086942672729,0.73507732152939
24,991211689,1.55120575428009,-0.48749104142189,50.74041366577148,0.04143283143640,0.28559687733650,9.98359298706055,1.39285099506378,1.78024065494537,0.78720235824585
25,991220022,1.55099308490753,-0.48786365985870,50.73975372314453,0.06158109009266,0.29848331212997,9.99717044830322,1.27658784389496,1.75910878181458,0.68607723712921
26,991228355,1.55029559135437,-0.48800122737885,50.73990249633789,0.05735104903579,0.28258433938026,10.02294635772705,1.22251641750336,1.79076802730560,0.78400057554245
27,991236688,1.55009496212006,-0.48783016204834,50.73941421508789,0.04797258228064,0.25201264023781,9.98535919189453,1.27848327159882,1.82483494281769,0.70654302835464
28,991245021,1.55015289783478,-0.48886075615883,50.73981094360352,0.03522824868560,0.27349987626076,9.98894405364990,1.31365156173706,1.68387973308563,0.81596702337265
29,991253354,1.55021595954895,-0.48892992734909,50.74001312255859,0.02924694865942,0.29547303915024,9.97932815551758,1.31219160556793,1.79750454425812,0.78533244132996
30,991261687,1.55021142959595,-0.48847556114197,50.74065780639648,0.04702378809452,0.28028717637062,9.97654533386230,1.30540394783020,1.86399900913239,0.83909672498703
31,991270020,1.55020475387573,-0.48884239792824,50.74060058593750,0.01360195875168,0.27410075068474,9.98544311523438,1.30204820632935,1.76243853569031,0.75682371854782
32,991278353,1.55030751228333,-0.48920616507530,50.74085998535156,0.04361751303077,0.28433677554131,10.00838470458984,1.31792914867401,1.76295089721680,0.79708939790726
33,991286686,1.55063509941101,-0.48954406380653,50.74162292480469,0.04275029897690,0.25458517670631,9.98955440521240,1.34367144107819,1.76720309257507,0.84022372961044
34,991295019,1.55094790458679,-0.49027952551842,50.74132537841797,0.06350651383400,0.28609859943390,9.98895263671875,1.34369719028473,1.71692204475403,0.73225980997086
35,991303352,1.55120670795441,-0.49045214056969,50.74135971069336,0.06715370714664,0.28095382452011,9.99219036102295,1.33316969871521,1.78620862960815,0.77167993783951
36,991311685,1.55176079273224,-0.49079841375351,50.74103927612305,0.05926890298724,0.27913284301758,9.99594211578369,1.37256431579590,1.76323270797729,0.72406315803528
37,991320018,1.55187046527863,-0.49079558253288,50.74087524414062,0.07489626109600,0.27480411529541,10.02843379974365,1.31577754020691,1.80593144893646,0.74058437347412
38,991328351,1.55182576179504,-0.49077150225639,50.74037933349609,0.09185703843832,0.28633564710617,10.01066112518311,1.30022966861725,1.80731499195099,0.70498061180115
39,991336684,1.55200397968292,-0.48940563201904,50.74016952514648,0.09064466506243,0.25341454148293,10.01144504547119,1.32410228252411,1.97001659870148,0.73113274574280
40,991345017,1.55183792114258,-0.48965695500374,50.73976135253906,0.10334493219852,0.29748475551605,10.00720500946045,1.28598845005035,1.77509224414825,0.71976006031036
41,991353350,1.55214416980743,-0.49053052067757,50.73976898193359,0.10592839121819,0.29865401983261,10.00028705596924,1.33954763412476,1.70114374160767,0.77600878477097
42,991361683,1.55147886276245,-0.49111738801003,50.74002075195312,0.10643551498652,0.27537432312965,10.01836776733398,1.22648656368256,1.73626089096069,0.79854935407639
43,991370016,1.55230021476746,-0.49110886454582,50.74007797241211,0.09205067157745,0.25374150276184,10.00373840332031,1.40125238895416,1.80675113201141,0.77185928821564
44,991378349,1.55201160907745,-0.49105414748192,50.74018478393555,0.12327666580677,0.28547233343124,10.01382637023926,1.27177238464355,1.81330871582031,0.78015840053558
45,991386682,1.55114769935608,-0.49086645245552,50.74047470092773,0.10797323286533,0.29454046487808,9.99876880645752,1.19941234588623,1.83090567588806,0.81348258256912
46,991395015,1.55089950561523,-0.49106755852699,50.74084091186523,0.11774592101574,0.26060435175896,9.98937320709229,1.27589619159698,1.78293001651764,0.81002455949783
47,991403348,1.55067026615143,-0.49103409051895,50.74113464355469,0.11992192268372,0.29819720983505,10.02112865447998,1.27592194080353,1.81115698814392,0.79281181097031
48,991411681,1.54942667484283,-0.49054098129272,50.74139785766602,0.09884335845709,0.28057807683945,10.02277374267578,1.15707182884216,1.86658632755280,0.79311919212341
49,991420014,1.54958772659302,-0.49011591076851,50.74102020263672,0.10522776842117,0.28029587864876,9.99793815612793,1.32297515869141,1.85567474365234,0.72790533304214
50,991428347,1.54995930194855,-0.48995801806450,50.74140548706055,0.09662237763405,0.27139535546303,9.99906826019287,1.35156059265137,1.82649970054626,0.80884635448456
51,991436680,1.55008506774902,-0.48966631293297,50.74155044555664,0.11209110915661,0.25496971607208,9.98766326904297,1.31785249710083,1.84112572669983,0.77180820703506
52,991445013,1.55056941509247,-0.48850998282433,50.74173736572266,0.09158302843571,0.28378483653069,10.01675605773926,1.36429107189178,1.94509387016296,0.78469216823578
53,991453346,1.54966032505035,-0.48870074748993,50.74212646484375,0.05905333533883,0.28980153799057,10.01967811584473,1.19416117668152,1.78577315807343,0.80820602178574
54,991461679,1.54918491840363,-0.48855960369110,50.74229049682617,0.06013512611389,0.26762843132019,10.00888538360596,1.24920618534088,1.82368230819702,0.78566533327103
55,991470012,1.54884982109070,-0.48785629868507,50.74289703369141,0.05822129547596,0.24752022325993,10.01377296447754,1.26411378383636,1.89117586612701,0.82352328300476
56,991478345,1.54845881462097,-0.48715758323669,50.74296569824219,0.06070025265217,0.31548196077347,10.00090599060059,1.25840187072754,1.89097094535828,0.77226924896240
57,991486678,1.54798650741577,-0.48792007565498,50.74285507202148,0.05121546611190,0.26770579814911,10.02883052825928,1.24651682376862,1.71364367008209,0.74588662385941
58,991495011,1.54795515537262,-0.48802715539932,50.74275970458984,0.05619522929192,0.25959557294846,10.00364971160889,1.30125451087952,1.79404652118683,0.75321215391159
59,991503344,1.54840147495270,-0.48750621080399,50.74291610717773,0.03474486246705,0.25965401530266,9.99900436401367,1.35804116725922,1.86884033679962,0.77290952205658
60,991511677,1.54876124858856,-0.48819118738174,50.74315643310547,0.03967352211475,0.29816588759422,9.99366188049316,1.34797465801239,1.72460639476776,0.79662829637527
61,991520010,1.54840970039368,-0.48857629299164,50.74349594116211,0.01299408636987,0.27035656571388,9.98485851287842,1.26180839538574,1.76120913028717,0.80346727371216
62,991528343,1.54888045787811,-0.48832863569260,50.74330902099609,0.05058502033353,0.25735700130463,9.99048042297363,1.36306154727936,1.83492708206177,0.74217253923416
63,991536676,1.54897105693817,-0.48807412385941,50.74448394775391,0.05282552540302,0.26911705732346,9.99734687805176,1.31521415710449,1.84061348438263,0.89590907096863
64,991545009,1.54914796352386,-0.48869028687477,50.74477386474609,0.04335538297892,0.28809246420860,10.02502822875977,1.32661235332489,1.73334074020386,0.80059844255447
65,991553342,1.54880607128143,-0.48958203196526,50.74438858032227,0.05593945831060,0.27022823691368,9.98229598999023,1.26134753227234,1.69732725620270,0.71847927570343
66,991561675,1.54924881458282,-0.48943006992340,50.74475479125977,0.04565034061670,0.27958336472511,9.99451065063477,1.36011600494385,1.82616698741913,0.80887204408646
67,991570008,1.54933619499207,-0.48983812332153,50.74488449096680,0.07512249797583,0.27251285314560,9.99557971954346,1.31365168094635,1.75718784332275,0.79488658905029
68,991578341,1.54821443557739,-0.48971831798553,50.74477386474609,0.07254798710346,0.28090825676918,10.00218582153320,1.17141568660736,1.82053160667419,0.75036895275116
69,991586674,1.54784619808197,-0.48869055509567,50.74526596069336,0.08542683720589,0.28634276986122,10.00736427307129,1.25891411304474,1.93154406547546,0.81553161144257
70,991595007,1.54809737205505,-0.48913770914078,50.74536132812500,0.08022262901068,0.27588003873825,9.98880767822266,1.33521878719330,1.75265395641327,0.77759701013565
71,991603340,1.54847157001495,-0.48919630050659,50.74501037597656,0.09553726762533,0.25834232568741,10.02159118652344,1.34848690032959,1.79714596271515,0.71968305110931
72,991611673,1.54898428916931,-0.48953086137772,50.74542999267578,0.11529240012169,0.28028848767281,10.00556278228760,1.36844050884247,1.76702356338501,0.81663304567337
73,991620006,1.54929172992706,-0.48968231678009,50.74510192871094,0.11145900189877,0.27080583572388,9.97898483276367,1.33931708335876,1.78736126422882,0.70103597640991
74,991628339,1.54921698570251,-0.49082162976265,50.74516296386719,0.11834294348955,0.27892827987671,9.99860286712646,1.29672062397003,1.66927969455719,0.77680283784866
75,991636672,1.54856455326080,-0.49184575676918,50.74528884887695,0.11086675524712,0.27971655130386,9.98853397369385,1.22579467296600,1.68224036693573,0.76463603973389
76,991645005,1.54878270626068,-0.49244982004166,50.74554824829102,0.12336581945419,0.29359987378120,10.00214195251465,1.33117187023163,1.73636329174042,0.79918974637985
77,991653338,1.54908096790314,-0.49184039235115,50.74619674682617,0.11334083229303,0.26596668362617,9.99502277374268,1.33988070487976,1.87998247146606,0.83674025535583
78,991661671,1.54883384704590,-0.49213397502899,50.74618148803711,0.12094749510288,0.27447617053986,10.03149318695068,1.27602422237396,1.77240252494812,0.76466172933578
79,991670004,1.54875767230988,-0.49267810583115,50.74559402465820,0.11784701794386,0.30534434318542,10.00062561035156,1.29292976856232,1.73784911632538,0.68812644481659
80,991678337,1.54821729660034,-0.49286612868309,50.74556350708008,0.11527743190527,0.26040920615196,10.00761127471924,1.24200868606567,1.78344225883484,0.76110136508942
81,991686670,1.54830765724182,-0.49303919076920,50.74543380737305,0.11210824549198,0.27523964643478,9.99817562103271,1.31449675559998,1.78510725498199,0.74609142541885
82,991695003,1.54853522777557,-0.49215638637543,50.74470520019531,0.09483703970909,0.27587848901749,9.99998474121094,1.33150482177734,1.91061711311340,0.67639511823654
83,991703336,1.54814076423645,-0.49256315827370,50.74431228637695,0.09140408784151,0.25059223175049,10.01750850677490,1.25489258766174,1.75465202331543,0.70989859104156
84,991711669,1.54808235168457,-0.49327242374420,50.74399566650391,0.09661949425936,0.28226596117020,10.00543785095215,1.29892349243164,1.72014951705933,0.72905790805817
85,991720002,1.54857301712036,-0.49382033944130,50.74460220336914,0.09001803398132,0.28145158290863,9.98779201507568,1.36354827880859,1.74440622329712,0.86729794740677
86,991728335,1.54837524890900,-0.49471679329872,50.74478912353516,0.07478994876146,0.25004899501801,10.01865673065186,1.28127515316010,1.69965815544128,0.79094195365906
87,991736668,1.54813110828400,-0.49438905715942,50.74450683593750,0.05699999257922,0.28157913684845,9.99308300018311,1.27397513389587,1.84355878829956,0.72557443380356
88,991745001,1.54812753200531,-0.49421057105064,50.74467086791992,0.06788116693497,0.27920818328857,10.00376987457275,1.30530142784119,1.82901000976562,0.78359061479568
89,991753334,1.54747939109802,-0.49367636442184,50.74414825439453,0.04544819146395,0.26982352137566,10.00443458557129,1.22492408752441,1.86881470680237,0.70508313179016
90,991761667,1.54761803150177,-0.49357897043228,50.74435424804688,0.04345926269889,0.27210888266563,10.00037670135498,1.32287299633026,1.81827795505524,0.79091644287109
91,991770000,1.54740130901337,-0.49373409152031,50.74437332153320,0.05619413778186,0.27319678664207,10.02343368530273,1.27686965465546,1.78843724727631,0.75989753007889
92,991778333,1.54750287532806,-0.49394109845161,50.74418258666992,0.04273940250278,0.25904664397240,9.99987697601318,1.31798040866852,1.78093206882477,0.74342745542526
93,991786666,1.54766249656677,-0.49378970265388,50.74421310424805,0.03346550837159,0.28050386905670,10.01938724517822,1.32469141483307,1.82470703125000,0.76922106742859
94,991794999,1.54755866527557,-0.47357138991356,50.74076461791992,0.02477220818400,0.27621179819107,10.00269412994385,1.29208445549011,1.85352277755737,0.79988133907318
95,991803332,1.54716742038727,-0.47309771180153,50.74092864990234,0.01642450876534,0.25860613584518,10.01456737518311,1.25699305534363,1.86238551139832,0.78154158592224
96,991811665,1.54758775234222,-0.47356134653091,50.74051284790039,0.04728149250150,0.29687950015068,9.98964500427246,1.35601758956909,1.74881184101105,0.71537989377975
97,991819998,1.54704785346985,-0.47352597117424,50.74063491821289,0.06212590634823,0.29726442694664,9.99712371826172,1.23842263221741,1.80869793891907,0.76965653896332
98,991828331,1.54617869853973,-0.47351476550102,50.74096298217773,0.04327528551221,0.28128585219383,10.00172138214111,1.20130777359009,1.80869817733765,0.80408209562302
99,991836664,1.54530262947083,-0.47360381484032,50.74094009399414,0.07353466004133,0.26352652907372,9.97786426544189,1.19854128360748,1.79384183883667,0.76463621854782
100,991844997,1.54473733901978,-0.47393211722374,50.74119186401367,0.06482191383839,0.27660825848579,9.97567462921143,1.23734688758850,1.76748454570770,0.79693567752838
101,991853330,1.54532134532928,-0.47379869222641,50.74147033691406,0.07815706729889,0.28233045339584,9.99605178833008,1.37474167346954,1.82178676128387,0.79793459177017
102,991861663,1.54618132114410,-0.47292155027390,50.74174118041992,0.07447321712971,0.27255937457085,9.98285007476807,1.40975618362427,1.91087305545807,0.79516834020615
103,991869996,1.54625546932220,-0.47237119078636,50.74218750000000,0.09307871013880,0.28454822301865,10.00478935241699,1.31249904632568,1.87237489223480,0.80956351757050
104,991878329,1.54639112949371,-0.47289347648621,50.74279785156250,0.09912770986557,0.29685041308403,10.01061630249023,1.32159185409546,1.74504649639130,0.83955776691437
105,991886662,1.54662144184113,-0.47286111116409,50.74312210083008,0.10027067363262,0.28346639871597,10.01779270172119,1.33242678642273,1.80992734432220,0.79158228635788
106,991894995,1.54647386074066,-0.47294545173645,50.74335479736328,0.10945875942707,0.27588400244713,9.98602294921875,1.28793501853943,1.79542970657349,0.79217141866684
107,991903328,1.54675257205963,-0.47356182336807,50.74376678466797,0.11787935346365,0.28071054816246,10.00390529632568,1.33683264255524,1.73270046710968,0.81148457527161
108,991911661,1.54734623432159,-0.47366872429848,50.74441528320312,0.11655110865831,0.26777929067612,10.02490520477295,1.37758493423462,1.79484081268311,0.84288769960403
109,991919994,1.54744410514832,-0.47384095191956,50.74509811401367,0.12079596519470,0.26128298044205,9.99416446685791,1.31552171707153,1.78731024265289,0.84585893154144
110,991928327,1.54757523536682,-0.47277092933655,50.74478912353516,0.13065056502819,0.26489195227623,10.00047588348389,1.32141268253326,1.93272197246552,0.72629165649414
111,991936660,1.54833567142487,-0.47221317887306,50.74464797973633,0.11770214885473,0.29534417390823,10.00034141540527,1.39446461200714,1.87050521373749,0.74217253923416
112,991944993,1.54776561260223,-0.47156986594200,50.74463653564453,0.09136401116848,0.29688075184822,9.97734928131104,1.23716759681702,1.88336360454559,0.76325297355652
113,991953326,1.54763209819794,-0.47151592373848,50.74538803100586,0.10278477519751,0.26837846636772,9.99204349517822,1.28834486007690,1.81369292736053,0.84153008460999
114,991961659,1.54780781269073,-0.47277122735977,50.74502182006836,0.09141684323549,0.26667642593384,9.99272727966309,1.32584404945374,1.65337312221527,0.72431933879852
115,991969992,1.54745423793793,-0.47422909736633,50.74527359008789,0.09803996980190,0.28794458508492,9.99709510803223,1.26142406463623,1.63195967674255,0.79534751176834
116,991978325,1.54781424999237,-0.47375333309174,50.74595260620117,0.09155266731977,0.28230142593384,10.01060390472412,1.34992158412933,1.86394774913788,0.84642243385315
117,991986658,1.54738926887512,-0.47394996881485,50.74512481689453,0.05407549813390,0.24758172035217,10.01101016998291,1.25112724304199,1.77878057956696,0.67370557785034
118,991994991,1.54722642898560,-0.47442525625229,50.74475479125977,0.06116320192814,0.28027915954590,9.99253749847412,1.28565526008606,1.74717259407043,0.72301298379898
119,992003324,1.54690718650818,-0.47472792863846,50.74518203735352,0.05895933881402,0.29113239049911,9.99103546142578,1.26511275768280,1.77053284645081,0.81455826759338
120,992011657,1.54650890827179,-0.47497659921646,50.74528884887695,0.05220586061478,0.27242794632912,10.01226615905762,1.25870931148529,1.77629601955414,0.77787870168686
121,992019990,1.54609513282776,-0.47551649808884,50.74596786499023,0.04857645928860,0.27130234241486,9.98252391815186,1.25384247303009,1.74248528480530,0.84488558769226
122,992028323,1.54574167728424,-0.47571393847466,50.74572753906250,0.02386794239283,0.26919886469841,10.01102542877197,1.26362693309784,1.78057348728180,0.73799729347229
123,992036656,1.54573762416840,-0.47520235180855,50.74533843994141,0.04338837787509,0.28370368480682,10.01342105865479,1.30179226398468,1.86510038375854,0.71632772684097
124,992044989,1.54601776599884,-0.47507226467133,50.74569702148438,0.02525740675628,0.28175061941147,10.00043106079102,1.33931708335876,1.82122337818146,0.80602878332138
125,992053322,1.54589736461639,-0.47731485962868,50.74658584594727,0.01637895032763,0.26855868101120,9.98520565032959,1.28985619544983,1.53977417945862,0.85410672426224
126,992061655,1.54532504081726,-0.47821405529976,50.74660491943359,0.04367338493466,0.25931662321091,9.95540714263916,1.23632204532623,1.69673812389374,0.77004069089890
127,992069988,1.54567563533783,-0.47862517833710,50.74676132202148,0.03603910282254,0.26647600531578,10.00514698028564,1.34654033184052,1.75557398796082,0.76422631740570
128,992078321,1.54579854011536,-0.47786185145378,50.74628448486328,0.04661354050040,0.26835516095161,9.99640178680420,1.32013201713562,1.89545333385468,0.70626133680344
129,992086654,1.54606401920319,-0.47730582952499,50.74609375000000,0.04925240576267,0.27391141653061,10.00596427917480,1.33460414409637,1.87132501602173,0.73420637845993
130,992094987,1.54639637470245,-0.47657895088196,50.74567794799805,0.06517068296671,0.29504379630089,10.00435447692871,1.34597682952881,1.89061212539673,0.71228069067001
131,992103320,1.54644668102264,-0.47642895579338,50.74573898315430,0.07167061418295,0.29877939820290,9.99432659149170,1.30988633632660,1.82270872592926,0.76801717281342
132,992111653,1.54617643356323,-0.47649946808815,50.74617385864258,0.06790956854820,0.28221029043198,9.98796272277832,1.27282238006592,1.79863131046295,0.81791365146637
133,992119986,1.54621827602386,-0.47654861211777,50.74584579467773,0.07757650315762,0.29236546158791,9.99332618713379,1.30934846401215,1.79883646965027,0.73307937383652
134,992128319,1.54656088352203,-0.47605276107788,50.74510192871094,0.09300877153873,0.27984595298767,9.98388004302979,1.34538781642914,1.86148893833160,0.67385923862457
135,992136652,1.54712843894958,-0.47631973028183,50.74461746215820,0.10359597206116,0.26641824841499,9.97187805175781,1.37082266807556,1.77155733108521,0.70006263256073
136,992144985,1.54655444622040,-0.47571355104446,50.74470138549805,0.11506707966328,0.30224013328552,10.00697231292725,1.23678314685822,1.87862479686737,0.77183371782303
137,992153318,1.54626405239105,-0.47448918223381,50.74440765380859,0.11399825662374,0.29168602824211,9.98004436492920,1.26744377613068,1.95134389400482,0.73097914457321
138,992161651,1.54570257663727,-0.47458055615425,50.74404907226562,0.11439722031355,0.27821460366249,9.99313449859619,1.23814070224762,1.79289388656616,0.72068202495575
139,992169984,1.54561531543732,-0.47480750083923,50.74353027343750,0.13862162828445,0.29815346002579,10.00698089599609,1.29305779933929,1.77647519111633,0.70416098833084
140,992178317,1.54552412033081,-0.47400292754173,50.74332809448242,0.12318861484528,0.31080299615860,9.96255397796631,1.29469704627991,1.90183115005493,0.73871457576752
141,992186650,1.54538154602051,-0.47294339537621,50.74417877197266,0.10276532173157,0.26541304588318,9.97214698791504,1.28644943237305,1.93497622013092,0.86002361774445
142,992194983,1.54577422142029,-0.47294273972511,50.74454498291016,0.10676632821560,0.27867299318314,9.98778152465820,1.35268795490265,1.80705869197845,0.80946111679077
143,992203316,1.54576337337494,-0.47236597537994,50.74437713623047,0.10024709254503,0.31109005212784,9.98947334289551,1.30230474472046,1.87288737297058,0.74181389808655
144,992211649,1.54604160785675,-0.47214302420616,50.74486541748047,0.10119919478893,0.26249361038208,9.99479103088379,1.33970141410828,1.83308279514313,0.82196080684662
145,992219982,1.54580855369568,-0.47230842709541,50.74467849731445,0.10995236039162,0.26981073617935,9.97804164886475,1.27371883392334,1.78636229038239,0.74411910772324
146,992228315,1.54528474807739,-0.47251281142235,50.74509429931641,0.09002331644297,0.28235691785812,10.01629066467285,1.24403226375580,1.78100883960724,0.81612074375153
147,992236648,1.54538667201996,-0.47199195623398,50.74532699584961,0.08646363765001,0.28517866134644,9.96694374084473,1.31590580940247,1.86863541603088,0.77667498588562
148,992244981,1.54558312892914,-0.47231185436249,50.74516296386719,0.07281557470560,0.26479399204254,10.01283359527588,1.32855916023254,1.76663959026337,0.74762827157974
149,992253314,1.54475998878479,-0.47313639521599,50.74588775634766,0.05058120191097,0.30193749070168,10.00393676757812,1.20479106903076,1.70798277854919,0.84824097156525
150,992261647,1.54474425315857,-0.47167617082596,50.74633789062500,0.06459033489227,0.27017018198967,9.97901725769043,1.30501961708069,1.98215746879578,0.81532669067383
151,992269980,1.54475140571594,-0.47129154205322,50.74638366699219,0.04371060431004,0.27994886040688,9.98174381256104,1.30355978012085,1.85070550441742,0.76829904317856
152,992278313,1.54437005519867,-0.47189277410507,50.74679565429688,0.04914468154311,0.30531844496727,10.01219844818115,1.26063024997711,1.73464739322662,0.81599265336990
153,992286646,1.54431843757629,-0.47190293669701,50.74743270874023,0.04170281440020,0.27703252434731,9.99153709411621,1.29771959781647,1.80682814121246,0.85492628812790
154,992294979,1.54423093795776,-0.47080725431442,50.74779891967773,0.05106621980667,0.27604860067368,10.00826930999756,1.29523503780365,1.93702518939972,0.80405646562576
155,992303312,1.54459452629089,-0.47208490967751,50.74845123291016,0.02179742977023,0.28444451093674,9.99599933624268,1.34805154800415,1.65452587604523,0.83863562345505
156,992311645,1.54446399211884,-0.47216010093689,50.74838256835938,0.02137435972691,0.28532600402832,9.98616695404053,1.28983032703400,1.79599308967590,0.75871926546097
157,992319978,1.54460000991821,-0.47178885340691,50.74910354614258,0.05087772011757,0.27145045995712,10.01004981994629,1.31931233406067,1.85221648216248,0.84880447387695
158,992328311,1.54443728923798,-0.47103342413902,50.74921417236328,0.04434722661972,0.27697569131851,9.97798061370850,1.28714084625244,1.89535081386566,0.77598321437836
159,992336644,1.54519653320312,-0.47059944272041,50.74955368041992,0.04569095000625,0.29915645718575,9.97567653656006,1.39543771743774,1.85823559761047,0.80753988027573
160,992344977,1.54512202739716,-0.47027155756950,50.74972534179688,0.06460727006197,0.28105649352074,10.02158069610596,1.29574716091156,1.84530067443848,0.78594714403152
161,992353310,1.54586052894592,-0.46979615092278,50.74998474121094,0.05675275623798,0.26163402199745,10.01098060607910,1.39208257198334,1.86261606216431,0.79962521791458
162,992361643,1.54578840732574,-0.46950417757034,50.74981689453125,0.05391286686063,0.29466956853867,10.02489852905273,1.29792451858521,1.83976829051971,0.74378621578217
163,992369976,1.54543220996857,-0.47057905793190,50.74953460693359,0.08077108860016,0.29207301139832,10.01529884338379,1.25960552692413,1.67560636997223,0.72723937034607
164,992378309,1.54542183876038,-0.47026568651199,50.74929809570312,0.08397143334150,0.25545027852058,10.00320243835449,1.30530118942261,1.84202194213867,0.73430883884430
165,992386642,1.54576122760773,-0.46984907984734,50.74910354614258,0.09320645779371,0.29332029819489,9.96624851226807,1.34346675872803,1.85444509983063,0.74778199195862
166,992394975,1.54633367061615,-0.47015437483788,50.74940872192383,0.08057077229023,0.26059544086456,10.00443649291992,1.37448537349701,1.76925218105316,0.80415892601013
167,992403308,1.54711282253265,-0.46927738189697,50.74910354614258,0.10379735380411,0.28783118724823,9.96046447753906,1.39625751972198,1.90969502925873,0.73471873998642
168,992411641,1.54647147655487,-0.46945479512215,50.74887466430664,0.09881327301264,0.29334917664528,9.98880958557129,1.22886848449707,1.78213596343994,0.74081492424011
169,992419974,1.54732120037079,-0.46887642145157,50.74828720092773,0.11945722997189,0.27764144539833,9.99608612060547,1.40455663204193,1.87370705604553,0.71005219221115
170,992428307,1.54750537872314,-0.46789965033531,50.74791717529297,0.11504317820072,0.24626691639423,10.04174804687500,1.32817494869232,1.92060649394989,0.71822315454483
171,992436640,1.54865443706512,-0.46788406372070,50.74776840209961,0.11186703294516,0.32241714000702,10.01638603210449,1.44033980369568,1.80705869197845,0.74670624732971
172,992444973,1.54824686050415,-0.46799078583717,50.74826431274414,0.11342397332191,0.27471244335175,10.03308105468750,1.25765883922577,1.79332935810089,0.82447093725204
173,992453306,1.54883372783661,-0.46758243441582,50.74869155883789,0.08881866186857,0.24547772109509,9.98603725433350,1.37438321113586,1.85536730289459,0.80292946100235
174,992461639,1.54924631118774,-0.46811053156853,50.74926376342773,0.10996753722429,0.29712638258934,10.02012348175049,1.35535168647766,1.74402189254761,0.83474236726761
175,992469972,1.54845571517944,-0.46813824772835,50.74936294555664,0.10813760012388,0.27623400092125,9.95535182952881,1.20899188518524,1.80119287967682,0.78220748901367
176,992478305,1.54871690273285,-0.46760895848274,50.75010681152344,0.09047237038612,0.27060201764107,9.98450469970703,1.33860003948212,1.87158119678497,0.85372251272202
177,992486638,1.54923689365387,-0.46811842918396,50.75038528442383,0.10645431280136,0.28566655516624,10.01243972778320,1.36541795730591,1.74463677406311,0.79639774560928
178,992494971,1.54929029941559,-0.46770521998405,50.75059509277344,0.08509376645088,0.27701726555824,10.00302886962891,1.31311392784119,1.85608446598053,0.78904652595520
179,992503304,1.54957234859467,-0.46719208359718,50.75080108642578,0.07976537942886,0.25924259424210,9.98976707458496,1.33644843101501,1.86720085144043,0.78587037324905
180,992511637,1.54979228973389,-0.46724060177803,50.75070571899414,0.07627775520086,0.29007986187935,10.02497005462646,1.33109486103058,1.79911816120148,0.75439041852951
181,992519970,1.54922437667847,-0.46721374988556,50.75078964233398,0.06777820736170,0.28497081995010,9.98561668395996,1.23714196681976,1.80831372737885,0.80800104141235
182,992528303,1.54967319965363,-0.46746662259102,50.75090026855469,0.06886699795723,0.25388294458389,9.97887897491455,1.35893750190735,1.77644979953766,0.77841663360596
183,992536636,1.54919087886810,-0.46776518225670,50.75134277343750,0.04571996256709,0.28298616409302,10.03377246856689,1.24623489379883,1.77060949802399,0.80782163143158
184,992544969,1.54856896400452,-0.46830803155899,50.75126266479492,0.02632814086974,0.29919362068176,9.99701023101807,1.23176300525665,1.73951387405396,0.75748980045319
185,992553302,1.54804599285126,-0.46791967749596,50.75151443481445,0.05850459635258,0.23585446178913,9.99275875091553,1.24006199836731,1.85229349136353,0.78855991363525
186,992561635,1.54809308052063,-0.46757939457893,50.75086975097656,0.04796113073826,0.27214393019676,9.99628543853760,1.31149995326996,1.84376370906830,0.68917655944824
187,992569968,1.54789686203003,-0.46837073564529,50.75127410888672,0.04241232946515,0.28820306062698,10.02297115325928,1.27912366390228,1.71241402626038,0.81207376718521
188,992578301,1.54709863662720,-0.46804443001747,50.75115585327148,0.03475309908390,0.27261212468147,9.99277496337891,1.21024692058563,1.84294402599335,0.75095820426941
189,992586634,1.54744362831116,-0.46860328316689,50.75070571899414,0.03807166218758,0.24507580697536,9.97930622100830,1.34387648105621,1.73787450790405,0.71315145492554
190,992594967,1.54797506332397,-0.46872279047966,50.75060272216797,0.03709389269352,0.27811145782471,10.04014396667480,1.37041294574738,1.78979480266571,0.75400626659393
191,992603300,1.54772150516510,-0.46894308924675,50.75102233886719,0.06637674570084,0.27887892723083,10.02402591705322,1.27202856540680,1.78018951416016,0.81345689296722
192,992611633,1.54802799224854,-0.46855023503304,50.75089645385742,0.08262439072132,0.28544804453850,9.97936534881592,1.34259581565857,1.85208868980408,0.74757713079453
193,992619966,1.54858696460724,-0.46846503019333,50.75057601928711,0.06292065232992,0.29026362299919,10.01662826538086,1.37013101577759,1.81356489658356,0.71135854721069
194,992628299,1.54857337474823,-0.46754565834999,50.75077056884766,0.05238895863295,0.27700120210648,9.97527313232422,1.30399513244629,1.91650843620300,0.78523004055023
195,992636632,1.54839217662811,-0.46674999594688,50.75077056884766,0.06641717255116,0.28422147035599,10.00302696228027,1.28178751468658,1.90006411075592,0.76125508546829
196,992644965,1.54853689670563,-0.46707800030708,50.75139999389648,0.08746427297592,0.27793970704079,10.01072311401367,1.32451200485229,1.76848363876343,0.84040302038193
197,992653298,1.54858410358429,-0.46787846088409,50.75134658813477,0.09696901589632,0.26835778355598,10.01766967773438,1.30858004093170,1.70849502086639,0.75474911928177
198,992661631,1.54813790321350,-0.46838599443436,50.75158309936523,0.11654829978943,0.28186255693436,9.99017143249512,1.25227975845337,1.74507212638855,0.79429739713669
199,992669964,1.54805314540863,-0.46872487664223,50.75201797485352,0.11546067148447,0.31574919819832,10.00340557098389,1.29333961009979,1.76525616645813,0.81045997142792
200,992678297,1.54751145839691,-0.46818098425865,50.75212478637695,0.10643009096384,0.28438404202461,9.99326229095459,1.24180376529694,1.87053072452545,0.77526605129242
201,992686630,1.54745280742645,-0.46787831187248,50.75224685668945,0.14535309374332,0.25092196464539,10.02269554138184,1.29495310783386,1.84133040904999,0.74857592582703
202,992694963,1.54723501205444,-0.46661686897278,50.75247955322266,0.12430341541767,0.30796173214912,10.00015258789062,1.27994346618652,1.95669722557068,0.78961008787155
203,992703296,1.54660725593567,-0.46582850813866,50.75316238403320,0.11609795689583,0.30213978886604,10.01013565063477,1.22879159450531,1.90203630924225,0.84962415695190
204,992711629,1.54690992832184,-0.46558076143265,50.75275421142578,0.10279802978039,0.25955313444138,10.00657939910889,1.34121251106262,1.83420991897583,0.71673756837845
205,992719962,1.54678618907928,-0.46671819686890,50.75265121459961,0.10982969403267,0.29432138800621,10.00466537475586,1.28821682929993,1.66774296760559,0.75387817621231
206,992728295,1.54646313190460,-0.46547412872314,50.75254440307617,0.08528685569763,0.29961162805557,10.02762031555176,1.26698267459869,1.95395636558533,0.74778199195862
207,992736628,1.54627311229706,-0.46454218029976,50.75258255004883,0.08976023644209,0.26208040118217,10.01949787139893,1.28186428546906,1.91794252395630,0.79145419597626
208,992744961,1.54673063755035,-0.46489506959915,50.75238037109375,0.07857811450958,0.28467667102814,10.01392650604248,1.35996222496033,1.76228511333466,0.74255669116974
209,992753294,1.54665577411652,-0.46630561351776,50.75299835205078,0.06265068799257,0.28378584980965,9.99441051483154,1.29485070705414,1.63779973983765,0.84521847963333
210,992761627,1.54677057266235,-0.46673527359962,50.75302124023438,0.06990592926741,0.26857092976570,10.01803302764893,1.31985032558441,1.75362730026245,0.77052736282349
211,992769960,1.54752051830292,-0.46622678637505,50.75293731689453,0.05462215095758,0.27247270941734,10.00325202941895,1.39274847507477,1.86592042446136,0.75344276428223
212,992778293,1.54781568050385,-0.46566438674927,50.75353240966797,0.08033525198698,0.32107046246529,9.98177909851074,1.34231388568878,1.87452626228333,0.83394825458527
213,992786626,1.54784917831421,-0.46602377295494,50.75447463989258,0.05042797699571,0.27400135993958,10.03746414184570,1.30747854709625,1.76515364646912,0.86094564199448
214,992794959,1.54755067825317,-0.46687594056129,50.75546264648438,0.06307653337717,0.29692959785461,9.97190189361572,1.27138805389404,1.70531880855560,0.88727706670761
215,992803292,1.54732275009155,-0.46800199151039,50.75568771362305,0.05404562875628,0.30021521449089,10.01090812683105,1.27584493160248,1.67202043533325,0.79176157712936
216,992811625,1.54700911045074,-0.46862778067589,50.75603103637695,0.03438172861934,0.25283694267273,9.99820995330811,1.26787900924683,1.73116362094879,0.81015259027481
217,992819958,1.54695928096771,-0.46827071905136,50.75644302368164,0.03742885217071,0.25548839569092,9.98172378540039,1.29853928089142,1.84927093982697,0.81396919488907
218,992828291,1.54722142219543,-0.46832761168480,50.75621032714844,0.04449483007193,0.29384422302246,10.02271270751953,1.33670437335968,1.79699230194092,0.73656290769577
219,992836624,1.54769778251648,-0.46874317526817,50.75634384155273,0.04018540307879,0.27232226729393,10.01189136505127,1.36101257801056,1.75480568408966,0.77255100011826
220,992844957,1.54831027984619,-0.46955615282059,50.75703811645508,0.05521273612976,0.26986074447632,9.99384021759033,1.37988984584808,1.71031367778778,0.85095608234406
221,992853290,1.54891180992126,-0.47006967663765,50.75786972045898,0.01529824174941,0.28386282920837,9.97857666015625,1.37599682807922,1.74625062942505,0.86002361774445
222,992861623,1.54913651943207,-0.46963158249855,50.75797653198242,0.03600940108299,0.26534989476204,9.96022224426270,1.33345150947571,1.85780060291290,0.77762252092361
223,992869956,1.55028116703033,-0.47031313180923,50.75826263427734,0.06324787437916,0.28247892856598,10.01400756835938,1.44092893600464,1.72499072551727,0.79847252368927
224,992878289,1.55015432834625,-0.47134539484978,50.75775909423828,0.05114804953337,0.30158334970474,9.99022769927979,1.29039394855499,1.67932033538818,0.70838731527328
225,992886622,1.54942822456360,-0.47183215618134,50.75741958618164,0.06650484353304,0.26306796073914,10.00677394866943,1.21611261367798,1.74555885791779,0.73533344268799
226,992894955,1.54957497119904,-0.47224894165993,50.75699996948242,0.07594200968742,0.24486909806728,10.02484416961670,1.32187378406525,1.75360167026520,0.71458590030670
227,992903288,1.54968035221100,-0.47305053472519,50.75671386718750,0.07303392142057,0.28638330101967,10.03319454193115,1.31603395938873,1.70780360698700,0.72347408533096
228,992911621,1.54948472976685,-0.47342929244041,50.75678253173828,0.08541205525398,0.29840019345284,9.98668193817139,1.28327310085297,1.76015877723694,0.77367788553238
229,992919954,1.54949474334717,-0.47355541586876,50.75614166259766,0.10162433236837,0.26196864247322,9.98188114166260,1.30448174476624,1.78838598728180,0.70687615871429
230,992928287,1.54991257190704,-0.47298339009285,50.75591659545898,0.11443494260311,0.29705917835236,10.01278781890869,1.35486507415771,1.87362992763519,0.73510295152664
231,992936620,1.54980468750000,-0.47306659817696,50.75618743896484,0.08996666967869,0.29580077528954,10.01583099365234,1.28965115547180,1.79624950885773,0.79483538866043
232,992944953,1.54954230785370,-0.47354838252068,50.75627136230469,0.12739713490009,0.27531465888023,10.00398349761963,1.27430820465088,1.74768483638763,0.77713584899902
233,992953286,1.54972302913666,-0.47373348474503,50.75586700439453,0.09858766943216,0.28408345580101,10.00619697570801,1.32492196559906,1.78159809112549,0.70726025104523
234,992961619,1.54990255832672,-0.47288832068443,50.75600433349609,0.09800327569246,0.30209246277809,9.99537658691406,1.32727849483490,1.90626275539398,0.77823734283447
235,992969952,1.54972469806671,-0.47309219837189,50.75590133666992,0.12742377817631,0.26683971285820,10.01427364349365,1.28291451931000,1.77957451343536,0.73676782846451
236,992978285,1.55005550384521,-0.47382459044456,50.75579833984375,0.11361319571733,0.28470221161842,9.99670028686523,1.34449112415314,1.71664035320282,0.75526130199432
237,992986618,1.55028259754181,-0.47461161017418,50.75568389892578,0.10318302363157,0.28860861063004,10.01119613647461,1.33068525791168,1.71044194698334,0.76184421777725
238,992994951,1.55004811286926,-0.47467890381813,50.75550079345703,0.12249411642551,0.26622840762138,9.98069667816162,1.27702331542969,1.79719722270966,0.74322259426117
239,993003284,1.55061340332031,-0.47468397021294,50.75506210327148,0.08263390511274,0.25818985700607,9.96338844299316,1.37189853191376,1.80278122425079,0.71673756837845
240,993011617,1.55067121982574,-0.47567299008369,50.75548553466797,0.09426768124104,0.27983772754669,9.99874877929688,1.31267821788788,1.68877208232880,0.81814432144165
241,993019950,1.55044639110565,-0.47638162970543,50.75514984130859,0.09175048023462,0.23185326159000,10.01125717163086,1.27520465850830,1.71758806705475,0.71322834491730
242,993028283,1.55059564113617,-0.47666731476784,50.75534439086914,0.07872654497623,0.25152713060379,9.97801685333252,1.32435846328735,1.77181363105774,0.78786832094193
243,993036616,1.55130934715271,-0.47603991627693,50.75527572631836,0.06307805329561,0.28904226422310,9.98762416839600,1.38923931121826,1.88003349304199,0.75090688467026
244,993044949,1.55173444747925,-0.47497510910034,50.75540924072266,0.05678063631058,0.25723722577095,9.97151184082031,1.35604333877563,1.93369555473328,0.77757143974304
245,993053282,1.55270183086395,-0.47509056329727,50.75553894042969,0.04983846843243,0.26875659823418,9.99906063079834,1.41959226131439,1.79153668880463,0.77057862281799
246,993061615,1.55341541767120,-0.47461923956871,50.75572204589844,0.04463725909591,0.30109792947769,9.98093128204346,1.39223623275757,1.86235976219177,0.78589594364166
247,993069948,1.55309331417084,-0.47590357065201,50.75621414184570,0.03573491051793,0.27926251292229,9.97685432434082,1.26549673080444,1.65270721912384,0.82044953107834
248,993078281,1.55287837982178,-0.47504612803459,50.75598907470703,0.03977524861693,0.25810867547989,10.00800514221191,1.27886760234833,1.90764582157135,0.73566645383835
249,993086614,1.55273997783661,-0.47559344768524,50.75687789916992,0.04128036275506,0.29697653651237,9.98923015594482,1.28913879394531,1.74251067638397,0.87477731704712
250,993094947,1.55233597755432,-0.47563585639000,50.75690460205078,0.03190562129021,0.27299347519875,10.00079059600830,1.25566101074219,1.80027079582214,0.76968216896057
251,993103280,1.55292308330536,-0.47478333115578,50.75664138793945,0.03832391649485,0.25980848073959,9.97700214385986,1.37384521961212,1.90639078617096,0.73113280534744
252,993111613,1.55267357826233,-0.47462072968483,50.75651550292969,0.03666710108519,0.29341036081314,9.98060226440430,1.27671587467194,1.82386159896851,0.74808931350708
253,993119946,1.55185246467590,-0.47379779815674,50.75699615478516,0.05356149002910,0.27507492899895,9.98027420043945,1.20404839515686,1.90467464923859,0.80769366025925
254,993128279,1.55168282985687,-0.47353696823120,50.75694656372070,0.06076120957732,0.25691094994545,10.02159690856934,1.28565526008606,1.83695042133331,0.75782275199890
255,993136612,1.55137383937836,-0.47400292754173,50.75744247436523,0.05887325853109,0.30308359861374,10.02113246917725,1.26595783233643,1.75022065639496,0.82500886917114
256,993144945,1.55193030834198,-0.47409412264824,50.75772857666016,0.06451201438904,0.28340646624565,10.01006984710693,1.37312793731689,1.79553234577179,0.79862624406815
257,993153278,1.55226135253906,-0.47378695011139,50.75759887695312,0.08549124002457,0.25884217023849,10.00252342224121,1.34210908412933,1.84140729904175,0.74081492424011
258,993161611,1.55165767669678,-0.47318980097771,50.75829696655273,0.09537041932344,0.30795651674271,9.99540328979492,1.23468291759491,1.87893211841583,0.84739571809769
259,993169944,1.55132532119751,-0.47324621677399,50.75865936279297,0.07852973788977,0.29936262965202,10.01517200469971,1.26421642303467,1.79899036884308,0.81507068872452
260,993178277,1.55151891708374,-0.47283947467804,50.75835418701172,0.09312023967505,0.24111638963223,9.99029254913330,1.32925069332123,1.85301053524017,0.72688072919846
261,993186610,1.55288922786713,-0.47237685322762,50.75911712646484,0.10016915202141,0.28959658741951,9.96491813659668,1.46774697303772,1.86279535293579,0.85966503620148
262,993194943,1.55326044559479,-0.47142484784126,50.75901412963867,0.09666827321053,0.32484024763107,10.02349758148193,1.35048496723175,1.91894161701202,0.74919068813324
263,993203276,1.55385208129883,-0.47133651375771,50.75924301147461,0.12753519415855,0.25648921728134,10.01624774932861,1.37443423271179,1.81692016124725,0.79714059829712
264,993211609,1.55489623546600,-0.47273206710815,50.75905227661133,0.10088866204023,0.29290539026260,10.00907611846924,1.43119549751282,1.63718521595001,0.74542552232742
265,993219942,1.55562615394592,-0.47335222363472,50.75898361206055,0.12068098783493,0.30082061886787,10.01313495635986,1.38929045200348,1.73008775711060,0.75628596544266
266,993228275,1.55515515804291,-0.47287204861641,50.75909042358398,0.09832341969013,0.28626486659050,9.98772430419922,1.24966716766357,1.86302566528320,0.77616250514984
267,993236608,1.55476665496826,-0.47272476553917,50.75915145874023,0.11330373585224,0.26397779583931,10.01701068878174,1.25673675537109,1.82245290279388,0.74557918310165
268,993244941,1.55563127994537,-0.47346791625023,50.75953674316406,0.12146864086390,0.30438411235809,9.99282741546631,1.41001236438751,1.71653783321381,0.81245791912079
269,993253274,1.55542695522308,-0.47336786985397,50.75956344604492,0.10834126919508,0.27401703596115,10.00825500488281,1.27889311313629,1.81684315204620,0.76737678050995
270,993261607,1.55527675151825,-0.47250044345856,50.76029205322266,0.10229507833719,0.27411872148514,9.97889900207520,1.28819108009338,1.91210246086121,0.85310763120651
271,993269940,1.55455791950226,-0.47246399521828,50.76067733764648,0.09521403163671,0.28660261631012,10.02324390411377,1.21772634983063,1.81102895736694,0.80725824832916
272,993278273,1.55468297004700,-0.47281157970428,50.76068115234375,0.08341091126204,0.25761434435844,10.00973892211914,1.32131028175354,1.76254105567932,0.76584005355835
273,993286606,1.55492627620697,-0.47299051284790,50.76089859008789,0.07828391343355,0.27611243724823,9.98447990417480,1.33194017410278,1.78485107421875,0.79127490520477
274,993294939,1.55529844760895,-0.47296199202538,50.76048278808594,0.06512971222401,0.30671811103821,9.99455356597900,1.35017752647400,1.80734038352966,0.71458590030670
275,993303272,1.55538380146027,-0.47165733575821,50.76093673706055,0.06544331461191,0.27198588848114,9.97217750549316,1.31447136402130,1.96322882175446,0.81130528450012
276,993311605,1.55441462993622,-0.47107040882111,50.76055908203125,0.05068410933018,0.25549679994583,9.97586059570312,1.18837237358093,1.87411665916443,0.71476525068283
277,993319938,1.55424404144287,-0.47211852669716,50.76013183593750,0.08056706190109,0.28824278712273,9.99238109588623,1.28291451931000,1.67855203151703,0.72270560264587
278,993328271,1.55426359176636,-0.47311681509018,50.76008987426758,0.03790543600917,0.27714106440544,9.99483585357666,1.30712008476257,1.68495547771454,0.76409822702408
279,993336604,1.55455541610718,-0.47356382012367,50.76029968261719,0.03967089578509,0.24502983689308,10.00397014617920,1.33880484104156,1.75278210639954,0.79401564598083
280,993344937,1.55508708953857,-0.47323420643806,50.75986099243164,0.04589389264584,0.29879322648048,10.00797748565674,1.36972129344940,1.84268820285797,0.71025711297989
281,993353270,1.55486094951630,-0.47271719574928,50.76038360595703,0.04355265572667,0.28803542256355,10.01207733154297,1.27658772468567,1.86981344223022,0.82892775535583
282,993361603,1.55545222759247,-0.47221788764000,50.76094818115234,0.03395059704781,0.25683167576790,9.97204399108887,1.37661135196686,1.86720085144043,0.83302617073059
283,993369936,1.55579245090485,-0.47187498211861,50.76064300537109,0.04534895345569,0.29885736107826,10.01314163208008,1.34423518180847,1.84430181980133,0.71176844835281
284,993378269,1.55537056922913,-0.47239333391190,50.76133728027344,0.04994363710284,0.27890458703041,10.00624942779541,1.25512301921844,1.74573814868927,0.85069984197617
285,993386602,1.55585813522339,-0.47226312756538,50.76171875000000,0.04541116580367,0.25029775500298,9.99511432647705,1.36242127418518,1.82124900817871,0.80259650945663
286,993394935,1.55615496635437,-0.47173368930817,50.76177978515625,0.03507954254746,0.30016463994980,10.00292778015137,1.34177613258362,1.86896812915802,0.77006638050079
287,993403268,1.55550622940063,-0.47214964032173,50.76152801513672,0.05439597368240,0.29551604390144,9.98096466064453,1.22815132141113,1.75398612022400,0.73692160844803
288,993411601,1.55492305755615,-0.47318863868713,50.76131057739258,0.06742203980684,0.25447449088097,9.97259902954102,1.23276185989380,1.68054997920990,0.75626027584076
289,993419934,1.55539488792419,-0.47342929244041,50.76085281372070,0.06385213136673,0.29050955176353,10.01005935668945,1.35919380187988,1.77409327030182,0.70367425680161
290,993428267,1.55533289909363,-0.47365483641624,50.76045608520508,0.07360445708036,0.29782536625862,10.00292396545410,1.29843664169312,1.77650082111359,0.71794134378433
291,993436600,1.55500233173370,-0.47385093569756,50.76029205322266,0.08785999566317,0.24364975094795,10.01569271087646,1.26355016231537,1.78070175647736,0.74972867965698
292,993444933,1.55586791038513,-0.47352805733681,50.76050567626953,0.10263153910637,0.26595309376717,9.98974132537842,1.40965378284454,1.84466040134430,0.78825241327286
293,993453266,1.55542385578156,-0.47345191240311,50.76063537597656,0.09712901711464,0.30424222350121,10.00436401367188,1.24987220764160,1.81405150890350,0.77933877706528
294,993461599,1.55523550510406,-0.47350633144379,50.76027297973633,0.14015200734138,0.25784146785736,10.01792240142822,1.28345239162445,1.79694104194641,0.72206526994705
295,993469932,1.55581521987915,-0.47290053963661,50.75999450683594,0.11817968636751,0.25827759504318,9.98772811889648,1.37299978733063,1.87716507911682,0.73064607381821
296,993478265,1.55559766292572,-0.47261461615562,50.76025390625000,0.12547731399536,0.32566425204277,9.98700141906738,1.27886748313904,1.84130477905273,0.79352897405624
297,993486598,1.55530166625977,-0.47321248054504,50.76031875610352,0.10767186433077,0.27562281489372,9.97668743133545,1.26798141002655,1.73318707942963,0.77060419321060
298,993494931,1.55514764785767,-0.47324368357658,50.76075744628906,0.10185459256172,0.28885093331337,10.01872444152832,1.28683364391327,1.80232000350952,0.81729894876480
299,993503264,1.55602872371674,-0.47308766841888,50.76028442382812,0.11007761955261,0.27569055557251,10.01569080352783,1.40860366821289,1.82245290279388,0.69778299331665
300,993511597,1.55583477020264,-0.47225630283356,50.76038360595703,0.09374038130045,0.26088774204254,9.99479961395264,1.28258156776428,1.90472567081451,0.77626496553421
301,993519930,1.55608963966370,-0.47202265262604,50.76010131835938,0.11004063487053,0.27257984876633,9.98942756652832,1.33573126792908,1.83262169361115,0.72964715957642
302,993528263,1.55578792095184,-0.47203892469406,50.75994491577148,0.10967444628477,0.30352866649628,9.97601985931396,1.26708519458771,1.80226898193359,0.72767484188080
303,993536596,1.55503726005554,-0.47227513790131,50.76039505004883,0.08170125633478,0.27882686257362,10.02159786224365,1.21398663520813,1.77737188339233,0.80546528100967
304,993544929,1.55542063713074,-0.47322005033493,50.76025772094727,0.08291396498680,0.28214943408966,10.00734519958496,1.35138142108917,1.69153845310211,0.75326341390610
305,993553262,1.55555772781372,-0.47318819165230,50.76019668579102,0.08741481602192,0.29852828383446,9.99386978149414,1.32023465633392,1.80923581123352,0.75690054893494
306,993561595,1.55508708953857,-0.47365733981133,50.76088333129883,0.09188183397055,0.26512956619263,10.01802921295166,1.24946236610413,1.75086092948914,0.84893256425858
307,993569928,1.55545687675476,-0.47291952371597,50.76089477539062,0.07049380987883,0.25498235225677,9.98963928222656,1.34764182567596,1.89299464225769,0.75515884160995
308,993578261,1.55627429485321,-0.47276750206947,50.76185989379883,0.04390676692128,0.28192961215973,10.00639057159424,1.40553009510040,1.82637190818787,0.88120657205582
309,993586594,1.55659317970276,-0.47293239831924,50.76300811767578,0.03572687879205,0.28773930668831,10.01801967620850,1.34192979335785,1.78918004035950,0.89872676134109
310,993594927,1.55618524551392,-0.47366455197334,50.76377487182617,0.04194629937410,0.27193981409073,10.02533912658691,1.25732576847076,1.72084105014801,0.85830736160278
311,993603260,1.55604672431946,-0.47266840934753,50.76421737670898,0.04080779850483,0.27247056365013,10.02718067169189,1.28652596473694,1.92526829242706,0.80641293525696
312,993611593,1.55497884750366,-0.47343063354492,50.76394271850586,0.04258047044277,0.28448274731636,10.03388023376465,1.17845976352692,1.71210670471191,0.73525661230087
313,993619926,1.55568659305573,-0.47375223040581,50.76383590698242,0.04185020178556,0.26729434728622,10.02951717376709,1.38765120506287,1.76643443107605,0.74645000696182
314,993628259,1.55537915229797,-0.47472879290581,50.76403808593750,0.04182568192482,0.27734062075615,9.99531745910645,1.26918530464172,1.68854153156281,0.79130047559738
315,993636592,1.55485665798187,-0.47476837038994,50.76401901245117,0.03881726413965,0.27014297246933,9.99706554412842,1.24013888835907,1.80004024505615,0.76258695125580
316,993644925,1.55468070507050,-0.47456923127174,50.76370239257812,0.03930975496769,0.26874610781670,9.98571395874023,1.28583467006683,1.82747328281403,0.72731620073318
317,993653258,1.55493927001953,-0.47468730807304,50.76380538940430,0.04683370888233,0.30112245678902,10.01595115661621,1.33388698101044,1.79125463962555,0.75784838199615
318,993661591,1.55367457866669,-0.47499388456345,50.76428604125977,0.07536232471466,0.27908906340599,10.01095581054688,1.15289652347565,1.77030217647552,0.82288289070129
319,993669924,1.55359625816345,-0.47624242305756,50.76398849487305,0.07634828239679,0.25565037131310,9.99232769012451,1.29472267627716,1.65391111373901,0.73333555459976
320,993678257,1.55321490764618,-0.47678157687187,50.76351165771484,0.08713649213314,0.30533203482628,10.02441215515137,1.25937521457672,1.73864293098450,0.70920687913895
321,993686590,1.55331242084503,-0.47664156556129,50.76443099975586,0.08689605444670,0.30935057997704,10.00653076171875,1.31682765483856,1.82409191131592,0.87997698783875
322,993694923,1.55293786525726,-0.47671824693680,50.76459503173828,0.09356851130724,0.24582301080227,10.01337718963623,1.25986158847809,1.79722273349762,0.78610086441040
323,993703256,1.55254244804382,-0.47724804282188,50.76489257812500,0.08797214925289,0.27348056435585,9.97495269775391,1.25578904151917,1.74266457557678,0.80108517408371
324,993711589,1.55280148983002,-0.47685915231705,50.76471710205078,0.10912663489580,0.29614216089249,9.99320793151855,1.33731925487518,1.85108971595764,0.74245423078537
325,993719922,1.55284059047699,-0.47667762637138,50.76494979858398,0.12012500315905,0.27825981378555,9.96040821075439,1.30857992172241,1.82747304439545,0.78090113401413
326,993728255,1.55299150943756,-0.47727718949318,50.76461029052734,0.11000838130713,0.28786236047745,9.98109817504883,1.32328259944916,1.73190641403198,0.72726494073868
327,993736588,1.55214726924896,-0.47710552811623,50.76396942138672,0.12342202663422,0.27241480350494,10.02122688293457,1.20158934593201,1.82406651973724,0.68136423826218
328,993744921,1.55241394042969,-0.47662580013275,50.76455688476562,0.11620832234621,0.28130292892456,9.98284626007080,1.33762645721436,1.86412703990936,0.83545953035355
329,993753254,1.55253064632416,-0.47693985700607,50.76450347900391,0.11325990408659,0.24845014512539,10.01407623291016,1.31856966018677,1.76735675334930,0.75351965427399
330,993761587,1.55217576026917,-0.47690969705582,50.76466751098633,0.11616760492325,0.28353601694107,9.97459411621094,1.26278173923492,1.80905652046204,0.78499948978424
331,993769920,1.55194485187531,-0.47748160362244,50.76510238647461,0.11322670429945,0.27283966541290,9.98459911346436,1.27689528465271,1.73820769786835,0.81945067644119
332,993778253,1.55224132537842,-0.47737494111061,50.76592254638672,0.10429040342569,0.28075873851776,10.00539112091064,1.34157121181488,1.82071113586426,0.86355841159821
333,993786586,1.55002439022064,-0.47667822241783,50.74943161010742,0.09342396259308,0.30043035745621,9.99209022521973,1.33972692489624,1.80539357662201,0.78474330902100
334,993794919,1.54953110218048,-0.47555199265480,50.74936294555664,0.10944298654795,0.28386428952217,9.99415016174316,1.24836099147797,1.93912553787231,0.75707983970642
335,993803252,1.54958164691925,-0.47569668292999,50.74998092651367,0.08142020553350,0.24794079363346,10.02476119995117,1.30909228324890,1.79043495655060,0.83323103189468
336,993811585,1.55048716068268,-0.47568601369858,50.74987411499023,0.07824189960957,0.27797695994377,9.99866199493408,1.41382884979248,1.80572652816772,0.75364768505096
337,993819918,1.55080962181091,-0.47490829229355,50.75017166137695,0.08277957886457,0.28936761617661,10.00501632690430,1.34354352951050,1.89850163459778,0.79340100288391
338,993828251,1.55041229724884,-0.47441780567169,50.75036621093750,0.07064890861511,0.25646749138832,9.99817180633545,1.25809442996979,1.86484444141388,0.78815007209778
339,993836584,1.54999375343323,-0.47524636983871,50.75053787231445,0.04753048717976,0.29692921042442,10.01706790924072,1.25289463996887,1.70642018318176,0.77606016397476
340,993844917,1.55003070831299,-0.47674474120140,50.74966049194336,0.06014627590775,0.29248559474945,9.97962951660156,1.30952775478363,1.62212383747101,0.66671293973923
341,993853250,1.55082225799561,-0.47776603698730,50.74909591674805,0.05211905390024,0.24491381645203,10.00712203979492,1.39748728275299,1.68078041076660,0.69114893674850
342,993861583,1.55065166950226,-0.47788646817207,50.74903106689453,0.04061143472791,0.28156629204750,9.99633312225342,1.28642380237579,1.78948724269867,0.75989747047424
343,993869916,1.55039811134338,-0.47800636291504,50.74901199340820,0.01510120555758,0.27893164753914,10.01443481445312,1.27277123928070,1.79115223884583,0.76158803701401
344,993878249,1.55115056037903,-0.47798076272011,50.74977874755859,0.03184546157718,0.27959081530571,10.00935077667236,1.39625763893127,1.81026053428650,0.85694992542267
345,993886582,1.55157017707825,-0.47808858752251,50.74897003173828,0.03202694654465,0.27056655287743,10.01093196868896,1.35289263725281,1.78951287269592,0.66730201244354
346,993894915,1.55131280422211,-0.47912690043449,50.74861907958984,0.04257308691740,0.26430782675743,9.99314308166504,1.27548635005951,1.67960214614868,0.72606104612350
347,993903248,1.55201864242554,-0.47938516736031,50.74831008911133,0.04900644347072,0.26643502712250,10.00854396820068,1.38731801509857,1.77299165725708,0.72659891843796
348,993911581,1.55167114734650,-0.47985485196114,50.74835968017578,0.04968947172165,0.27811285853386,9.99471092224121,1.26454913616180,1.74832510948181,0.77349865436554
349,993919914,1.55113887786865,-0.48008525371552,50.74913024902344,0.07354592531919,0.27908083796501,9.99212074279785,1.23990821838379,1.78121376037598,0.85474699735641
350,993928247,1.55146014690399,-0.48035967350006,50.74898147583008,0.06400106102228,0.23329918086529,9.99685668945312,1.34487545490265,1.77199268341064,0.74970304965973
351,993936580,1.55178725719452,-0.48021283745766,50.74942016601562,0.07739370316267,0.29612761735916,10.00496387481689,1.34285187721252,1.82278585433960,0.79734551906586
352,993944913,1.55185592174530,-0.48055008053780,50.74946212768555,0.08038238435984,0.28183034062386,10.02791118621826,1.31388211250305,1.76489758491516,0.77257651090622
353,993953246,1.55215787887573,-0.48129579424858,50.75001525878906,0.09292654693127,0.25686639547348,10.00777912139893,1.34100759029388,1.71694767475128,0.82027018070221
354,993961579,1.55261909961700,-0.48188596963882,50.75000000000000,0.09684517234564,0.28347995877266,9.96779251098633,1.36016714572906,1.73526191711426,0.76637786626816
355,993969912,1.55289745330811,-0.48172476887703,50.74998474121094,0.10569826513529,0.29317447543144,10.00023269653320,1.33693492412567,1.82437407970428,0.74944692850113
356,993978245,1.55279719829559,-0.48108592629433,50.75007629394531,0.11786782741547,0.26191419363022,10.01166915893555,1.29449224472046,1.88087868690491,0.77557343244553
357,993986578,1.55255353450775,-0.48154285550117,50.75027847290039,0.09768115729094,0.27720680832863,10.01773071289062,1.27510225772858,1.75155246257782,0.78971248865128
358,993994911,1.55365908145905,-0.48069980740547,50.75006103515625,0.10737945139408,0.29389023780823,9.99948120117188,1.43813669681549,1.90615999698639,0.73761308193207
359,994003244,1.55354082584381,-0.48038268089294,50.74980545043945,0.11024352908134,0.28041389584541,9.97879123687744,1.28844738006592,1.84094643592834,0.73008263111115
360,994011577,1.55400693416595,-0.47929620742798,50.74947357177734,0.11340618878603,0.27896574139595,9.99923610687256,1.36160159111023,1.93500185012817,0.72191160917282
361,994019910,1.55517125129700,-0.47921919822693,50.74889755249023,0.12356334924698,0.30047971010208,9.97805118560791,1.44308054447174,1.81133627891541,0.69038051366806
362,994028243,1.55452370643616,-0.47915992140770,50.74863433837891,0.11637456715107,0.26980459690094,9.98519611358643,1.22820270061493,1.81148993968964,0.73492372035980
363,994036576,1.55467569828033,-0.47897920012474,50.74869918823242,0.10590524971485,0.27662512660027,9.97607803344727,1.32169461250305,1.82655096054077,0.76609611511230
364,994044909,1.55511069297791,-0.47848355770111,50.74882888793945,0.09495025873184,0.28837540745735,9.97555351257324,1.35834848880768,1.86527967453003,0.77956920862198
365,994053242,1.55588042736053,-0.47866317629814,50.74965286254883,0.09417749941349,0.28162267804146,9.98639106750488,1.39589905738831,1.78610610961914,0.85879409313202
366,994061575,1.55612111091614,-0.47956931591034,50.74948501586914,0.09077481925488,0.27750486135483,9.97066593170166,1.33567976951599,1.69586706161499,0.74878084659576
367,994069908,1.55648577213287,-0.47869446873665,50.74908065795898,0.08161234110594,0.27831053733826,9.98333740234375,1.34774422645569,1.90841424465179,0.73069733381271
368,994078241,1.55689847469330,-0.47754111886024,50.74940490722656,0.08380925655365,0.26332074403763,10.00281620025635,1.35537731647491,1.94493997097015,0.80118757486343
369,994086574,1.55659031867981,-0.47755211591721,50.75025939941406,0.07277269661427,0.26000341773033,10.00144863128662,1.26698255538940,1.80621349811554,0.86440354585648
370,994094907,1.55623185634613,-0.47748705744743,50.75070190429688,0.05425075069070,0.29440206289291,9.99202251434326,1.26347327232361,1.81440985202789,0.81670987606049
371,994103240,1.55652368068695,-0.47780048847198,50.75086593627930,0.04942352697253,0.29902461171150,9.98992347717285,1.33826684951782,1.76758706569672,0.78692048788071
372,994111573,1.55729699134827,-0.47704806923866,50.75108337402344,0.04718101397157,0.27394270896912,10.00273132324219,1.39920306205750,1.89629876613617,0.79068583250046
373,994119906,1.55797731876373,-0.47722479701042,50.75102233886719,0.03768023103476,0.28341493010521,9.98722743988037,1.38483381271362,1.78349351882935,0.74985677003860
374,994128239,1.55774176120758,-0.47669875621796,50.75065612792969,0.03581283241510,0.28064885735512,10.02581882476807,1.27789413928986,1.86668837070465,0.72006732225418
375,994136572,1.55760347843170,-0.47595164179802,50.75076675415039,0.04157211259007,0.27094921469688,10.00773048400879,1.28609085083008,1.89558136463165,0.77070677280426
376,994144905,1.55746221542358,-0.47579878568649,50.75057601928711,0.03573762252927,0.29175242781639,10.02149009704590,1.28903627395630,1.82268321514130,0.74516934156418
377,994153238,1.55678534507751,-0.47624486684799,50.75035095214844,0.03010462038219,0.27921700477600,10.02668952941895,1.22249054908752,1.74919593334198,0.73008251190186
378,994161571,1.55698049068451,-0.47685056924820,50.74972534179688,0.03504981100559,0.28280803561211,9.99479293823242,1.32876396179199,1.73080503940582,0.69447869062424
379,994169904,1.55808746814728,-0.47601044178009,50.74988555908203,0.05196725577116,0.28157556056976,9.99401760101318,1.43649768829346,1.90616023540497,0.76586562395096
380,994178237,1.55862224102020,-0.47540321946144,50.74945831298828,0.05205024778843,0.27987390756607,10.00370311737061,1.36995184421539,1.87537193298340,0.71397125720978
381,994186570,1.55825734138489,-0.47633194923401,50.74979400634766,0.06354739516973,0.27187126874924,10.00896930694580,1.26004087924957,1.69509875774384,0.80543959140778
382,994194903,1.55782139301300,-0.47660613059998,50.74937820434570,0.07987564802170,0.26821434497833,9.98608303070068,1.25222849845886,1.77168536186218,0.71742910146713
383,994203236,1.55835902690887,-0.47673380374908,50.74946212768555,0.08079262822866,0.28944608569145,10.00811195373535,1.36887598037720,1.78884708881378,0.76934915781021
384,994211569,1.55910193920135,-0.47602000832558,50.74932479858398,0.09271917492151,0.28343105316162,10.01104736328125,1.39413154125214,1.89020252227783,0.74806374311447
385,994219902,1.56036138534546,-0.47622975707054,50.75014877319336,0.08130539953709,0.28856480121613,10.00994968414307,1.45637416839600,1.78167498111725,0.83656090497971
386,994228235,1.56021618843079,-0.47628322243690,50.75045013427734,0.12727281451225,0.28113573789597,9.99809837341309,1.28773009777069,1.79955363273621,0.80321121215820
387,994236568,1.56061196327209,-0.47595602273941,50.75075149536133,0.11036530882120,0.28922352194786,9.97649383544922,1.35186815261841,1.84540331363678,0.79852378368378
388,994244901,1.56114649772644,-0.47556874155998,50.75091552734375,0.13242460787296,0.26757189631462,10.02063846588135,1.37007987499237,1.85188376903534,0.78597283363342
389,994253234,1.56149601936340,-0.47633948922157,50.75154876708984,0.13130368292332,0.29950293898582,10.02760696411133,1.34666836261749,1.71413016319275,0.83430683612823
390,994261567,1.56125617027283,-0.47746181488037,50.75169372558594,0.12193635106087,0.27247428894043,10.01939010620117,1.27612662315369,1.67109811306000,0.78932827711105
391,994269900,1.56152212619781,-0.47652527689934,50.75230789184570,0.11080489307642,0.25907531380653,10.01060962677002,1.33729338645935,1.91827547550201,0.82452213764191
392,994278233,1.56111919879913,-0.47673782706261,50.75239562988281,0.11535160988569,0.29256314039230,10.01818084716797,1.25694167613983,1.78116250038147,0.77921062707901
393,994286566,1.56075966358185,-0.47658759355545,50.75246047973633,0.13252070546150,0.27905678749084,10.00097560882568,1.26016902923584,1.82347738742828,0.76151120662689
394,994294899,1.56088852882385,-0.47721886634827,50.75254821777344,0.10647110641003,0.26176255941391,9.97839641571045,1.32159197330475,1.72842288017273,0.77859592437744
395,994303232,1.56121671199799,-0.47698423266411,50.75272369384766,0.09970189630985,0.29751577973366,10.01953601837158,1.34356904029846,1.83308255672455,0.77439504861832
396,994311565,1.56103479862213,-0.47661593556404,50.75300216674805,0.10415983945131,0.29598328471184,9.98310184478760,1.28437447547913,1.85047483444214,0.79793459177017
397,994319898,1.56114053726196,-0.47728919982910,50.75299835205078,0.09746078401804,0.26252877712250,10.00221443176270,1.31628990173340,1.72435045242310,0.76586562395096
398,994328231,1.56206369400024,-0.47735804319382,50.75301361083984,0.07959780097008,0.31253096461296,9.97228622436523,1.41592943668365,1.79701793193817,0.76950287818909
399,994336564,1.56206834316254,-0.47695115208626,50.75336074829102,0.07596494257450,0.28739625215530,10.01194000244141,1.30612111091614,1.85480368137360,0.81594139337540
400,994344897,1.56292402744293,-0.47648188471794,50.75365066528320,0.07280240207911,0.25909951329231,10.03892230987549,1.40829634666443,1.86338448524475,0.80044490098953
401,994353230,1.56315255165100,-0.47618660330772,50.75381088256836,0.06146958097816,0.29195415973663,9.98863315582275,1.33101820945740,1.84069037437439,0.78184890747070
402,994361563,1.56405711174011,-0.47545999288559,50.75361251831055,0.04666657745838,0.27571991086006,9.99234962463379,1.41459739208221,1.89132940769196,0.74063563346863
403,994369896,1.56371414661407,-0.47453540563583,50.75393676757812,0.07044217735529,0.26710793375969,10.00151920318604,1.26183402538300,1.91689240932465,0.80016309022903
404,994378229,1.56376588344574,-0.47456187009811,50.75373458862305,0.04908281192183,0.27934688329697,10.00427532196045,1.31221723556519,1.80124402046204,0.74189060926437
405,994386562,1.56423389911652,-0.47481000423431,50.75379943847656,0.03537445887923,0.28710064291954,10.02376270294189,1.36026966571808,1.77557861804962,0.77908259630203
406,994394895,1.56357502937317,-0.47523036599159,50.75334548950195,0.05334150791168,0.27304592728615,10.01609992980957,1.22676825523376,1.75214183330536,0.71297228336334
407,994403228,1.56392443180084,-0.47495278716087,50.75337219238281,0.05466192215681,0.28902393579483,10.00499725341797,1.34474754333496,1.83858978748322,0.77144962549210
408,994411561,1.56409454345703,-0.47481715679169,50.75336074829102,0.06042521819472,0.26762235164642,10.00079441070557,1.32702219486237,1.82168424129486,0.76340663433075
409,994419894,1.56357097625732,-0.47442370653152,50.75380325317383,0.04492893442512,0.26623436808586,10.02618026733398,1.24049723148346,1.85203695297241,0.79650020599365
410,994428227,1.56291222572327,-0.47496837377548,50.75330734252930,0.04909618198872,0.27072378993034,10.00938224792480,1.22599971294403,1.73895037174225,0.70833599567413
411,994436560,1.56299781799316,-0.47488561272621,50.75349426269531,0.05118736997247,0.29602363705635,10.02084064483643,1.31495797634125,1.81443548202515,0.75982064008713
412,994444893,1.56296527385712,-0.47474148869514,50.75321197509766,0.05519250035286,0.25205689668655,9.97804927825928,1.30110073089600,1.82127439975739,0.73215728998184
413,994453226,1.56323277950287,-0.47437185049057,50.75349807739258,0.07856871187687,0.28897461295128,10.01211738586426,1.33685827255249,1.84978318214417,0.78832942247391
414,994461559,1.56303369998932,-0.47570198774338,50.75368118286133,0.08365928381681,0.29685589671135,10.02099990844727,1.28101909160614,1.64671361446381,0.79399001598358
415,994469892,1.56291663646698,-0.47592651844025,50.75366973876953,0.10310009121895,0.26795870065689,9.97083759307861,1.29008662700653,1.77668011188507,0.75523573160172
416,994478225,1.56260168552399,-0.47539338469505,50.75316238403320,0.08863442391157,0.27409923076630,10.00018310546875,1.26767420768738,1.86771309375763,0.70249599218369
417,994486558,1.56308865547180,-0.47553661465645,50.75366210937500,0.08333721756935,0.29660931229591,10.02660846710205,1.36318957805634,1.78928232192993,0.83512651920319
418,994494891,1.56270658969879,-0.47575059533119,50.75396347045898,0.08060284703970,0.27083390951157,9.99066162109375,1.26001536846161,1.78070151805878,0.80272448062897
419,994503224,1.56238818168640,-0.47422489523888,50.75369644165039,0.09803455322981,0.26967036724091,10.00889205932617,1.26518952846527,1.98681962490082,0.71261370182037
420,994511557,1.56220972537994,-0.47385814785957,50.75410842895508,0.12743476033211,0.28508883714676,10.02750301361084,1.28450262546539,1.85001373291016,0.81304699182510
421,994519890,1.56209635734558,-0.47417205572128,50.75370788574219,0.12287576496601,0.26926133036613,10.01439952850342,1.28990721702576,1.76548671722412,0.71366387605667
422,994528223,1.56130921840668,-0.47338697314262,50.75363922119141,0.12382180243731,0.27353596687317,9.97737216949463,1.21068251132965,1.89962863922119,0.75779724121094
423,994536556,1.56055319309235,-0.47284635901451,50.75440597534180,0.12155392020941,0.28429400920868,9.99813556671143,1.21352577209473,1.87209343910217,0.85876852273941
424,994544889,1.56077861785889,-0.47260618209839,50.75498199462891,0.10920583456755,0.28901711106300,10.00092792510986,1.33439922332764,1.83520889282227,0.83489602804184
425,994553222,1.56033384799957,-0.47317117452621,50.75545501708984,0.12726342678070,0.25748676061630,9.97242164611816,1.24974393844604,1.74002611637115,0.81425088644028
426,994561555,1.56076765060425,-0.47313979268074,50.75551605224609,0.11099476367235,0.29974433779716,10.02484703063965,1.35845112800598,1.80831396579742,0.77462571859360
427,994569888,1.56058871746063,-0.47349518537521,50.75584793090820,0.09248784184456,0.31913563609123,9.99718189239502,1.28232538700104,1.76259219646454,0.79621845483780
428,994578221,1.56120753288269,-0.47299274802208,50.75574493408203,0.08568438887596,0.28397226333618,10.02060890197754,1.38063287734985,1.86512613296509,0.75144481658936
429,994586554,1.56075954437256,-0.47323617339134,50.75634002685547,0.07839135825634,0.28101012110710,10.00151062011719,1.25023066997528,1.77816569805145,0.83358967304230
430,994594887,1.56097126007080,-0.47291129827499,50.75598907470703,0.08592608571053,0.29627931118011,9.98766803741455,1.33019840717316,1.84261131286621,0.72452419996262
431,994603220,1.56079173088074,-0.47367313504219,50.75629425048828,0.05476170405746,0.25568774342537,9.99897766113281,1.28212046623230,1.71415579319000,0.79611599445343
432,994611553,1.56147384643555,-0.47238868474960,50.75569534301758,0.04481936246157,0.28539374470711,9.99998378753662,1.38821470737457,1.95638966560364,0.69104653596878
433,994619886,1.56121349334717,-0.47208273410797,50.75550460815430,0.04118102043867,0.27679947018623,10.00604152679443,1.27225899696350,1.84158658981323,0.74286401271820
434,994628219,1.56056690216064,-0.47256302833557,50.75570678710938,0.04496261477470,0.28055337071419,10.02542495727539,1.22856116294861,1.74740302562714,0.79071146249771
435,994636552,1.56085777282715,-0.47155526280403,50.75589370727539,0.06192288920283,0.28038358688354,10.03604412078857,1.33818995952606,1.92677974700928,0.76619863510132
436,994644885,1.56079816818237,-0.47032383084297,50.75658798217773,0.03842978924513,0.28959050774574,9.98469829559326,1.29943573474884,1.95505774021149,0.84665286540985
437,994653218,1.56138110160828,-0.46979743242264,50.75800323486328,0.03834731131792,0.25309145450592,9.97523498535156,1.37502336502075,1.87232375144958,0.92720973491669
438,994661551,1.56136751174927,-0.46956211328506,50.75807571411133,0.03432882949710,0.26727160811424,10.01257228851318,1.30402076244354,1.83438909053802,0.77424150705338
439,994669884,1.56143307685852,-0.46898671984673,50.75854492187500,0.04587676748633,0.29930707812309,10.00973224639893,1.31231975555420,1.87401437759399,0.80792427062988
440,994678217,1.56180238723755,-0.46967726945877,50.75898361206055,0.05082558095455,0.24509163200855,9.98813343048096,1.34989583492279,1.72324883937836,0.82034713029861
441,994686550,1.56172895431519,-0.46899408102036,50.75901412963867,0.05123015120625,0.27533516287804,10.01196765899658,1.29485082626343,1.88694953918457,0.76632672548294
442,994694883,1.56207776069641,-0.46839997172356,50.75928497314453,0.04747666418552,0.28697049617767,9.98926162719727,1.34897363185883,1.87742090225220,0.79619288444519
443,994703216,1.56230807304382,-0.46864435076714,50.75913238525391,0.06302842497826,0.27970695495605,10.03567123413086,1.33081316947937,1.77491271495819,0.74242854118347
444,994711549,1.56231629848480,-0.46834158897400,50.75886535644531,0.06399070471525,0.27960541844368,9.98066520690918,1.30627477169037,1.84130477905273,0.73295128345490
445,994719882,1.56218242645264,-0.46863874793053,50.75859069824219,0.07341871410608,0.26865494251251,10.02879142761230,1.28711533546448,1.76663935184479,0.71727544069290
446,994728215,1.56196594238281,-0.46952235698700,50.75868988037109,0.07240778952837,0.29044914245605,10.00543498992920,1.27984082698822,1.69993984699249,0.78246361017227
447,994736548,1.56158602237701,-0.46926015615463,50.75855255126953,0.10506190359592,0.26403304934502,9.98523712158203,1.25778687000275,1.83528554439545,0.74142956733704
448,994744881,1.56006848812103,-0.46842440962791,50.75823211669922,0.10508427023888,0.28734624385834,10.02565193176270,1.12364518642426,1.90500748157501,0.72598421573639
449,994753214,1.55972719192505,-0.46895477175713,50.75821304321289,0.10083002597094,0.27242502570152,9.98398876190186,1.26232075691223,1.74035930633545,0.75433915853500
450,994761547,1.55985903739929,-0.46889111399651,50.75775527954102,0.08440962433815,0.26802024245262,10.02330112457275,1.32066988945007,1.81189954280853,0.71048766374588
451,994769880,1.56100845336914,-0.46949681639671,50.75752639770508,0.11566656827927,0.31629949808121,9.99899101257324,1.44103109836578,1.73206007480621,0.73510289192200
452,994778213,1.56164765357971,-0.46940395236015,50.75755310058594,0.10391464829445,0.26083463430405,10.00112915039062,1.38391149044037,1.81512725353241,0.76998955011368
453,994786546,1.56175363063812,-0.46951749920845,50.75772094726562,0.10716677457094,0.25864502787590,9.98975753784180,1.31626415252686,1.79245853424072,0.78090107440948
454,994794879,1.56210756301880,-0.46870502829552,50.75752639770508,0.11217059195042,0.30283910036087,9.99667263031006,1.34810268878937,1.90195930004120,0.73858648538589
455,994803212,1.56189680099487,-0.46873390674591,50.75696182250977,0.11766839027405,0.31350892782211,9.98978233337402,1.27722823619843,1.79893887042999,0.68899726867676
456,994811545,1.56161546707153,-0.46871501207352,50.75667953491211,0.11338128894567,0.26676106452942,9.99085235595703,1.27172112464905,1.80734062194824,0.73297697305679
457,994819878,1.56238508224487,-0.46897989511490,50.75579071044922,0.10124034434557,0.28416433930397,9.98897933959961,1.39584767818451,1.77002036571503,0.64988434314728
458,994828211,1.56281960010529,-0.46908614039421,50.75565719604492,0.09553598612547,0.30661293864250,10.01343345642090,1.35755455493927,1.79202306270599,0.75129115581512
459,994836544,1.56272399425507,-0.46913495659828,50.75589752197266,0.09331372380257,0.26331669092178,10.01349544525146,1.29193091392517,1.79881107807159,0.77529168128967
460,994844877,1.56240820884705,-0.47010132670403,50.75539016723633,0.10451660305262,0.27339467406273,10.00969696044922,1.26731550693512,1.68779861927032,0.70751637220383
461,994853210,1.56220710277557,-0.46996045112610,50.75598907470703,0.07474064081907,0.29945728182793,9.99340438842773,1.27963590621948,1.82347738742828,0.81773442029953
462,994861543,1.56215059757233,-0.46945533156395,50.75587463378906,0.07261130958796,0.26963007450104,10.01515960693359,1.29974317550659,1.86520302295685,0.75259751081467
463,994869876,1.56154835224152,-0.46933892369270,50.75601577758789,0.06411951780319,0.27944359183311,10.00294780731201,1.23094320297241,1.81871306896210,0.77677720785141
464,994878209,1.56035327911377,-0.46901538968086,50.75576400756836,0.05128742754459,0.27871575951576,10.01628017425537,1.16219460964203,1.84271359443665,0.73561513423920
465,994886542,1.56068325042725,-0.46977534890175,50.75588607788086,0.06097118929029,0.26672303676605,9.98334693908691,1.34374833106995,1.71407914161682,0.78023529052734
466,994894875,1.55993688106537,-0.46906474232674,50.75555038452148,0.05845247954130,0.26990824937820,9.99436569213867,1.21572840213776,1.89012551307678,0.72526705265045
467,994903208,1.56084156036377,-0.46864053606987,50.75555419921875,0.05541410297155,0.27404928207397,9.99768733978271,1.41208720207214,1.85408651828766,0.75723361968994
468,994911541,1.56060075759888,-0.46827104687691,50.75580978393555,0.03914025798440,0.26864755153656,9.98796176910400,1.27766370773315,1.85075676441193,0.79514276981354
469,994919874,1.56068968772888,-0.46931451559067,50.75556564331055,0.03360580652952,0.27804335951805,10.00944900512695,1.31398463249207,1.67852652072906,0.73986715078354
470,994928207,1.56067991256714,-0.46984353661537,50.75522994995117,0.03218346461654,0.29662069678307,10.01702404022217,1.30361080169678,1.74110186100006,0.72826391458511
471,994936540,1.56048071384430,-0.46924579143524,50.75546264648438,0.01720941811800,0.28837534785271,9.98123168945312,1.27932870388031,1.87678086757660,0.79547572135925
472,994944873,1.56026721000671,-0.46841624379158,50.75514984130859,0.03710024058819,0.26618868112564,9.98873996734619,1.28119838237762,1.90303528308868,0.72544634342194
473,994953206,1.55988359451294,-0.46819463372231,50.75519943237305,0.04526639357209,0.25756198167801,10.00640964508057,1.25625014305115,1.83195531368256,0.75941079854965
474,994961539,1.56009542942047,-0.46766561269760,50.75471115112305,0.07147308439016,0.26825970411301,9.98707771301270,1.33147919178009,1.86627900600433,0.70523679256439
475,994969872,1.56038308143616,-0.46762388944626,50.75531387329102,0.06276699155569,0.26360034942627,9.99877643585205,1.33870232105255,1.81256568431854,0.82974749803543
476,994978205,1.56069529056549,-0.46797564625740,50.75548553466797,0.06058669090271,0.31663054227829,9.98958587646484,1.34274935722351,1.76313018798828,0.78958439826965
477,994986538,1.55966961383820,-0.46842277050018,50.75526428222656,0.06934629380703,0.29359325766563,10.01030731201172,1.18045759201050,1.75032305717468,0.74048191308975
478,994994871,1.56040453910828,-0.46827691793442,50.75502777099609,0.06760176271200,0.27650204300880,10.01235294342041,1.39425969123840,1.82186377048492,0.73751074075699
479,995003204,1.56005251407623,-0.46915093064308,50.75430679321289,0.10870726406574,0.29263681173325,9.99543857574463,1.26080930233002,1.69632828235626,0.67173320055008
480,995011537,1.56038165092468,-0.46755731105804,50.75416946411133,0.09804166108370,0.27961030602455,10.00544929504395,1.34551572799683,1.99645018577576,0.74483627080917
481,995019870,1.56075859069824,-0.46753567457199,50.75409317016602,0.09173978865147,0.24275675415993,10.02188682556152,1.34789788722992,1.80616199970245,0.72270566225052
482,995028203,1.56103181838989,-0.46804678440094,50.75353622436523,0.10252734273672,0.31005695462227,9.99448585510254,1.33947074413300,1.74220335483551,0.70044678449631
483,995036536,1.56112372875214,-0.46803173422813,50.75363540649414,0.11077702045441,0.29061624407768,10.01266479492188,1.31370282173157,1.80685377120972,0.76033294200897
484,995044869,1.56107234954834,-0.46808728575706,50.75335311889648,0.10569205880165,0.27656215429306,10.00131607055664,1.29882121086121,1.79724860191345,0.73192679882050
485,995053202,1.56097483634949,-0.46839347481728,50.75316238403320,0.13239333033562,0.27097547054291,10.02146053314209,1.29210996627808,1.76669061183929,0.72285932302475
486,995061535,1.56159639358521,-0.46858114004135,50.75301361083984,0.12514731287956,0.29131504893303,10.00297260284424,1.37953138351440,1.78313493728638,0.74908828735352
487,995069868,1.56163167953491,-0.46880993247032,50.75389480590820,0.11145350337029,0.26367327570915,10.01095104217529,1.30973267555237,1.77901101112366,0.85943436622620
488,995078201,1.56218194961548,-0.46881106495857,50.75432205200195,0.11986973881721,0.28729408979416,9.99331855773926,1.37120687961578,1.80723822116852,0.81765770912170
489,995086534,1.56255769729614,-0.46792021393776,50.75481033325195,0.09326718747616,0.29422435164452,9.99557590484619,1.34912753105164,1.91251254081726,0.82039839029312
490,995094867,1.56276202201843,-0.46784245967865,50.75493240356445,0.10402958095074,0.25056019425392,9.99601745605469,1.33104372024536,1.81494796276093,0.78108048439026
491,995103200,1.56244492530823,-0.46860256791115,50.75523757934570,0.09177397936583,0.28156253695488,9.99858474731445,1.26516401767731,1.71505248546600,0.80825728178024
492,995111533,1.56247425079346,-0.46883928775787,50.75471115112305,0.07830483466387,0.31024369597435,10.00748062133789,1.30911779403687,1.77481031417847,0.70290583372116
493,995119866,1.56231272220612,-0.46915155649185,50.75497055053711,0.08342809975147,0.24662736058235,9.99986267089844,1.28539919853210,1.76735651493073,0.79147988557816
494,995128199,1.56232416629791,-0.46919238567352,50.75514984130859,0.07550375908613,0.27040502429008,10.01092529296875,1.30599296092987,1.80091106891632,0.78863662481308
495,995136532,1.56161737442017,-0.46900600194931,50.75561141967773,0.05736023932695,0.29358732700348,9.99893283843994,1.22044122219086,1.82808780670166,0.78584468364716
496,995144865,1.56079554557800,-0.46831619739532,50.75591278076172,0.06542076915503,0.26949349045753,9.99928092956543,1.20594382286072,1.88940858840942,0.80088037252426
497,995153198,1.56085288524628,-0.46698072552681,50.75535583496094,0.04609132185578,0.25583481788635,9.97654724121094,1.31114137172699,1.96271634101868,0.68146669864655
498,995161531,1.56055927276611,-0.46675017476082,50.75516891479492,0.04206983745098,0.27414751052856,9.97498416900635,1.26974880695343,1.83192980289459,0.74493867158890
499,995169864,1.56084358692169,-0.46650129556656,50.75502777099609,0.05675535276532,0.28487867116928,10.01034164428711,1.33719110488892,1.83444023132324,0.76166486740112
500,995178197,1.56116461753845,-0.46650922298431,50.75435638427734,0.02389635331929,0.28228279948235,10.01735973358154,1.34390211105347,1.80221784114838,0.68684577941895
501,995186530,1.56190371513367,-0.46630218625069,50.75384521484375,0.03350791335106,0.29246535897255,9.99111652374268,1.39213371276855,1.82767796516418,0.69785982370377
502,995194863,1.56175637245178,-0.46551954746246,50.75367355346680,0.03900602459908,0.27217558026314,9.98160171508789,1.28760194778442,1.89852726459503,0.74232614040375
503,995203196,1.56212937831879,-0.46447196602821,50.75355911254883,0.04868577793241,0.27087986469269,10.02974128723145,1.34881985187531,1.92826509475708,0.73364287614822
504,995211529,1.56207942962646,-0.46483504772186,50.75288009643555,0.02893126383424,0.27689152956009,10.02357006072998,1.29871869087219,1.76031279563904,0.68594926595688
505,995219862,1.56234002113342,-0.46433761715889,50.75236511230469,0.06316080689430,0.27076590061188,10.02216720581055,1.33447611331940,1.86289799213409,0.69158434867859
506,995228195,1.56212627887726,-0.46457079052925,50.75171279907227,0.06058344244957,0.25755020976067,9.98951435089111,1.27912354469299,1.77501511573792,0.68892037868500
507,995236528,1.56287908554077,-0.46469789743423,50.75144958496094,0.06019736453891,0.27044096589088,10.01324558258057,1.39395236968994,1.78964102268219,0.74381178617477
508,995244861,1.56286990642548,-0.46574297547340,50.75173568725586,0.09530390053988,0.27523449063301,10.02260589599609,1.30519902706146,1.68039643764496,0.80372345447540
509,995253194,1.56277346611023,-0.46565461158752,50.75201416015625,0.08427023142576,0.25454995036125,10.02304363250732,1.29234051704407,1.81586980819702,0.78581911325455
510,995261527,1.56279516220093,-0.46588668227196,50.75264739990234,0.09076290577650,0.28243309259415,9.99900150299072,1.30934834480286,1.77913916110992,0.84217041730881
511,995269860,1.56299185752869,-0.46584510803223,50.75262451171875,0.08869585394859,0.29137736558914,10.01626682281494,1.32743203639984,1.80933821201324,0.73699837923050
512,995278193,1.56371307373047,-0.46588939428329,50.75279617309570,0.11006504297256,0.25739726424217,9.97934341430664,1.39251780509949,1.80042445659637,0.78914886713028
513,995286526,1.56430339813232,-0.46539410948753,50.75373458862305,0.10921896994114,0.27752342820168,10.00911235809326,1.37540769577026,1.86633026599884,0.86222642660141
514,995294859,1.56363976001740,-0.46551486849785,50.75441741943359,0.09388648718596,0.29928553104401,10.00448131561279,1.22728037834167,1.79291951656342,0.84816414117813
515,995303192,1.56331443786621,-0.46532627940178,50.75454711914062,0.12610620260239,0.28430861234665,10.02620887756348,1.26378071308136,1.82888174057007,0.78397488594055
516,995311525,1.56354832649231,-0.46536940336227,50.75432586669922,0.10293646901846,0.28257665038109,9.99759292602539,1.33424556255341,1.79955375194550,0.74050760269165
517,995319858,1.56370902061462,-0.46546006202698,50.75450134277344,0.11119005084038,0.29406133294106,10.01857185363770,1.32212972640991,1.79420018196106,0.78389799594879
518,995328191,1.56406104564667,-0.46565711498260,50.75401687622070,0.11066582798958,0.25618374347687,9.97228145599365,1.34848690032959,1.77954888343811,0.70787495374680
519,995336524,1.56434226036072,-0.46667075157166,50.75438308715820,0.11359903961420,0.28268039226532,10.03038120269775,1.33719098567963,1.68346989154816,0.80098271369934
520,995344857,1.56405758857727,-0.46625566482544,50.75405883789062,0.10730665922165,0.30694773793221,10.00693511962891,1.27182352542877,1.85505974292755,0.72762346267700
521,995353190,1.56424117088318,-0.46550023555756,50.75492858886719,0.10841762274504,0.26271292567253,9.98643970489502,1.32640767097473,1.89729762077332,0.86304610967636
522,995361523,1.56455433368683,-0.46500578522682,50.75513458251953,0.08422553539276,0.26182714104652,9.99745655059814,1.34303104877472,1.86574089527130,0.78899520635605
523,995369856,1.56517279148102,-0.46520012617111,50.75488281250000,0.09862557053566,0.29508864879608,10.00709533691406,1.37822508811951,1.77916467189789,0.69568264484406
524,995378189,1.56535840034485,-0.46581515669823,50.75578689575195,0.07702311128378,0.28561133146286,10.00836181640625,1.32878947257996,1.73426294326782,0.87736439704895
525,995386522,1.56534016132355,-0.46623513102531,50.75568008422852,0.07806090265512,0.23573096096516,10.00810909271240,1.30122876167297,1.75460064411163,0.74972862005234
526,995394855,1.56526434421539,-0.46649947762489,50.75582122802734,0.08639167249203,0.32067531347275,9.99939060211182,1.29730987548828,1.77332460880280,0.78369313478470
527,995403188,1.56542849540710,-0.46549606323242,50.75613403320312,0.08338485658169,0.27455544471741,9.98366737365723,1.32387173175812,1.92606234550476,0.78095239400864
528,995411521,1.56593227386475,-0.46480280160904,50.75584411621094,0.05894175916910,0.25685113668442,9.99846458435059,1.36605846881866,1.88633453845978,0.72877615690231
529,995419854,1.56612229347229,-0.46479254961014,50.75553131103516,0.05348441749811,0.29178604483604,9.96868038177490,1.32535743713379,1.80608522891998,0.72928851842880
530,995428187,1.56544017791748,-0.46455666422844,50.75627517700195,0.04178333282471,0.28169307112694,9.99900436401367,1.22436046600342,1.83607947826385,0.85215997695923
531,995436520,1.56519091129303,-0.46391236782074,50.75609207153320,0.02904633246362,0.27823248505592,9.99011898040771,1.27346301078796,1.88215982913971,0.74698799848557
532,995444853,1.56521129608154,-0.46378964185715,50.75656127929688,0.04000119864941,0.29423505067825,10.01538181304932,1.30963027477264,1.82014763355255,0.82272928953171
533,995453186,1.56545138359070,-0.46354094147682,50.75625228881836,0.02671222016215,0.27803882956505,10.00945949554443,1.33117198944092,1.83451735973358,0.70997542142868
534,995461519,1.56498825550079,-0.46363842487335,50.75625610351562,0.05659989640117,0.25139310956001,9.98892879486084,1.25082015991211,1.79268920421600,0.76783800125122
535,995469852,1.56551015377045,-0.46353900432587,50.75656127929688,0.03328049182892,0.28765583038330,10.00084781646729,1.36634004116058,1.81786787509918,0.79537320137024
536,995478185,1.56463515758514,-0.46311670541763,50.75585937500000,0.05411348864436,0.28051289916039,10.04710197448730,1.20059037208557,1.85295927524567,0.68256813287735
537,995486518,1.56467688083649,-0.46336928009987,50.75620269775391,0.05410274118185,0.25571787357330,9.97327041625977,1.30768346786499,1.77401626110077,0.74721843004227
538,995494851,1.56469726562500,-0.46427592635155,50.75603103637695,0.05841252207756,0.27379885315895,10.01032638549805,1.30868244171143,1.69579029083252,0.74788439273834
539,995503184,1.56455516815186,-0.46459698677063,50.75611114501953,0.06648340821266,0.32498949766159,10.00912952423096,1.28601408004761,1.76674199104309,0.76568633317947
540,995511517,1.56423795223236,-0.46423462033272,50.75551605224609,0.07511559128761,0.25184157490730,9.99624919891357,1.26808381080627,1.84558248519897,0.69427376985550
541,995519850,1.56454098224640,-0.46449849009514,50.75501632690430,0.09047163277864,0.26821812987328,10.00576877593994,1.33888173103333,1.77178800106049,0.69417136907578
542,995528183,1.56484997272491,-0.46477591991425,50.75500488281250,0.08400636166334,0.30666941404343,10.02065658569336,1.34295439720154,1.77173674106598,0.76612180471420
543,995536516,1.56431078910828,-0.46467724442482,50.75543212890625,0.10783613473177,0.28024467825890,10.02746582031250,1.23860192298889,1.81773984432220,0.78735595941544
544,995544849,1.56392455101013,-0.46468061208725,50.75537872314453,0.10072310268879,0.26359915733337,9.99436950683594,1.26029717922211,1.80352389812469,0.76040977239609
545,995553182,1.56413578987122,-0.46439832448959,50.75468063354492,0.11111365258694,0.31320789456367,10.01588726043701,1.32804679870605,1.83687353134155,0.66381847858429
546,995561515,1.56434810161591,-0.46406167745590,50.75481033325195,0.09530080854893,0.25773766636848,9.98897075653076,1.33158171176910,1.84542882442474,0.78054261207581
547,995569848,1.56463956832886,-0.46433520317078,50.75434494018555,0.11144356429577,0.26663523912430,10.00201606750488,1.33803641796112,1.76938021183014,0.67478150129318
548,995578181,1.56522643566132,-0.46304520964622,50.75422286987305,0.11306343972683,0.30468535423279,9.99699401855469,1.37551009654999,1.95938658714294,0.75054830312729
549,995586514,1.56508791446686,-0.46272584795952,50.75508499145508,0.10925500839949,0.27944833040237,9.99194622039795,1.28860092163086,1.84581291675568,0.85902470350266
550,995594847,1.56484055519104,-0.46327269077301,50.75503921508789,0.10930283367634,0.25834959745407,9.98548030853271,1.27517890930176,1.73964190483093,0.76322734355927
551,995603180,1.56485044956207,-0.46328067779541,50.75534820556641,0.11833092570305,0.31639754772186,9.96926879882812,1.30527567863464,1.80383121967316,0.75779712200165
552,995611513,1.56480562686920,-0.46384492516518,50.75502777099609,0.09511447697878,0.27682471275330,9.99078273773193,1.30051159858704,1.73664510250092,0.72885304689407
553,995619846,1.56601607799530,-0.46405878663063,50.75507354736328,0.10679800808430,0.25538542866707,9.99432468414307,1.44853627681732,1.77831935882568,0.76709514856339
554,995628179,1.56688416004181,-0.46502128243446,50.75513458251953,0.08791054040194,0.28267171978951,10.01138019561768,1.40983319282532,1.68989932537079,0.77582955360413
555,995636512,1.56579864025116,-0.46520957350731,50.75563430786133,0.08263404667377,0.29329648613930,9.99456787109375,1.17377245426178,1.78380084037781,0.80800104141235
556,995644845,1.56640982627869,-0.46508470177650,50.75672149658203,0.06500369310379,0.25671610236168,9.95979404449463,1.38086342811584,1.82301640510559,0.89662623405457
557,995653178,1.56714069843292,-0.46508812904358,50.75601959228516,0.08255382627249,0.27414187788963,9.98021125793457,1.39103233814240,1.80167973041534,0.68190217018127
558,995661511,1.56594240665436,-0.46432724595070,50.75604629516602,0.05430097132921,0.31035214662552,9.98114395141602,1.16211771965027,1.89642655849457,0.76681333780289
559,995669844,1.56597530841827,-0.46447405219078,50.75552749633789,0.06998756527901,0.29667833447456,9.97670650482178,1.30614674091339,1.78510737419128,0.67903345823288
560,995678177,1.56596529483795,-0.46436119079590,50.75521850585938,0.07052115350962,0.28266137838364,9.98751163482666,1.30458414554596,1.81786787509918,0.72680389881134
561,995686510,1.56624293327332,-0.46430304646492,50.75498199462891,0.04769296944141,0.29277729988098,9.99376583099365,1.33678126335144,1.81049084663391,0.72414004802704
562,995694843,1.56631302833557,-0.46391129493713,50.75558090209961,0.03549865260720,0.28254058957100,10.02229213714600,1.31544458866119,1.85370206832886,0.83681702613831
563,995703176,1.56578087806702,-0.46320459246635,50.75537490844727,0.03306444734335,0.29008376598358,10.00199413299561,1.23890924453735,1.88858878612518,0.72060525417328
564,995711509,1.56610035896301,-0.46269002556801,50.75557327270508,0.05150165036321,0.29772323369980,10.01316547393799,1.34518265724182,1.86743116378784,0.78674119710922
565,995719842,1.56647694110870,-0.46262994408607,50.75586700439453,0.06356897950172,0.27363124489784,9.99651622772217,1.34848701953888,1.81177175045013,0.77703344821930
566,995728175,1.56700336933136,-0.46374508738518,50.75545883178711,0.02045387774706,0.26133587956429,9.99150276184082,1.36872220039368,1.67094469070435,0.72034913301468
567,995736508,1.56750941276550,-0.46276015043259,50.75559616088867,0.05016144365072,0.31310093402863,10.00815010070801,1.36390686035156,1.92263019084930,0.76635223627090
568,995744841,1.56706905364990,-0.46291357278824,50.75557708740234,0.05428845807910,0.26266551017761,10.00426959991455,1.25338137149811,1.78713071346283,0.76624977588654
569,995753174,1.56712472438812,-0.46325871348381,50.75523376464844,0.07825542986393,0.25738471746445,10.00834846496582,1.30968153476715,1.76236176490784,0.73343807458878
570,995761507,1.56675946712494,-0.46277230978012,50.75481033325195,0.06057077646255,0.29329684376717,9.98142147064209,1.26319158077240,1.86202681064606,0.71374064683914
571,995769840,1.56602990627289,-0.46271523833275,50.75486373901367,0.07650853693485,0.28643262386322,10.01900672912598,1.21526730060577,1.81164371967316,0.77344745397568
572,995778173,1.56608891487122,-0.46256363391876,50.75499343872070,0.09332939237356,0.26029735803604,9.97390556335449,1.31247353553772,1.82378494739532,0.78136223554611
573,995786506,1.56685245037079,-0.46206080913544,50.75500488281250,0.11442744731903,0.29254579544067,10.00750064849854,1.39764094352722,1.86599719524384,0.76630103588104
574,995794839,1.55307126045227,-0.47541579604149,50.75736236572266,0.09954065084457,0.26752385497093,10.01899147033691,1.19382822513580,1.90554535388947,0.78410297632217
575,995803172,1.55318641662598,-0.47554296255112,50.75670623779297,0.10999870300293,0.26519200205803,10.01079177856445,1.31787812709808,1.78743815422058,0.68881803750992
576,995811505,1.55294430255890,-0.47617453336716,50.75605773925781,0.11853764206171,0.29802766442299,9.98707866668701,1.27707457542419,1.72785949707031,0.68886923789978
577,995819838,1.55225920677185,-0.47774115204811,50.75635528564453,0.12317264825106,0.25549247860909,10.01928520202637,1.22113299369812,1.61799991130829,0.78840619325638
578,995828171,1.55197453498840,-0.47669821977615,50.75612640380859,0.10349918156862,0.24944984912872,10.00988864898682,1.27248978614807,1.93113422393799,0.73402720689774
579,995836504,1.55177557468414,-0.47698611021042,50.75557708740234,0.09929450601339,0.29246202111244,9.97582626342773,1.28027629852295,1.76858603954315,0.69783419370651
580,995844837,1.55152082443237,-0.47638717293739,50.75546264648438,0.09615764766932,0.28941869735718,9.98835277557373,1.27663910388947,1.87739539146423,0.75072759389877
581,995853170,1.55244696140289,-0.47576290369034,50.75542449951172,0.10388627648354,0.26742044091225,10.00214290618896,1.41449499130249,1.87967514991760,0.74022579193115
582,995861503,1.55228948593140,-0.47495663166046,50.75535583496094,0.10225982218981,0.29794991016388,10.02748584747314,1.28867769241333,1.90298402309418,0.75526124238968
583,995869836,1.55217409133911,-0.47450712323189,50.75568771362305,0.08945656567812,0.31050983071327,10.01099586486816,1.29070150852203,1.86002898216248,0.80018872022629
584,995878169,1.55153596401215,-0.47377362847328,50.75554656982422,0.11520430445671,0.24164281785488,10.00147151947021,1.23081517219543,1.89350688457489,0.74742335081100
585,995886502,1.55201983451843,-0.47315630316734,50.75542831420898,0.09180403500795,0.28736424446106,10.01633262634277,1.36157596111298,1.87893235683441,0.74732095003128
586,995894835,1.55093526840210,-0.47272497415543,50.75580596923828,0.09074304997921,0.31221613287926,10.03152561187744,1.17694842815399,1.85956764221191,0.81017827987671
587,995903168,1.55043780803680,-0.47248479723930,50.75558853149414,0.08893455564976,0.26194417476654,10.01332950592041,1.24416029453278,1.83420979976654,0.74253100156784
588,995911501,1.55055904388428,-0.47260689735413,50.75542449951172,0.06933538615704,0.28550133109093,10.03669929504395,1.32159197330475,1.79071664810181,0.74716722965240
589,995919834,1.55075466632843,-0.47219344973564,50.75614547729492,0.05339957773685,0.31067264080048,10.01759147644043,1.32904589176178,1.85641741752625,0.84032630920410
590,995928167,1.55039680004120,-0.47275340557098,50.75655746459961,0.04096490144730,0.26328423619270,9.98865318298340,1.26355016231537,1.74002611637115,0.81594145298004
591,995936500,1.55023705959320,-0.47338733077049,50.75644302368164,0.04186237603426,0.26978597044945,10.00416660308838,1.28491234779358,1.72954988479614,0.74639874696732
592,995944833,1.54997825622559,-0.47255060076714,50.75650787353516,0.05129063874483,0.30005764961243,10.00358867645264,1.27535843849182,1.90672373771667,0.77111649513245
593,995953166,1.54934096336365,-0.47323948144913,50.75672149658203,0.06571028381586,0.27264231443405,9.97251129150391,1.22827935218811,1.72283899784088,0.77606010437012
594,995961499,1.54921090602875,-0.47313115000725,50.75683593750000,0.04244976863265,0.28156507015228,9.99969673156738,1.29093194007874,1.81902050971985,0.78118288516998
595,995969832,1.54882252216339,-0.47308686375618,50.75737762451172,0.04781529679894,0.28584805130959,10.01142120361328,1.25809431076050,1.81218135356903,0.82055199146271
596,995978165,1.54877483844757,-0.47360250353813,50.75783157348633,0.03420480340719,0.27917054295540,9.99952125549316,1.30209958553314,1.74599421024323,0.82388180494308
597,995986498,1.54893553256989,-0.47295123338699,50.75748443603516,0.05171287059784,0.27914401888847,10.00708580017090,1.32292413711548,1.88218545913696,0.70743960142136
598,995994831,1.54943621158600,-0.47340533137321,50.75692367553711,0.05426595360041,0.31444460153580,9.98151111602783,1.36680126190186,1.75019502639771,0.69908934831619
599,996003164,1.55006587505341,-0.47307929396629,50.75651550292969,0.04989673569798,0.28774365782738,10.02254962921143,1.37950587272644,1.84166336059570,0.69173800945282
600,996011497,1.55073487758636,-0.47284945845604,50.75601577758789,0.05533253401518,0.25687602162361,10.01613807678223,1.38698530197144,1.83146917819977,0.70426344871521
601,996019830,1.55128777027130,-0.47248837351799,50.75566864013672,0.07753944396973,0.27232763171196,10.00817012786865,1.37000298500061,1.84624862670898,0.69532406330109
602,996028163,1.55141758918762,-0.47141844034195,50.75636291503906,0.08481236547232,0.29046201705933,9.98042583465576,1.32246291637421,1.93751192092896,0.84711408615112
603,996036496,1.55132460594177,-0.47125428915024,50.75590515136719,0.08633098006248,0.25908130407333,9.98404598236084,1.29305779933929,1.82301640510559,0.71335649490356
604,996044829,1.55130004882812,-0.47117355465889,50.75609588623047,0.07135049998760,0.27613049745560,10.00264263153076,1.30448174476624,1.81648457050323,0.78981488943100
605,996053162,1.55079388618469,-0.47189530730247,50.75641250610352,0.07490210235119,0.28979006409645,10.03699398040771,1.24364793300629,1.71812593936920,0.78953313827515
606,996061495,1.55054807662964,-0.47263601422310,50.75626373291016,0.10386771708727,0.26301148533821,9.98719501495361,1.27748429775238,1.71761345863342,0.75047135353088
607,996069828,1.55084896087646,-0.47161394357681,50.75637054443359,0.10985228419304,0.31354194879532,9.99164295196533,1.33993196487427,1.92813718318939,0.77746897935867
608,996078161,1.55054283142090,-0.47023141384125,50.75693511962891,0.10844020545483,0.30495414137840,10.02614307403564,1.27090144157410,1.97311580181122,0.82982432842255
609,996086494,1.55039680004120,-0.47032123804092,50.75764465332031,0.11047114431858,0.26723426580429,9.99148845672607,1.28716647624969,1.79612123966217,0.82349753379822
610,996094827,1.54991018772125,-0.47015950083733,50.75766372680664,0.10589289665222,0.27796551585197,10.01229476928711,1.24943673610687,1.82524466514587,0.76914423704147
611,996103160,1.54984283447266,-0.46944013237953,50.75760650634766,0.09945189207792,0.28671321272850,10.00345993041992,1.29518365859985,1.89168810844421,0.75103497505188
612,996111493,1.54984259605408,-0.47016867995262,50.75786972045898,0.11083690077066,0.25210395455360,10.00494289398193,1.30793976783752,1.71940684318542,0.80080348253250
613,996119826,1.55032289028168,-0.46940016746521,50.75823593139648,0.11024118214846,0.29905048012733,10.03556156158447,1.36216497421265,1.89852714538574,0.79862618446350
614,996128159,1.54963517189026,-0.47022768855095,50.75806808471680,0.09521896392107,0.30224469304085,9.99683189392090,1.22446298599243,1.70693266391754,0.74898588657379
615,996136492,1.54866743087769,-0.46993771195412,50.75888442993164,0.10950551927090,0.25664764642715,10.00252056121826,1.18847489356995,1.84279060363770,0.86737489700317
616,996144825,1.54877364635468,-0.47058174014091,50.75924301147461,0.10699796676636,0.26633685827255,9.98544788360596,1.31974768638611,1.73003661632538,0.81158697605133
617,996153158,1.54847276210785,-0.47126352787018,50.75932312011719,0.08390654623508,0.30094760656357,9.98361968994141,1.26785326004028,1.72319757938385,0.76350909471512
618,996161491,1.54740536212921,-0.47185966372490,50.75959014892578,0.06524162739515,0.29166221618652,10.02400493621826,1.17991983890533,1.73585116863251,0.80036801099777
619,996169824,1.54780530929565,-0.47169223427773,50.75995635986328,0.09032973647118,0.27207264304161,10.01850795745850,1.35127902030945,1.82562887668610,0.80139261484146
620,996178157,1.54723191261292,-0.47114902734756,50.75992584228516,0.07285166531801,0.26679262518883,10.00289344787598,1.23806416988373,1.87176048755646,0.76023060083389
621,996186490,1.54665946960449,-0.47077724337578,50.76005554199219,0.05213109031320,0.29505953192711,10.00602817535400,1.23578441143036,1.84983468055725,0.79101884365082
622,996194823,1.54683804512024,-0.47035339474678,50.76079177856445,0.05914239585400,0.27033737301826,9.99429988861084,1.32983982563019,1.85979819297791,0.85295397043228
623,996203156,1.54670524597168,-0.47115719318390,50.76079940795898,0.04885233193636,0.29920238256454,9.98859119415283,1.28906202316284,1.70780360698700,0.75646525621414
624,996211489,1.54731678962708,-0.47064054012299,50.76102447509766,0.04763300716877,0.26588422060013,9.99311733245850,1.37950587272644,1.86863541603088,0.79142868518829
625,996219822,1.54705381393433,-0.46983265876770,50.76116561889648,0.05461748316884,0.26717424392700,10.00545120239258,1.27259206771851,1.90341961383820,0.78392368555069
626,996228155,1.54751110076904,-0.46866619586945,50.76129531860352,0.03938720002770,0.30534645915031,10.00934505462646,1.36229300498962,1.94552922248840,0.77711027860641
627,996236488,1.54747533798218,-0.46840289235115,50.76187133789062,0.03293592110276,0.25934475660324,10.05352210998535,1.29984557628632,1.83830785751343,0.78120851516724
628,996244821,1.54730343818665,-0.46826016902924,50.76169204711914,0.04094517230988,0.27418920397758,9.99425411224365,1.28601396083832,1.82258093357086,0.74329948425293
629,996253154,1.54755306243896,-0.46909072995186,50.76122665405273,0.03986067324877,0.29620298743248,9.99296760559082,1.33480894565582,1.70278298854828,0.69885873794556
630,996261487,1.54737091064453,-0.46932017803192,50.76157760620117,0.05299346148968,0.29148086905479,10.02505874633789,1.28501498699188,1.78088080883026,0.80887192487717
631,996269820,1.54761934280396,-0.46856346726418,50.76118087768555,0.05167211592197,0.26414614915848,9.99029445648193,1.33345139026642,1.89309704303741,0.70769566297531
632,996278153,1.54745113849640,-0.46840471029282,50.76093673706055,0.05952297896147,0.27571541070938,10.02089309692383,1.28757631778717,1.82483506202698,0.73523104190826
633,996286486,1.54839360713959,-0.46834591031075,50.76041793823242,0.06595107913017,0.29187801480293,10.01074790954590,1.41567301750183,1.81036305427551,0.68128746747971
634,996294819,1.54765391349792,-0.46832749247551,50.76116561889648,0.09478847682476,0.25793668627739,10.04263114929199,1.21898150444031,1.81020927429199,0.85753905773163
635,996303152,1.54764640331268,-0.46906864643097,50.76136016845703,0.07824721932411,0.27274915575981,10.00493621826172,1.30250942707062,1.71520602703094,0.73428320884705
636,996311485,1.54828560352325,-0.46875748038292,50.76161956787109,0.08232254534960,0.27107858657837,10.02400779724121,1.38485932350159,1.84450685977936,0.79447674751282
637,996319818,1.54814553260803,-0.46846896409988,50.76204681396484,0.09140317142010,0.26715269684792,10.02417373657227,1.28824245929718,1.84120261669159,0.80485051870346
638,996328151,1.54878687858582,-0.46856379508972,50.76144790649414,0.08564671874046,0.29762193560600,10.01372623443604,1.38350152969360,1.79222798347473,0.69517028331757
639,996336484,1.54862380027771,-0.46848577260971,50.76185989379883,0.10299954563379,0.27848657965660,10.02242851257324,1.28337550163269,1.81594669818878,0.78589594364166
640,996344817,1.54824221134186,-0.46974286437035,50.76178741455078,0.09622105956078,0.26732796430588,10.01088333129883,1.26244890689850,1.65365517139435,0.76171618700027
641,996353150,1.54833698272705,-0.47016632556915,50.76182937622070,0.12534247338772,0.28265002369881,10.03078365325928,1.31508600711823,1.75526690483093,0.74849915504456
642,996361483,1.54840338230133,-0.47010308504105,50.76299667358398,0.08155584335327,0.29030498862267,9.99574565887451,1.31564962863922,1.81686902046204,0.90756362676620
643,996369816,1.54808223247528,-0.47112762928009,50.76316452026367,0.10554761439562,0.25193801522255,10.00662231445312,1.26572740077972,1.68344438076019,0.79847252368927
644,996378149,1.54732954502106,-0.47200396656990,50.76271820068359,0.11361791938543,0.26150098443031,10.01497077941895,1.21613824367523,1.70019602775574,0.71481651067734
645,996386482,1.54685616493225,-0.47270843386650,50.76367950439453,0.09866862744093,0.30027014017105,10.01095390319824,1.24828422069550,1.72125089168549,0.81578773260117
646,996394815,1.54681551456451,-0.47125738859177,50.76349639892578,0.09536052495241,0.26320546865463,9.99021625518799,1.30176675319672,1.97964751720428,0.73871457576752
647,996403148,1.54706847667694,-0.47116288542747,50.76387023925781,0.08573061972857,0.26724630594254,10.01123237609863,1.33465528488159,1.81648480892181,0.77129578590393
648,996411481,1.54746186733246,-0.47037309408188,50.76360321044922,0.07492253184319,0.29990893602371,10.02911853790283,1.35417342185974,1.89970529079437,0.73197799921036
649,996419814,1.54742443561554,-0.47031247615814,50.76328277587891,0.09062330424786,0.27411255240440,9.97148609161377,1.29923081398010,1.81141293048859,0.70252156257629
650,996428147,1.54783260822296,-0.47003093361855,50.76293945312500,0.09626179933548,0.27935776114464,9.98684215545654,1.35655546188354,1.83820557594299,0.72308993339539
651,996436480,1.54782402515411,-0.47024315595627,50.76247787475586,0.06502824276686,0.28471952676773,9.99079132080078,1.30176651477814,1.77711558341980,0.67078554630280
652,996444813,1.54798150062561,-0.47050067782402,50.76294708251953,0.07548888027668,0.28501155972481,9.98791980743408,1.32556223869324,1.77703869342804,0.82536745071411
653,996453146,1.54761195182800,-0.46914973855019,50.76202011108398,0.03891786187887,0.27222254872322,9.98169517517090,1.26052761077881,1.96497035026550,0.70521104335785
654,996461479,1.54670131206512,-0.46869960427284,50.76194000244141,0.04081726446748,0.28589957952499,9.98393917083740,1.19697880744934,1.85990071296692,0.75433915853500
655,996469812,1.54587185382843,-0.46862146258354,50.76221084594727,0.04326756671071,0.26881760358810,10.01645851135254,1.20517551898956,1.81571614742279,0.80118769407272
656,996478145,1.54662728309631,-0.46998354792595,50.76254272460938,0.05814443528652,0.26644572615623,10.00814342498779,1.39743578433990,1.64425456523895,0.81012696027756
657,996486478,1.54668772220612,-0.46957743167877,50.76373291015625,0.03680768609047,0.26556217670441,10.02964687347412,1.31288313865662,1.85723710060120,0.89959758520126
658,996494811,1.54642558097839,-0.46964541077614,50.76390457153320,0.04222473502159,0.28015577793121,10.00291538238525,1.27592182159424,1.79904127120972,0.78566539287567
659,996503144,1.54692506790161,-0.46841138601303,50.76407241821289,0.04974270984530,0.26477178931236,10.00612449645996,1.36441910266876,1.95416128635406,0.77022004127502
660,996511477,1.54769647121429,-0.46779912710190,50.76332855224609,0.03703007102013,0.29124608635902,9.98395252227783,1.39840924739838,1.87670397758484,0.67585724592209
661,996519810,1.54821383953094,-0.46762686967850,50.76327133178711,0.04035845026374,0.27161026000977,10.03227901458740,1.36587929725647,1.82560348510742,0.73879146575928
662,996528143,1.54797589778900,-0.46892860531807,50.76405715942383,0.04396774992347,0.24487179517746,10.01981163024902,1.27909815311432,1.65193915367126,0.86486470699310
663,996536476,1.54773640632629,-0.46880701184273,50.76478576660156,0.06381880491972,0.26956459879875,10.00427150726318,1.27607548236847,1.81935346126556,0.77995347976685
664,996544809,1.54679787158966,-0.46849974989891,50.76483535766602,0.05435208231211,0.29205286502838,10.03200244903564,1.19423806667328,1.84304678440094,0.76852959394455
665,996553142,1.54695737361908,-0.46842581033707,50.76471328735352,0.07905887812376,0.27064174413681,10.04072380065918,1.32271921634674,1.81384634971619,0.73031306266785
666,996561475,1.54738664627075,-0.46841180324554,50.76511383056641,0.07902611792088,0.29534760117531,9.99495697021484,1.35901463031769,1.80936408042908,0.81389242410660
667,996569808,1.54725241661072,-0.46837183833122,50.76543426513672,0.09938319027424,0.28470671176910,9.98252868652344,1.28729450702667,1.81000423431396,0.77477931976318
668,996578141,1.54672944545746,-0.46882578730583,50.76513290405273,0.10995638370514,0.26985946297646,10.00054836273193,1.24395525455475,1.75045108795166,0.73264390230179
669,996586474,1.54663634300232,-0.46919658780098,50.76541900634766,0.11195355653763,0.26826345920563,10.00282478332520,1.29395437240601,1.75992858409882,0.74181395769119
670,996594807,1.54626762866974,-0.46879553794861,50.76619338989258,0.09914214909077,0.27263256907463,9.99179458618164,1.26385772228241,1.85664796829224,0.85938328504562
671,996603140,1.54648566246033,-0.46914702653885,50.76615905761719,0.10933975130320,0.25629034638405,10.01403999328613,1.32927632331848,1.76310455799103,0.77170568704605
672,996611473,1.54677498340607,-0.46854755282402,50.76538848876953,0.09950779378414,0.28183957934380,9.99173545837402,1.34077715873718,1.87575614452362,0.67073440551758
673,996619806,1.54706001281738,-0.46819132566452,50.76646041870117,0.11396129429340,0.29028454422951,10.00737476348877,1.33906102180481,1.85134589672089,0.87933677434921
674,996628139,1.54680931568146,-0.46734854578972,50.76612854003906,0.09627377986908,0.26046863198280,9.98831272125244,1.27799665927887,1.90459764003754,0.72524142265320
675,996636472,1.54710829257965,-0.46662768721581,50.76615524291992,0.10003725439310,0.26869702339172,10.01262283325195,1.33921480178833,1.89184176921844,0.74084061384201
676,996644805,1.54691255092621,-0.46652251482010,50.76592636108398,0.09594379365444,0.28879722952843,10.02144050598145,1.28288888931274,1.81884121894836,0.73966217041016
677,996653138,1.54716980457306,-0.46633043885231,50.76527404785156,0.09032791107893,0.26585164666176,10.02415943145752,1.33491146564484,1.82557773590088,0.66740447282791
678,996661471,1.54834771156311,-0.46638399362564,50.76520919799805,0.09936130791903,0.26642245054245,9.96078491210938,1.44769096374512,1.79975867271423,0.75836068391800
679,996669804,1.54804909229279,-0.46687614917755,50.76461410522461,0.10445964336395,0.28710100054741,10.01032638549805,1.26872420310974,1.74274122714996,0.66899251937866
680,996678137,1.54712414741516,-0.46679508686066,50.76452255249023,0.06616935878992,0.25446003675461,9.99582004547119,1.19521141052246,1.81517827510834,0.75692623853683
681,996686470,1.54676246643066,-0.46673473715782,50.76368713378906,0.07265356928110,0.26421403884888,9.99860668182373,1.26060450077057,1.81087505817413,0.69819277524948
682,996694803,1.54572558403015,-0.46686413884163,50.76354980468750,0.08172965794802,0.30296763777733,9.98815059661865,1.18184089660645,1.78971779346466,0.75131678581238
683,996703136,1.54530322551727,-0.46706584095955,50.76410293579102,0.05745835229754,0.26510676741600,10.00395488739014,1.25455951690674,1.78241765499115,0.81996285915375
684,996711469,1.54556035995483,-0.46783113479614,50.76316833496094,0.05479116365314,0.27021774649620,10.02019596099854,1.33675563335419,1.71208107471466,0.65595495700836
685,996719802,1.54530680179596,-0.46846118569374,50.76303863525391,0.04689334332943,0.28271204233170,10.00280666351318,1.27379572391510,1.72821807861328,0.73384779691696
686,996728135,1.54560065269470,-0.46832343935966,50.76328659057617,0.05068319290876,0.25942039489746,9.99905586242676,1.34277522563934,1.82296514511108,0.79614174365997
687,996736468,1.54650843143463,-0.46997535228729,50.76328659057617,0.04698976874352,0.27574074268341,10.00879192352295,1.41218960285187,1.60685789585114,0.75769472122192
688,996744801,1.54647552967072,-0.46891671419144,50.76396942138672,0.02693540044129,0.31149885058403,9.98284912109375,1.30443048477173,1.93512988090515,0.84339988231659
689,996753134,1.54569137096405,-0.46779447793961,50.76436614990234,0.05421383678913,0.29516473412514,9.99786949157715,1.21042633056641,1.94176411628723,0.80648988485336
690,996761467,1.54590666294098,-0.46789816021919,50.76424026489258,0.06332512199879,0.26792296767235,10.00032234191895,1.33219623565674,1.79325234889984,0.75241810083389
691,996769800,1.54594123363495,-0.46803861856461,50.76439285278320,0.06603074073792,0.29733034968376,10.00419521331787,1.30865669250488,1.78715634346008,0.73779237270355
692,996778133,1.54608631134033,-0.46722480654716,50.76377487182617,0.04469396546483,0.29936471581459,10.00586128234863,1.32328271865845,1.90160083770752,0.68922781944275
693,996786466,1.54596149921417,-0.46698296070099,50.76374053955078,0.05671969428658,0.26855599880219,10.00329113006592,1.28926694393158,1.83349263668060,0.76350915431976
694,996794799,1.54637312889099,-0.46688538789749,50.76296234130859,0.06831482797861,0.28309154510498,9.99303913116455,1.35478806495667,1.81563949584961,0.67101615667343
695,996803132,1.54615426063538,-0.46703729033470,50.76356124877930,0.05625707656145,0.30354386568069,9.99483966827393,1.27789437770844,1.78874456882477,0.81097245216370
696,996811465,1.54660868644714,-0.46727153658867,50.76348876953125,0.05820562690496,0.27207678556442,10.02945423126221,1.36244678497314,1.77767932415009,0.75818139314651
697,996819798,1.54682886600494,-0.46666911244392,50.76379776000977,0.08773253113031,0.27057406306267,9.99509716033936,1.33040332794189,1.87683200836182,0.74990803003311
698,996828131,1.54669833183289,-0.46676012873650,50.76419830322266,0.08331147581339,0.27183112502098,9.98591804504395,1.29113674163818,1.79724836349487,0.81350809335709
699,996836464,1.54663181304932,-0.46724566817284,50.76444244384766,0.07194104045630,0.27842471003532,10.02342510223389,1.29692554473877,1.74627602100372,0.80023992061615
700,996844797,1.54710805416107,-0.46709325909615,50.76465606689453,0.08019301295280,0.27231290936470,9.99598979949951,1.36334323883057,1.82621800899506,0.79012233018875
701,996853130,1.54746544361115,-0.46750670671463,50.76514434814453,0.09031609445810,0.30464118719101,9.99273967742920,1.34853816032410,1.75577890872955,0.80894869565964
702,996861463,1.54731082916260,-0.46645283699036,50.76482391357422,0.10876316577196,0.27087789773941,10.01130962371826,1.28688478469849,1.93267095088959,0.72590750455856
703,996869796,1.54727125167847,-0.46630251407623,50.76522827148438,0.10120697319508,0.28029066324234,9.99841022491455,1.30053710937500,1.82222211360931,0.77490741014481
704,996878129,1.54698967933655,-0.46678090095520,50.76545333862305,0.10264391452074,0.28733885288239,9.99101066589355,1.27338600158691,1.74958038330078,0.79585987329483
705,996886462,1.54666292667389,-0.46693655848503,50.76636505126953,0.11398371309042,0.26660603284836,9.99931430816650,1.26529204845428,1.78958988189697,0.86058712005615
706,996894795,1.54660749435425,-0.46682807803154,50.76631164550781,0.10426050424576,0.25781598687172,9.99888420104980,1.30058836936951,1.81881582736969,0.75828379392624
