sep=,
DeviceTag:,left leg
FirmwareVersion:,2.2.1
AppVersion:,2023.6.0
StartTime: ,2025-03-06_12:21:16_000 PST
© Movella Technologies B. V. 2005-2025

PacketCounter,SampleTimeFine,Euler_X,Euler_Y,Euler_Z,Acc_X,Acc_Y,Acc_Z,Gyr_X,Gyr_Y,Gyr_Z
0,699798346,1.53828823566437,-0.52207064628601,50.93222427368164,0.00000000000000,0.00000000000000,0.00000000000000,0.00000000000000,0.00000000000000,0.00000000000000
1,699806679,1.54076766967773,-0.52670902013779,50.90295028686523,0.08664281666279,0.31242284178734,9.99867630004883,1.36034643650055,1.95451986789703,0.69435065984726
2,699815012,1.54049038887024,-0.52644973993301,50.90291595458984,0.12417896091938,0.26921546459198,9.99425125122070,1.26685452461243,1.83326184749603,0.79685884714127
3,699823345,1.54065239429474,-0.52587503194809,50.90247344970703,0.14091201126575,0.27679535746574,9.99647045135498,1.32246303558350,1.87240076065063,0.71840250492096
4,699831678,1.54080843925476,-0.52487295866013,50.90154647827148,0.17792941629887,0.28690439462662,9.99444389343262,1.31680226325989,1.91871094703674,0.66607254743576
5,699840011,1.54031264781952,-0.52570885419846,50.90143203735352,0.19624145328999,0.27786514163017,9.99287128448486,1.24377608299255,1.70475554466248,0.76099890470505
6,699848344,1.54045283794403,-0.52571964263916,50.90212249755859,0.19566766917706,0.26289990544319,9.99315929412842,1.31841599941254,1.80060398578644,0.82772403955460
7,699856677,1.54022252559662,-0.52500456571579,50.90196609497070,0.20699700713158,0.29820349812508,10.00559043884277,1.27461552619934,1.89150869846344,0.74993360042572
8,699865010,1.54024446010590,-0.52537781000137,50.90232086181641,0.20836068689823,0.29997164011002,10.01867771148682,1.30391824245453,1.75649607181549,0.81873339414597
9,699873343,1.54041194915771,-0.52566611766815,50.90217208862305,0.20522859692574,0.29670637845993,9.98191928863525,1.32274484634399,1.77091693878174,0.75833499431610
10,699881676,1.54103112220764,-0.52522277832031,50.90200042724609,0.18564902245998,0.28094664216042,9.99623966217041,1.37407565116882,1.85385572910309,0.76860630512238
11,699890009,1.54103791713715,-0.52496027946472,50.90291976928711,0.19950790703297,0.29091805219650,9.98864936828613,1.30571115016937,1.83969116210938,0.88251280784607
12,699898342,1.54088366031647,-0.52448982000351,50.90270233154297,0.17742179334164,0.27590143680573,9.98985958099365,1.28032767772675,1.85864579677582,0.77585518360138
13,699906675,1.54117870330811,-0.52391207218170,50.90328598022461,0.15225397050381,0.28755277395248,9.99792957305908,1.33936858177185,1.87652468681335,0.84068489074707
14,699915008,1.54091060161591,-0.52394461631775,50.90270614624023,0.14249418675900,0.26961475610733,9.98194980621338,1.26823770999908,1.79509687423706,0.72339719533920
15,699923341,1.54056143760681,-0.52479863166809,50.90283966064453,0.09941297024488,0.25485196709633,10.00858974456787,1.26137292385101,1.70334637165070,0.79060894250870
16,699931674,1.54054152965546,-0.52498102188110,50.90212631225586,0.08207798004150,0.30094009637833,10.01099395751953,1.29718172550201,1.77919054031372,0.75175219774246
17,699940007,1.54041075706482,-0.52494823932648,50.90214157104492,0.05350628495216,0.28729841113091,9.97530651092529,1.28811419010162,1.80921018123627,0.77498430013657
18,699948340,1.53966796398163,-0.52506953477859,50.90156173706055,0.03310731053352,0.26175066828728,9.98405361175537,1.21006762981415,1.78574752807617,0.73720324039459
19,699956673,1.53941845893860,-0.52457112073898,50.90157699584961,0.00255957129411,0.27211457490921,9.98143100738525,1.27392399311066,1.86563849449158,0.77065545320511
20,699965006,1.53849029541016,-0.52354598045349,50.90158081054688,-0.01547370851040,0.28595393896103,10.02047538757324,1.18819320201874,1.92416703701019,0.77073240280151
21,699973339,1.53822410106659,-0.52349680662155,50.90176773071289,-0.03895172104239,0.23972806334496,9.99770832061768,1.27190053462982,1.81108021736145,0.79511713981628
22,699981672,1.53845703601837,-0.52286821603775,50.90177917480469,-0.04857042804360,0.27985069155693,10.00012969970703,1.32768809795380,1.87770295143127,0.77913385629654
23,699990005,1.53843212127686,-0.52261352539062,50.90089416503906,-0.04854300618172,0.29705896973610,10.02184200286865,1.29956376552582,1.83280086517334,0.66689217090607
24,699998338,1.53800737857819,-0.52232551574707,50.90097808837891,-0.04794998094440,0.24890601634979,10.01628780364990,1.24918055534363,1.83508038520813,0.77208983898163
25,700006671,1.53877544403076,-0.52249795198441,50.90086364746094,-0.03965960815549,0.25885105133057,10.02015113830566,1.39410603046417,1.78487694263458,0.75976949930191
26,700015004,1.53868806362152,-0.52258515357971,50.90084457397461,-0.02121840417385,0.30094748735428,9.98890495300293,1.28990721702576,1.79102420806885,0.78251481056213
27,700023337,1.53842139244080,-0.52272009849548,50.90042877197266,-0.02364753372967,0.27392438054085,10.00749874114990,1.27131116390228,1.78725886344910,0.72283369302750
28,700031670,1.53932154178619,-0.52265280485153,50.89992904663086,-0.00493519613519,0.25851976871490,9.99882030487061,1.40804016590118,1.80826270580292,0.73546159267426
29,700040003,1.54016482830048,-0.52216213941574,50.89986419677734,0.01331085618585,0.28478515148163,9.99824047088623,1.40383946895599,1.86479318141937,0.76299685239792
30,700048336,1.53994476795197,-0.52265816926956,50.90008163452148,0.03085098043084,0.27828416228294,10.00576686859131,1.27328348159790,1.74179339408875,0.80469679832458
31,700056669,1.54051017761230,-0.52251440286636,50.89944839477539,0.05563431978226,0.27378979325294,10.00917625427246,1.37025904655457,1.82091581821442,0.69453001022339
32,700065002,1.54139387607574,-0.52272671461105,50.89925003051758,0.09593129158020,0.30934509634972,10.01579952239990,1.40745103359222,1.77373468875885,0.73374539613724
33,700073335,1.54146432876587,-0.52209323644638,50.89896392822266,0.12684944272041,0.26851463317871,9.99715614318848,1.31068038940430,1.88080191612244,0.73635798692703
34,700081668,1.54200065135956,-0.52227306365967,50.89859008789062,0.12795807421207,0.26502174139023,10.00465011596680,1.36370193958282,1.77878057956696,0.74235177040100
35,700090001,1.54217934608459,-0.52348554134369,50.89907455444336,0.14053267240524,0.29107326269150,10.00327491760254,1.32602334022522,1.66203105449677,0.83497285842896
36,700098334,1.54286062717438,-0.52292901277542,50.89896011352539,0.15278908610344,0.28351664543152,9.98549079895020,1.38135015964508,1.86717545986176,0.76876002550125
37,700106667,1.54251778125763,-0.52290076017380,50.89878845214844,0.20000717043877,0.26930290460587,10.01631259918213,1.26127064228058,1.80923604965210,0.75170093774796
38,700115000,1.54298436641693,-0.52260416746140,50.89873504638672,0.20413726568222,0.32010018825531,9.98648071289062,1.35604321956635,1.83625900745392,0.78817564249039
39,700123333,1.54296469688416,-0.52187818288803,50.89865875244141,0.19796296954155,0.28621119260788,9.98324394226074,1.30030655860901,1.89273834228516,0.76066595315933
40,700131666,1.54228925704956,-0.52149683237076,50.89867401123047,0.20995120704174,0.27877488732338,10.00072288513184,1.22039020061493,1.84571051597595,0.76238203048706
41,700139999,1.54231488704681,-0.52155554294586,50.89888000488281,0.18582707643509,0.28734800219536,10.00620937347412,1.30525004863739,1.79986095428467,0.79875427484512
42,700148332,1.54166400432587,-0.52155852317810,50.89855575561523,0.19369448721409,0.30945119261742,9.98526000976562,1.22195279598236,1.79847800731659,0.72124564647675
43,700156665,1.54122078418732,-0.52100539207458,50.89938735961914,0.18342991173267,0.27093720436096,10.00016880035400,1.25133228302002,1.87444984912872,0.87075597047806
44,700164998,1.54150402545929,-0.52130246162415,50.89936447143555,0.15869008004665,0.28124931454659,10.00885772705078,1.33437347412109,1.76763820648193,0.81904083490372
45,700173331,1.54052674770355,-0.52144205570221,50.89955520629883,0.14121870696545,0.29850476980209,9.99445343017578,1.18593907356262,1.78966653347015,0.79457920789719
46,700181664,1.54019260406494,-0.52188163995743,50.89993667602539,0.12043992429972,0.26240438222885,10.00022983551025,1.25991296768188,1.74896550178528,0.80533713102341
47,700189997,1.54047429561615,-0.52185070514679,50.89962387084961,0.10154261440039,0.26703605055809,9.98775291442871,1.33614099025726,1.80821132659912,0.73597377538681
48,700198330,1.54044854640961,-0.52058774232864,50.90037155151367,0.09062431007624,0.28843697905540,10.01585578918457,1.29812943935394,1.95621037483215,0.87918299436569
49,700206663,1.53961670398712,-0.52150994539261,50.90089416503906,0.05325117334723,0.27192473411560,9.98005676269531,1.20394587516785,1.69684076309204,0.83832836151123
50,700214996,1.54017305374146,-0.52198320627213,50.90162658691406,0.01274666842073,0.27256605029106,9.99291801452637,1.36728775501251,1.74691641330719,0.86588919162750
51,700223329,1.53978228569031,-0.52220630645752,50.90224456787109,0.00370931741782,0.29996129870415,10.02246570587158,1.25686490535736,1.78075277805328,0.84619182348251
52,700231662,1.53941869735718,-0.52183562517166,50.90193176269531,-0.03920089080930,0.25468653440475,10.02095413208008,1.25581467151642,1.84376394748688,0.72526705265045
53,700239995,1.54009628295898,-0.52120405435562,50.90208053588867,-0.01440852973610,0.25533860921860,9.99489879608154,1.38457751274109,1.88239037990570,0.78768897056580
54,700248328,1.54042816162109,-0.51931649446487,50.90174102783203,-0.01417748536915,0.28322032094002,9.99252414703369,1.34054672718048,2.02654719352722,0.76066595315933
55,700256661,1.54050207138062,-0.51842701435089,50.90153503417969,-0.04264207929373,0.25745162367821,9.98157024383545,1.31216609477997,1.91128313541412,0.74342757463455
56,700264994,1.53982782363892,-0.51923364400864,50.90179824829102,-0.04242273047566,0.27369830012321,10.02044868469238,1.21826410293579,1.70577991008759,0.80221217870712
57,700273327,1.54048085212708,-0.51884889602661,50.90179061889648,-0.02826178632677,0.28966870903969,10.02422714233398,1.38181102275848,1.85162734985352,0.77065545320511
58,700281660,1.54116010665894,-0.51952415704727,50.90248489379883,-0.04217072576284,0.25577020645142,9.98656845092773,1.38263082504272,1.72176313400269,0.86944955587387
59,700289993,1.54107558727264,-0.52031743526459,50.90175247192383,-0.02177239209414,0.25827577710152,9.97767257690430,1.29254567623138,1.70764994621277,0.68907415866852
60,700298326,1.54106605052948,-0.52068066596985,50.90065002441406,0.00100096839014,0.30048015713692,9.97997379302979,1.29820621013641,1.75536906719208,0.69237834215164
61,700306659,1.54128479957581,-0.52131891250610,50.90126800537109,0.03143553808331,0.27298420667648,9.99006652832031,1.32966053485870,1.73106122016907,0.84975224733353
62,700314992,1.54115867614746,-0.52117133140564,50.90093994140625,0.06211020797491,0.25609678030014,10.00315570831299,1.28383660316467,1.81763732433319,0.73505175113678
63,700323325,1.54143631458282,-0.52201306819916,50.90047454833984,0.07727760821581,0.31513845920563,10.01228904724121,1.33662784099579,1.70293688774109,0.71865862607956
64,700331658,1.54161357879639,-0.52235132455826,50.90061569213867,0.08182691782713,0.26091930270195,9.99429416656494,1.32105422019958,1.76082515716553,0.78876483440399
65,700339991,1.54178249835968,-0.52245134115219,50.90119552612305,0.13822577893734,0.27716699242592,9.99688339233398,1.32461440563202,1.79519939422607,0.84327179193497
66,700348324,1.54282116889954,-0.52312624454498,50.90125274658203,0.13820207118988,0.30644503235817,10.03951549530029,1.42348551750183,1.71902251243591,0.75521010160446
67,700356657,1.54364645481110,-0.52304244041443,50.90157699584961,0.18139347434044,0.29290312528610,10.00109386444092,1.40294289588928,1.81656157970428,0.81138217449188
68,700364990,1.54349827766418,-0.52380764484406,50.90092468261719,0.18096137046814,0.27639096975327,9.99019908905029,1.28183853626251,1.70770096778870,0.72803342342377
69,700373323,1.54372549057007,-0.52404201030731,50.90076828002930,0.19077378511429,0.29373952746391,9.99887084960938,1.33030080795288,1.77729487419128,0.75372445583344
70,700381656,1.54316413402557,-0.52359414100647,50.90056991577148,0.20633977651596,0.26384529471397,10.00576591491699,1.23306941986084,1.85196053981781,0.74583536386490
71,700389989,1.54361057281494,-0.52328491210938,50.90087509155273,0.19120439887047,0.26298147439957,9.97375297546387,1.35647881031036,1.84448134899139,0.80759125947952
72,700398322,1.54366874694824,-0.52293121814728,50.90102386474609,0.20004457235336,0.30587771534920,10.00049495697021,1.30796539783478,1.84442985057831,0.78902095556259
73,700406655,1.54332745075226,-0.52317112684250,50.90114593505859,0.17317777872086,0.32256689667702,10.00956630706787,1.26255118846893,1.77683377265930,0.78830361366272
74,700414988,1.54272043704987,-0.52356994152069,50.90130615234375,0.17562122642994,0.28010773658752,9.97904300689697,1.22687065601349,1.75388348102570,0.78761214017868
75,700423321,1.54329490661621,-0.52353841066360,50.90114593505859,0.16202482581139,0.28628718852997,10.01235008239746,1.37166810035706,1.80946660041809,0.75375020503998
76,700431654,1.54262912273407,-0.52430981397629,50.90187454223633,0.15899176895618,0.27766567468643,10.00939083099365,1.22046697139740,1.71100521087646,0.86617094278336
77,700439987,1.54209136962891,-0.52492189407349,50.90196990966797,0.12037114799023,0.27782410383224,10.03107070922852,1.23926782608032,1.73218834400177,0.78832936286926
78,700448320,1.54254603385925,-0.52374571561813,50.90226364135742,0.11563884466887,0.28660303354263,10.03325366973877,1.35466015338898,1.94358265399933,0.80892324447632
79,700456653,1.54254460334778,-0.52434480190277,50.90313339233398,0.06681736558676,0.29400002956390,10.00375175476074,1.30363643169403,1.73690128326416,0.87931114435196
80,700464986,1.54252123832703,-0.52469944953918,50.90326690673828,0.04281904175878,0.26147481799126,10.00943851470947,1.29605472087860,1.75939071178436,0.78922587633133
81,700473319,1.54276251792908,-0.52524214982986,50.90339660644531,0.01368446834385,0.28551939129829,10.02878856658936,1.33291351795197,1.74123001098633,0.78894400596619
82,700481652,1.54275345802307,-0.52565014362335,50.90444946289062,0.02297928184271,0.26360338926315,10.00346469879150,1.30010175704956,1.75580453872681,0.90702563524246
83,700489985,1.54286670684814,-0.52480638027191,50.90518951416016,0.00091830070596,0.25455155968666,9.99938678741455,1.31833910942078,1.90859353542328,0.85935765504837
84,700498318,1.54275429248810,-0.52542865276337,50.90588378906250,-0.01241351850331,0.27680182456970,10.00999736785889,1.28580892086029,1.72765445709229,0.81494247913361
85,700506651,1.54304277896881,-0.52597880363464,50.90569305419922,-0.05006881803274,0.29791575670242,10.00220489501953,1.33854866027832,1.73905289173126,0.75126546621323
86,700514984,1.54246056079865,-0.52589541673660,50.90584564208984,-0.04826814308763,0.23966634273529,9.99438095092773,1.22984182834625,1.81238639354706,0.81284207105637
87,700523317,1.54223918914795,-0.52709776163101,50.90526580810547,-0.03245388716459,0.27348846197128,9.99353981018066,1.27692079544067,1.65926444530487,0.70831048488617
88,700531650,1.54252636432648,-0.52691113948822,50.90559005737305,-0.04190047830343,0.29732137918472,9.97869777679443,1.33429694175720,1.82465577125549,0.80362099409103
89,700539983,1.54115343093872,-0.52751904726028,50.90563583374023,-0.01531394664198,0.27386248111725,10.00946044921875,1.13880884647369,1.73244452476501,0.78056824207306
90,700548316,1.54177653789520,-0.52938801050186,50.90485382080078,-0.00618867017329,0.27052471041679,9.97862720489502,1.37297427654266,1.57404613494873,0.68267065286636
91,700556649,1.54156327247620,-0.53037530183792,50.90455627441406,0.01360826846212,0.28730940818787,9.97680187225342,1.27704906463623,1.68659508228302,0.74055880308151
92,700564982,1.54173910617828,-0.53127264976501,50.90475463867188,0.01080755051225,0.26660630106926,9.99882698059082,1.32179713249207,1.69348526000977,0.80454319715500
93,700573315,1.54224777221680,-0.53053057193756,50.90444946289062,0.03828623145819,0.27129471302032,9.99837398529053,1.36362504959106,1.89447999000549,0.73287457227707
94,700581648,1.54222571849823,-0.53008234500885,50.90430831909180,0.05133331567049,0.30723044276237,10.00642585754395,1.29697680473328,1.85413742065430,0.75728487968445
95,700589981,1.54247856140137,-0.52934366464615,50.90353012084961,0.07196055352688,0.27335232496262,9.99985885620117,1.33293902873993,1.89135515689850,0.67765015363693
96,700598314,1.54297506809235,-0.52942782640457,50.90323638916016,0.10979384928942,0.28688389062881,10.00096035003662,1.35957801342010,1.78884685039520,0.73318183422089
97,700606647,1.54337048530579,-0.52825033664703,50.90362548828125,0.13815292716026,0.30010664463043,10.01093196868896,1.35135591030121,1.94891035556793,0.81371307373047
98,700614980,1.54341256618500,-0.52881985902786,50.90299987792969,0.15697027742863,0.28336653113365,9.98903083801270,1.30402064323425,1.73124051094055,0.71776211261749
99,700623313,1.54355132579803,-0.52976447343826,50.90333938598633,0.18790979683399,0.25385090708733,9.98830795288086,1.32054197788239,1.69345963001251,0.81655621528625
100,700631646,1.54338181018829,-0.52844828367233,50.90269851684570,0.20097477734089,0.28416049480438,10.01380348205566,1.27809917926788,1.95659482479095,0.69760370254517
101,700639979,1.54273116588593,-0.52799624204636,50.90251922607422,0.18470644950867,0.29153519868851,10.02318572998047,1.22477018833160,1.85941398143768,0.75003606081009
102,700648312,1.54269254207611,-0.52823549509048,50.90333938598633,0.18288221955299,0.27342158555984,10.01490783691406,1.29654145240784,1.77432382106781,0.84583336114883
103,700656645,1.54368746280670,-0.52797722816467,50.90351486206055,0.19255927205086,0.29746273159981,9.99711036682129,1.42225599288940,1.83720648288727,0.79404127597809
104,700664978,1.54347217082977,-0.52817207574844,50.90359115600586,0.18710578978062,0.29040992259979,9.98672485351562,1.27515363693237,1.77878057956696,0.80395406484604
105,700673311,1.54280304908752,-0.52815991640091,50.90342330932617,0.18830186128616,0.27394789457321,10.01371765136719,1.22215771675110,1.80695629119873,0.75159853696823
106,700681644,1.54256308078766,-0.52880936861038,50.90330886840820,0.16349068284035,0.29119369387627,9.99955177307129,1.27120876312256,1.72189128398895,0.75157284736633
107,700689977,1.54193246364594,-0.52860313653946,50.90316772460938,0.16823250055313,0.29974463582039,10.02239513397217,1.22799766063690,1.82982969284058,0.75364762544632
108,700698310,1.54117906093597,-0.52817159891129,50.90356826782227,0.15090122818947,0.27712577581406,9.96971416473389,1.21283388137817,1.85926055908203,0.81996285915375
109,700706643,1.54161918163300,-0.52925235033035,50.90328979492188,0.09264279901981,0.28296956419945,10.01836967468262,1.35230362415314,1.67145693302155,0.76076835393906
110,700714976,1.54189538955688,-0.52918303012848,50.90359878540039,0.08094297349453,0.29001706838608,10.00973606109619,1.33329772949219,1.81128489971161,0.82152527570724
111,700723309,1.54175388813019,-0.52867519855499,50.90387344360352,0.06942115724087,0.25461736321449,9.99207878112793,1.28639817237854,1.86699593067169,0.80531156063080
112,700731642,1.54149246215820,-0.52912408113480,50.90451812744141,0.04346760362387,0.26918983459473,9.98121452331543,1.26933896541595,1.74832510948181,0.83379453420639
113,700739975,1.54089367389679,-0.52894866466522,50.90464401245117,0.02688953839242,0.27857041358948,9.98302841186523,1.23089218139648,1.82852363586426,0.78505074977875
114,700748308,1.54043066501617,-0.52813917398453,50.90501022338867,-0.00093956396449,0.25734606385231,9.98002529144287,1.24436521530151,1.89927005767822,0.81842601299286
115,700756641,1.54080045223236,-0.52714771032333,50.90464019775391,-0.02200696244836,0.26183652877808,9.99831867218018,1.34705269336700,1.92280948162079,0.72495967149734
116,700764974,1.54037320613861,-0.52728593349457,50.90507888793945,-0.04012992978096,0.29326912760735,9.99674510955811,1.24848914146423,1.78633666038513,0.81686359643936
117,700773307,1.54009854793549,-0.52814179658890,50.90555572509766,-0.04333590343595,0.24279277026653,10.02412986755371,1.27200293540955,1.70373070240021,0.83138674497604
118,700781640,1.53981590270996,-0.52720808982849,50.90589904785156,-0.03271584212780,0.27095344662666,9.98318099975586,1.26557362079620,1.91435670852661,0.80887186527252
119,700789973,1.54035854339600,-0.52712690830231,50.90578842163086,-0.03980645164847,0.29117056727409,10.01670646667480,1.36767196655273,1.81538319587708,0.76069152355194
120,700798306,1.54003059864044,-0.52793776988983,50.90591430664062,-0.03456614911556,0.23859585821629,10.02802848815918,1.26093745231628,1.70416629314423,0.76842701435089
121,700806639,1.54005670547485,-0.52767038345337,50.90572738647461,-0.02455596998334,0.28093206882477,9.98156929016113,1.30619788169861,1.83674561977386,0.74993360042572
122,700814972,1.53994870185852,-0.52750539779663,50.90571594238281,0.00326830567792,0.29480010271072,10.00800991058350,1.28737139701843,1.82135128974915,0.77367794513702
123,700823305,1.53986597061157,-0.52790743112564,50.90529632568359,0.02905594557524,0.25623136758804,10.01357936859131,1.29285275936127,1.75577890872955,0.72370457649231
124,700831638,1.54021561145782,-0.52814394235611,50.90486145019531,0.03289589658380,0.27486354112625,9.99745655059814,1.34192979335785,1.77176213264465,0.75605535507202
125,700839971,1.54050385951996,-0.52801531553268,50.90428543090820,0.06243951618671,0.32129189372063,9.97344493865967,1.33637142181396,1.81996822357178,0.70308512449265
126,700848304,1.54041540622711,-0.52905756235123,50.90394210815430,0.09504476189613,0.27324220538139,9.98538208007812,1.28860092163086,1.67335224151611,0.71491891145706
127,700856637,1.54038393497467,-0.52970337867737,50.90379714965820,0.11605006456375,0.23217354714870,9.99346542358398,1.29992222785950,1.72791051864624,0.75546616315842
128,700864970,1.54078018665314,-0.53008157014847,50.90345001220703,0.13293154537678,0.30994150042534,10.02606201171875,1.34738540649414,1.75503611564636,0.76317608356476
129,700873303,1.54058170318604,-0.52917855978012,50.90298080444336,0.12190689891577,0.30897095799446,10.00708007812500,1.27871394157410,1.91235888004303,0.71284419298172
130,700881636,1.54099774360657,-0.52912795543671,50.90206146240234,0.15638884902000,0.25544065237045,10.00134468078613,1.34951162338257,1.80296039581299,0.67539608478546
131,700889969,1.54156982898712,-0.52967560291290,50.90212631225586,0.19596374034882,0.27601841092110,9.99922847747803,1.37079715728760,1.74087154865265,0.78248929977417
132,700898302,1.54094457626343,-0.52916568517685,50.90244674682617,0.19646102190018,0.29762023687363,10.01242828369141,1.22630715370178,1.86284637451172,0.80121320486069
133,700906635,1.54004025459290,-0.52952569723129,50.90246200561523,0.20992334187031,0.26293948292732,9.97176837921143,1.19508349895477,1.76213145256042,0.77606016397476
134,700914968,1.54005229473114,-0.53005814552307,50.90245437622070,0.20453770458698,0.29594236612320,10.01136779785156,1.30030643939972,1.73782324790955,0.76627534627914
135,700923301,1.54003858566284,-0.52958238124847,50.90277862548828,0.20414274930954,0.29776149988174,9.99912357330322,1.30168998241425,1.86341011524200,0.81102359294891
136,700931634,1.54017066955566,-0.53019958734512,50.90274810791016,0.18389411270618,0.25712102651596,10.03324222564697,1.31582880020142,1.72637379169464,0.75541502237320
137,700939967,1.54003751277924,-0.53008574247360,50.90370559692383,0.16198626160622,0.30239942669868,10.01278018951416,1.28926694393158,1.82132589817047,0.88671356439590
138,700948300,1.53961002826691,-0.53071624040604,50.90397262573242,0.16537524759769,0.30912357568741,10.01764106750488,1.24710583686829,1.72711658477783,0.79826754331589
139,700956633,1.53926527500153,-0.53042024374008,50.90361022949219,0.15555694699287,0.25115773081779,9.99131774902344,1.26178276538849,1.84051084518433,0.72616350650787
140,700964966,1.54005360603333,-0.53067493438721,50.90437698364258,0.12972298264503,0.28914120793343,10.00135040283203,1.39589905738831,1.77127575874329,0.83463984727859
141,700973299,1.53960931301117,-0.53069859743118,50.90547943115234,0.10941211134195,0.30992522835732,10.00901126861572,1.25061511993408,1.80703306198120,0.90431052446365
142,700981632,1.53940904140472,-0.53080493211746,50.90621185302734,0.07234592735767,0.26269051432610,10.02240562438965,1.27661335468292,1.78982043266296,0.84972661733627
143,700989965,1.53942501544952,-0.53112435340881,50.90588760375977,0.03680406883359,0.26653769612312,9.99833774566650,1.30507099628448,1.76587116718292,0.73412960767746
144,700998298,1.53980791568756,-0.53025752305984,50.90598678588867,0.02185004390776,0.30730086565018,9.99618721008301,1.34579741954803,1.90480256080627,0.75631147623062
145,701006631,1.53954410552979,-0.53001767396927,50.90684127807617,-0.00329359993339,0.25910818576813,9.99767684936523,1.27197742462158,1.83761656284332,0.87536656856537
146,701014964,1.53906595706940,-0.52953070402145,50.90707397460938,-0.01832270622253,0.28210577368736,9.98401737213135,1.24313557147980,1.85984945297241,0.75626021623611
147,701023297,1.53884398937225,-0.53019803762436,50.90709686279297,-0.01592062413692,0.28635162115097,9.98154640197754,1.27689516544342,1.72501599788666,0.77887761592865
148,701031630,1.53935742378235,-0.53054207563400,50.90718841552734,-0.03108269721270,0.25765344500542,10.06283283233643,1.36067938804626,1.76018464565277,0.76140880584717
149,701039963,1.53947842121124,-0.53111273050308,50.90688705444336,-0.03047515451908,0.26539722084999,9.99291324615479,1.31792914867401,1.73587656021118,0.73840719461441
150,701048296,1.53926265239716,-0.53099757432938,50.90717697143555,-0.03941799327731,0.30596393346786,9.98349666595459,1.27453887462616,1.81561374664307,0.80751430988312
151,701056629,1.53946709632874,-0.53159993886948,50.90725326538086,-0.04225163161755,0.26656147837639,9.98449134826660,1.32758569717407,1.73305904865265,0.78464078903198
152,701064962,1.53993678092957,-0.53106462955475,50.90695571899414,-0.03008065372705,0.25732105970383,10.01001834869385,1.35553097724915,1.86566400527954,0.74301779270172
153,701073295,1.53990828990936,-0.53122460842133,50.90651702880859,-0.02751511894166,0.30774798989296,10.02921772003174,1.29915404319763,1.78500473499298,0.72227019071579
154,701081628,1.54037058353424,-0.53159391880035,50.90644454956055,0.01807884685695,0.26308700442314,10.00009441375732,1.35506987571716,1.75603508949280,0.76832455396652
155,701089961,1.54085564613342,-0.53179347515106,50.90663909912109,0.05231067910790,0.24820195138454,9.96759796142578,1.36108922958374,1.78318631649017,0.79619294404984
156,701098294,1.54121375083923,-0.53236538171768,50.90634918212891,0.04837922006845,0.28863701224327,9.99934387207031,1.34359455108643,1.73034393787384,0.73535901308060
157,701106627,1.54101288318634,-0.53328871726990,50.90658950805664,0.06806156039238,0.28215950727463,9.98485660552979,1.27845776081085,1.69694328308105,0.80267333984375
158,701114960,1.54160189628601,-0.53278374671936,50.90705108642578,0.08919940143824,0.23967204988003,9.99836921691895,1.37161672115326,1.86207818984985,0.83543395996094
159,701123293,1.54205608367920,-0.53329157829285,50.90695953369141,0.13346728682518,0.28701651096344,10.00190734863281,1.35693967342377,1.74550759792328,0.76064032316208
160,701131626,1.54159057140350,-0.53359687328339,50.90734481811523,0.14700359106064,0.28475123643875,10.03463077545166,1.24505674839020,1.76538419723511,0.82608467340469
161,701139959,1.54164457321167,-0.53371435403824,50.90769577026367,0.16035574674606,0.28016263246536,10.01578426361084,1.30968141555786,1.79248416423798,0.81601828336716
162,701148292,1.54129779338837,-0.53378432989120,50.90700912475586,0.17206282913685,0.28639796376228,9.99718856811523,1.25753080844879,1.78933346271515,0.68804955482483
163,701156625,1.54056799411774,-0.53349679708481,50.90718460083008,0.19408790767193,0.27760973572731,9.99281692504883,1.21552348136902,1.84117650985718,0.79076266288757
164,701164958,1.54130256175995,-0.53250676393509,50.90772247314453,0.19106790423393,0.26414695382118,9.97138500213623,1.38867557048798,1.92099070549011,0.81245785951614
165,701173291,1.54129230976105,-0.53260409832001,50.90740966796875,0.18243299424648,0.30708184838295,9.99462127685547,1.30222749710083,1.79225361347198,0.73482114076614
166,701181624,1.54148375988007,-0.53194528818130,50.90744781494141,0.18781141936779,0.30071917176247,10.01744556427002,1.32256531715393,1.88052010536194,0.79399001598358
167,701189957,1.54128420352936,-0.53155106306076,50.90837097167969,0.18837383389473,0.25620564818382,10.01572704315186,1.28030204772949,1.85593080520630,0.88215434551239
168,701198290,1.54109358787537,-0.53160530328751,50.90846633911133,0.18794852495193,0.30439835786819,10.02913188934326,1.27699756622314,1.79501986503601,0.76957970857620
169,701206623,1.54061973094940,-0.53227597475052,50.90797424316406,0.18064378201962,0.30610623955727,9.97973346710205,1.24608123302460,1.72296714782715,0.71658378839493
170,701214956,1.54020988941193,-0.53215962648392,50.90833282470703,0.14236962795258,0.23946800827980,9.97604560852051,1.25043570995331,1.81558811664581,0.77536845207214
171,701223289,1.54001915454865,-0.53082960844040,50.90816497802734,0.11588674038649,0.27046811580658,10.02948665618896,1.28027653694153,1.96443259716034,0.74660372734070
172,701231622,1.54022204875946,-0.52989566326141,50.90779495239258,0.09960101544857,0.31133487820625,9.99091148376465,1.32374382019043,1.91215395927429,0.72390955686569
173,701239955,1.54020714759827,-0.52959638834000,50.90790557861328,0.06036521121860,0.26520675420761,9.98451614379883,1.30176663398743,1.84176588058472,0.78482013940811
174,701248288,1.54095399379730,-0.52947241067886,50.90802383422852,0.05863491073251,0.29390507936478,9.99546909332275,1.38859891891479,1.81607496738434,0.76852953433990
175,701256621,1.54042649269104,-0.53003388643265,50.90889358520508,0.03888962417841,0.27689903974533,9.99820232391357,1.24154746532440,1.74030792713165,0.87838888168335
176,701264954,1.54064798355103,-0.53006547689438,50.90895080566406,0.02530269138515,0.24089914560318,9.99964714050293,1.32545995712280,1.79794013500214,0.77109098434448
177,701273287,1.54011082649231,-0.52990555763245,50.90828704833984,0.00177183386404,0.26443639397621,10.02395534515381,1.23870432376862,1.82201719284058,0.69132816791534
178,701281620,1.53978228569031,-0.53052514791489,50.90830612182617,-0.01858374848962,0.31088590621948,10.01518440246582,1.25929832458496,1.72734701633453,0.79076272249222
179,701289953,1.54070425033569,-0.53072118759155,50.90861511230469,-0.04243936017156,0.24728401005268,10.01272010803223,1.41531455516815,1.78254604339600,0.81048566102982
180,701298286,1.54111826419830,-0.53075414896011,50.90866088867188,-0.04054492712021,0.27281397581100,9.99438571929932,1.35317456722260,1.80178236961365,0.77905696630478
181,701306619,1.54144310951233,-0.53116250038147,50.90804672241211,-0.04357010871172,0.30926653742790,9.95642089843750,1.33701169490814,1.75009250640869,0.70669674873352
182,701314952,1.54097890853882,-0.53016769886017,50.90748977661133,-0.04681593552232,0.27063408493996,10.03965663909912,1.24449324607849,1.91876232624054,0.71940147876740
183,701323285,1.54125010967255,-0.52979683876038,50.90766906738281,-0.01772549934685,0.23452287912369,10.01578044891357,1.33555185794830,1.85155069828033,0.79273498058319
184,701331618,1.54154670238495,-0.52926176786423,50.90749359130859,-0.00474860006943,0.28800880908966,9.96524906158447,1.33596169948578,1.86305153369904,0.72600996494293
185,701339951,1.54195296764374,-0.53003197908401,50.90724563598633,0.00283930497244,0.31036514043808,9.98999214172363,1.35004949569702,1.71313118934631,0.74511796236038
186,701348284,1.54268252849579,-0.52973747253418,50.90664291381836,0.01191802229732,0.24540272355080,9.99063301086426,1.38736951351166,1.83515739440918,0.72483158111572
187,701356617,1.54256761074066,-0.53065770864487,50.90638732910156,0.04770063608885,0.26784804463387,10.03788566589355,1.28952300548553,1.69381809234619,0.74537420272827
188,701364950,1.54338014125824,-0.53082239627838,50.90638732910156,0.05891465395689,0.27181836962700,10.00546932220459,1.39733338356018,1.78113698959351,0.74972862005234
189,701373283,1.54436540603638,-0.53071415424347,50.90650177001953,0.07255632430315,0.25957331061363,9.99947834014893,1.42153894901276,1.81822645664215,0.78494822978973
190,701381616,1.54484593868256,-0.53076004981995,50.90636062622070,0.12334082275629,0.29771578311920,10.01783084869385,1.35804104804993,1.79414904117584,0.73843270540237
191,701389949,1.54440402984619,-0.53100121021271,50.90656661987305,0.11840505897999,0.27889302372932,9.98844814300537,1.25035893917084,1.77747416496277,0.79772979021072
192,701398282,1.54404819011688,-0.53123068809509,50.90660095214844,0.15587867796421,0.26883512735367,9.99652957916260,1.25760769844055,1.77539956569672,0.80833405256271
193,701406615,1.54389679431915,-0.53169685602188,50.90623474121094,0.16815495491028,0.28933408856392,10.01256656646729,1.28422081470490,1.74878621101379,0.72969830036163
194,701414948,1.54399573802948,-0.53218340873718,50.90664291381836,0.16949066519737,0.30399289727211,10.00627040863037,1.31231963634491,1.74253630638123,0.78351378440857
195,701423281,1.54387962818146,-0.53262442350388,50.90676498413086,0.17482894659042,0.28179499506950,9.99559307098389,1.28793501853943,1.75370407104492,0.78891837596893
196,701431614,1.54377830028534,-0.53279614448547,50.90661621093750,0.21346801519394,0.29219251871109,10.00758552551270,1.28821671009064,1.77931845188141,0.76448249816895
197,701439947,1.54429697990417,-0.53339749574661,50.90663146972656,0.20923459529877,0.30611538887024,10.00274085998535,1.36633992195129,1.73364818096161,0.77554768323898
198,701448280,1.54420483112335,-0.53321385383606,50.90689468383789,0.19974535703659,0.26146164536476,10.02059841156006,1.28760182857513,1.82427144050598,0.80638724565506
199,701456613,1.54419434070587,-0.53285425901413,50.90671157836914,0.19266740977764,0.26864567399025,9.98069190979004,1.30320096015930,1.84799027442932,0.74867850542068
200,701464946,1.54516255855560,-0.53263181447983,50.90695953369141,0.17266632616520,0.30599093437195,10.00011157989502,1.41531467437744,1.82857489585876,0.80459439754486
201,701473279,1.54474532604218,-0.53341239690781,50.90681076049805,0.15002797544003,0.28931686282158,10.02980041503906,1.25407302379608,1.71108210086823,0.75579917430878
202,701481612,1.54474127292633,-0.53358203172684,50.90656280517578,0.12968499958515,0.25875085592270,10.00369262695312,1.29876971244812,1.78008675575256,0.74619382619858
203,701489945,1.54435884952545,-0.53390491008759,50.90689468383789,0.12397032231092,0.28890419006348,10.00440788269043,1.25722348690033,1.76894485950470,0.81181758642197
204,701498278,1.54369497299194,-0.53328686952591,50.90752410888672,0.11056592315435,0.26455059647560,9.99961566925049,1.22259306907654,1.87616586685181,0.84491109848022
205,701506611,1.54360365867615,-0.53339749574661,50.90741348266602,0.05682142078876,0.28083679080009,10.01531410217285,1.29187941551208,1.79220235347748,0.76153677701950
206,701514944,1.54394137859344,-0.53328722715378,50.90802764892578,0.03029453381896,0.29266518354416,10.00703334808350,1.34075140953064,1.81622838973999,0.84737008810043
207,701523277,1.54393208026886,-0.53269791603088,50.90750885009766,-0.00006472098175,0.27387157082558,9.99374675750732,1.30104947090149,1.87508988380432,0.70836168527603
208,701531610,1.54395234584808,-0.53249955177307,50.90713882446289,-0.00037686218275,0.27460315823555,9.99057674407959,1.30158746242523,1.82334959506989,0.71486771106720
209,701539943,1.54412150382996,-0.53198719024658,50.90729141235352,-0.02379930764437,0.29910746216774,10.00139617919922,1.32374370098114,1.86753404140472,0.78873914480209
210,701548276,1.54417717456818,-0.53222924470901,50.90742492675781,-0.03473628312349,0.27808907628059,10.00389862060547,1.30671024322510,1.77232563495636,0.79058337211609
211,701556609,1.54459345340729,-0.53134238719940,50.90721893310547,-0.02547352202237,0.24985232949257,9.98888206481934,1.35391724109650,1.91148781776428,0.74414473772049
212,701564942,1.54523992538452,-0.53132581710815,50.90731811523438,-0.04177562892437,0.27442744374275,10.01398372650146,1.37666273117065,1.80229461193085,0.76473867893219
213,701573275,1.54470860958099,-0.53077995777130,50.90838241577148,-0.05202145501971,0.27175581455231,9.99574470520020,1.23980593681335,1.87455224990845,0.89854747056961
214,701581608,1.54412996768951,-0.53106665611267,50.90863037109375,-0.03285584598780,0.25431805849075,9.97897243499756,1.23140418529510,1.76743316650391,0.79588544368744
215,701589941,1.54411864280701,-0.53148001432419,50.90844726562500,-0.01657220348716,0.27479535341263,9.98942470550537,1.30253493785858,1.75539469718933,0.75134229660034
216,701598274,1.54446101188660,-0.53202158212662,50.90873718261719,-0.01366212684661,0.27110454440117,9.99570465087891,1.34077715873718,1.73618400096893,0.78325772285461
217,701606607,1.54512357711792,-0.53108787536621,50.90823364257812,0.02563876658678,0.26755172014236,10.00294399261475,1.38214433193207,1.91597056388855,0.71171712875366
218,701614940,1.54554390907288,-0.53056937456131,50.90808486938477,0.04298321530223,0.28057375550270,9.98599910736084,1.35045933723450,1.86294901371002,0.75375014543533
219,701623273,1.54544401168823,-0.53152710199356,50.90858840942383,0.07386048138142,0.27643606066704,10.01753807067871,1.29218685626984,1.69171750545502,0.83820021152496
220,701631606,1.54592955112457,-0.53193831443787,50.90839385986328,0.08198422938585,0.27640432119370,10.00583171844482,1.35809242725372,1.75068163871765,0.75085574388504
221,701639939,1.54644858837128,-0.53189927339554,50.90800094604492,0.10644810646772,0.28413552045822,10.00598335266113,1.36508500576019,1.80885159969330,0.72560006380081
222,701648272,1.54609501361847,-0.53235864639282,50.90804672241211,0.12433100491762,0.29102811217308,9.97548007965088,1.25765872001648,1.74617350101471,0.78120851516724
223,701656605,1.54565072059631,-0.53177541494370,50.90845870971680,0.13105367124081,0.25190791487694,9.96605873107910,1.24976968765259,1.87711381912231,0.81996285915375
224,701664938,1.54604113101959,-0.53123605251312,50.90766143798828,0.16157804429531,0.28741568326950,9.97966957092285,1.34595119953156,1.86261582374573,0.67644631862640
225,701673271,1.54623591899872,-0.53121197223663,50.90708923339844,0.17894589900970,0.30765515565872,10.01408767700195,1.32586956024170,1.80631566047668,0.70518547296524
226,701681604,1.54631745815277,-0.53157716989517,50.90656280517578,0.20301336050034,0.26759496331215,10.00894546508789,1.30886173248291,1.75557398796082,0.71225506067276
227,701689937,1.54695677757263,-0.53174823522568,50.90638351440430,0.20055161416531,0.27504473924637,10.01436519622803,1.38006925582886,1.78446686267853,0.75221323966980
228,701698270,1.54663026332855,-0.53218179941177,50.90624237060547,0.21120509505272,0.30288538336754,10.00689792633057,1.26047646999359,1.74799239635468,0.75715678930283
229,701706603,1.54675877094269,-0.53099238872528,50.90602111816406,0.18604145944118,0.28536990284920,10.00442981719971,1.31890261173248,1.94742488861084,0.74137848615646
230,701714936,1.54661810398102,-0.53071212768555,50.90575027465820,0.18223248422146,0.27021044492722,10.02020931243896,1.28299164772034,1.83354377746582,0.72759801149368
231,701723269,1.54658138751984,-0.53036952018738,50.90617752075195,0.16750361025333,0.28076785802841,10.01491928100586,1.29843676090240,1.84816956520081,0.82229381799698
232,701731602,1.54630875587463,-0.52993911504745,50.90699005126953,0.15346455574036,0.28640884160995,9.97628688812256,1.26764869689941,1.85541856288910,0.87459808588028
233,701739935,1.54616880416870,-0.53051459789276,50.90764236450195,0.13966400921345,0.28682106733322,9.97905635833740,1.28693604469299,1.73920679092407,0.85136604309082
234,701748268,1.54618597030640,-0.52986127138138,50.90772247314453,0.11596937477589,0.29709479212761,10.01682281494141,1.30227899551392,1.87836861610413,0.75267434120178
235,701756601,1.54558587074280,-0.52985185384750,50.90779113769531,0.11189711838961,0.27260997891426,10.01425647735596,1.23043096065521,1.80777585506439,0.77813488245010
236,701764934,1.54484546184540,-0.53006136417389,50.90806579589844,0.07926394045353,0.26347491145134,9.98207950592041,1.21073365211487,1.77752542495728,0.82024466991425
237,701773267,1.54487681388855,-0.52978181838989,50.90785598754883,0.05796311050653,0.29783985018730,10.01102733612061,1.30724811553955,1.83828246593475,0.74696230888367
238,701781600,1.54408860206604,-0.53021377325058,50.90739440917969,0.02955816686153,0.28393000364304,10.00811100006104,1.20489370822906,1.74701893329620,0.71128171682358
239,701789933,1.54411923885345,-0.52985757589340,50.90736770629883,0.00269014318474,0.25670561194420,9.97651004791260,1.30586493015289,1.84898900985718,0.76922106742859
240,701798266,1.54192674160004,-0.52389848232269,50.90107727050781,0.00276911817491,0.29814961552620,9.98890495300293,1.40460777282715,1.96955549716949,0.83653527498245
241,701806599,1.54178249835968,-0.52334517240524,50.90144729614258,-0.00473762396723,0.30241143703461,9.99090576171875,1.28765320777893,1.87132501602173,0.81799060106277
242,701814932,1.54161500930786,-0.52295941114426,50.90187835693359,-0.01749967224896,0.24627652764320,9.97015762329102,1.27917492389679,1.84837448596954,0.79877996444702
243,701823265,1.54092788696289,-0.52227395772934,50.90172195434570,-0.05004334822297,0.26747229695320,9.99349975585938,1.22113299369812,1.88715434074402,0.75198268890381
244,701831598,1.54077959060669,-0.52299177646637,50.90232086181641,-0.06340449303389,0.30288264155388,10.00219726562500,1.28194141387939,1.71769082546234,0.83615112304688
245,701839931,1.54050540924072,-0.52337670326233,50.90173339843750,-0.03890364617109,0.26019600033760,10.00732517242432,1.27074778079987,1.75664997100830,0.70236790180206
246,701848264,1.54044175148010,-0.52402234077454,50.90186309814453,-0.02839774638414,0.29695284366608,9.98603630065918,1.29144406318665,1.72276222705841,0.75054824352264
247,701856597,1.53984677791595,-0.52437931299210,50.90115737915039,-0.00279499916360,0.28745549917221,9.99405193328857,1.23176300525665,1.75997984409332,0.68956083059311
248,701864930,1.53937757015228,-0.52412450313568,50.90071487426758,0.00075980811380,0.27823126316071,9.97369861602783,1.24236726760864,1.82870268821716,0.67088800668716
249,701873263,1.53992938995361,-0.52450567483902,50.90089416503906,0.04322686046362,0.29722303152084,9.96277046203613,1.37054085731506,1.75987708568573,0.79583424329758
250,701881596,1.54066610336304,-0.52480930089951,50.90029907226562,0.04240647703409,0.29621651768684,9.99260997772217,1.38726687431335,1.76251542568207,0.70444262027740
251,701889929,1.54065239429474,-0.52490252256393,50.90040588378906,0.07415582984686,0.25486394762993,9.99656295776367,1.30179214477539,1.79463565349579,0.78633135557175
252,701898262,1.54151213169098,-0.52542179822922,50.90050888061523,0.10922116786242,0.28288388252258,10.00686931610107,1.40314781665802,1.73920655250549,0.78694611787796
253,701906595,1.54190862178802,-0.52505266666412,50.90076828002930,0.12638601660728,0.30702534317970,10.01556968688965,1.35125350952148,1.84983468055725,0.80474805831909
254,701914928,1.54218757152557,-0.52511698007584,50.90121459960938,0.14596930146217,0.25764015316963,9.99803924560547,1.33393824100494,1.79437971115112,0.82554686069489
255,701923261,1.54266309738159,-0.52518421411514,50.90085601806641,0.18160662055016,0.27170515060425,10.00358295440674,1.35952663421631,1.79673635959625,0.72939097881317
256,701931594,1.54200804233551,-0.52415913343430,50.90069961547852,0.17588712275028,0.32025712728500,10.00851917266846,1.22167098522186,1.92283511161804,0.75218772888184
257,701939927,1.54145061969757,-0.52410984039307,50.90015792846680,0.17399948835373,0.28450456261635,9.98722553253174,1.23619413375854,1.80987608432770,0.70733708143234
258,701948260,1.54217696189880,-0.52418106794357,50.89989471435547,0.18661765754223,0.28164133429527,10.02953338623047,1.38631927967072,1.79166448116302,0.74350440502167
259,701956593,1.54257249832153,-0.52331119775772,50.89961624145508,0.19261403381824,0.28599396348000,9.98713493347168,1.35107386112213,1.90872132778168,0.73669093847275
260,701964926,1.54324305057526,-0.52344185113907,50.89927291870117,0.19124826788902,0.30066320300102,9.99951267242432,1.37899363040924,1.78485131263733,0.73179870843887
261,701973259,1.54302155971527,-0.52335840463638,50.89975738525391,0.19679786264896,0.27647480368614,9.99682235717773,1.27784287929535,1.81730413436890,0.82987558841705
262,701981592,1.54301822185516,-0.52435004711151,50.89977645874023,0.18527971208096,0.28756552934647,10.00469970703125,1.29907715320587,1.68195867538452,0.77306318283081
263,701989925,1.54304420948029,-0.52423596382141,50.89970016479492,0.18062973022461,0.28936469554901,10.01278209686279,1.30683839321136,1.81907188892365,0.76268953084946
264,701998258,1.54257321357727,-0.52409124374390,50.89944458007812,0.15369048714638,0.27843990921974,9.99982738494873,1.24410891532898,1.81861066818237,0.78115725517273
265,702006591,1.54274070262909,-0.52394860982895,50.89951705932617,0.12052864581347,0.29752677679062,10.00908279418945,1.32323133945465,1.82206869125366,0.78187459707260
266,702014924,1.54323577880859,-0.52373415231705,50.90002441406250,0.10463517159224,0.27151584625244,9.98137187957764,1.35896325111389,1.82972741127014,0.83248835802078
267,702023257,1.54298162460327,-0.52402418851852,50.89996719360352,0.06663034856319,0.25493413209915,9.99935150146484,1.27279686927795,1.77045583724976,0.76663404703140
268,702031590,1.54325175285339,-0.52398866415024,50.90008926391602,0.05727004632354,0.28553676605225,9.99855327606201,1.33278560638428,1.80613660812378,0.79104453325272
269,702039923,1.54291796684265,-0.52423524856567,50.90081024169922,0.04364949464798,0.29791545867920,10.04809188842773,1.26331973075867,1.77826821804047,0.85905021429062
270,702048256,1.54302883148193,-0.52355414628983,50.90091705322266,0.03112511709332,0.25629192590714,10.00848960876465,1.31388235092163,1.88354289531708,0.78200262784958
271,702056589,1.54395639896393,-0.52376502752304,50.90018844604492,-0.00723589770496,0.26564511656761,10.02871608734131,1.41418743133545,1.77780711650848,0.68477100133896
272,702064922,1.54342961311340,-0.52369213104248,50.89976501464844,-0.00885558407754,0.30208832025528,10.02633190155029,1.23650157451630,1.80833935737610,0.70129215717316
273,702073255,1.54395878314972,-0.52378481626511,50.89990997314453,-0.04765834286809,0.27491545677185,10.00707340240479,1.36608421802521,1.79453337192535,0.79276067018509
274,702081588,1.54463994503021,-0.52348685264587,50.90032577514648,-0.04381379485130,0.24614346027374,9.98735713958740,1.38278448581696,1.83818006515503,0.82160222530365
275,702089921,1.54419684410095,-0.52424442768097,50.90068435668945,-0.03832611069083,0.28357917070389,9.99026966094971,1.25033330917358,1.71584630012512,0.81752949953079
276,702098254,1.54419958591461,-0.52491807937622,50.90077972412109,-0.04643794521689,0.28008458018303,10.02640628814697,1.29966628551483,1.72096943855286,0.78628021478653
277,702106587,1.54432213306427,-0.52378642559052,50.90030670166016,-0.03575938194990,0.25356224179268,10.01110458374023,1.31885135173798,1.93904888629913,0.71432983875275
278,702114920,1.54520392417908,-0.52430027723312,50.89991760253906,-0.01854860410094,0.28621953725815,9.99782657623291,1.40432608127594,1.73810529708862,0.72708564996719
279,702123253,1.54429459571838,-0.52501815557480,50.90003967285156,-0.00185241794679,0.26500955224037,9.98092269897461,1.19518578052521,1.71912491321564,0.78902089595795
280,702131586,1.54456806182861,-0.52465909719467,50.89995574951172,0.00237670494244,0.25390142202377,10.00690364837646,1.33165848255157,1.84450685977936,0.76345795392990
281,702139919,1.54555463790894,-0.52472931146622,50.89974212646484,0.03063620999455,0.28314489126205,9.98718357086182,1.42230737209320,1.79609584808350,0.74668061733246
282,702148252,1.54590284824371,-0.52418833971024,50.89997482299805,0.05681318044662,0.28198820352554,10.00819110870361,1.34190416336060,1.86658608913422,0.80472236871719
283,702156585,1.54558479785919,-0.52552330493927,50.90029144287109,0.08772444725037,0.25355726480484,9.97717285156250,1.26534318923950,1.64640617370605,0.81601828336716
284,702164918,1.54562973976135,-0.52548217773438,50.90067291259766,0.11047971248627,0.31699302792549,10.02455139160156,1.30558311939240,1.80705869197845,0.81776005029678
285,702173251,1.54544138908386,-0.52549862861633,50.90066528320312,0.11882101744413,0.28436046838760,10.01457881927490,1.28027629852295,1.80311405658722,0.77255088090897
286,702181584,1.54553556442261,-0.52474594116211,50.90052032470703,0.14474733173847,0.27126368880272,9.99285316467285,1.31101346015930,1.89112460613251,0.75431364774704
287,702189917,1.54598712921143,-0.52449440956116,50.90023040771484,0.15248778462410,0.29481956362724,9.99773502349854,1.35755455493927,1.83382582664490,0.73784369230270
288,702198250,1.54572284221649,-0.52513808012009,50.90044784545898,0.17256553471088,0.30160516500473,10.01288604736328,1.26921093463898,1.72406852245331,0.80264759063721
289,702206583,1.54544925689697,-0.52656465768814,50.90027236938477,0.17458702623844,0.25134652853012,10.00958633422852,1.26933896541595,1.63477730751038,0.75505638122559
290,702214916,1.54613471031189,-0.52688050270081,50.89992523193359,0.19208671152592,0.29672974348068,9.99949645996094,1.38278436660767,1.76179826259613,0.73482114076614
291,702223249,1.54637324810028,-0.52725005149841,50.89973831176758,0.22913990914822,0.29432201385498,10.00003337860107,1.33158147335052,1.75995397567749,0.75139355659485
292,702231582,1.54587042331696,-0.52728736400604,50.90032577514648,0.18440778553486,0.27450901269913,9.97735023498535,1.24054872989655,1.79865717887878,0.84462934732437
293,702239915,1.54629480838776,-0.52611064910889,50.90069198608398,0.18268102407455,0.27678659558296,9.99876499176025,1.35468578338623,1.94798827171326,0.81268852949142
294,702248248,1.54649102687836,-0.52583837509155,50.90139770507812,0.15359534323215,0.30141580104828,10.00350761413574,1.32323133945465,1.83592605590820,0.82926082611084
295,702256581,1.54616534709930,-0.52624893188477,50.90205001831055,0.13820417225361,0.28894203901291,10.00038242340088,1.26439535617828,1.75913429260254,0.85185253620148
296,702264914,1.54625630378723,-0.52584934234619,50.90171813964844,0.15484793484211,0.25860053300858,9.96293258666992,1.31101346015930,1.84727311134338,0.74360686540604
297,702273247,1.54623889923096,-0.52563714981079,50.90176010131836,0.10866114497185,0.28906252980232,10.01209354400635,1.30133128166199,1.83167409896851,0.77595764398575
298,702281580,1.54588711261749,-0.52569591999054,50.90184402465820,0.09583633393049,0.26903462409973,10.00311660766602,1.25747954845428,1.79443073272705,0.78433340787888
299,702289913,1.54537808895111,-0.52578455209732,50.90181350708008,0.08322048187256,0.25756615400314,9.97621536254883,1.24252092838287,1.79455876350403,0.76919543743134
300,702298246,1.54536509513855,-0.52596426010132,50.90188217163086,0.06239306554198,0.29779106378555,9.99506950378418,1.29805243015289,1.78031730651855,0.78054255247116
301,702306579,1.54418909549713,-0.52631765604019,50.90172958374023,0.01316792331636,0.28351193666458,9.98965740203857,1.16303992271423,1.76172137260437,0.75672131776810
302,702314912,1.54405224323273,-0.52695196866989,50.90161132812500,0.00573205761611,0.25780424475670,9.98722553253174,1.28334999084473,1.72435021400452,0.76061463356018
303,702323245,1.54389262199402,-0.52789425849915,50.90184020996094,-0.01864871941507,0.27535220980644,9.98606777191162,1.28452813625336,1.69345951080322,0.80385148525238
304,702331578,1.54396367073059,-0.52793192863464,50.90266036987305,-0.00691228685901,0.27779465913773,9.96721649169922,1.30952787399292,1.79878544807434,0.87334299087524
305,702339911,1.54299592971802,-0.52783668041229,50.90301132202148,-0.01448629703373,0.26677602529526,9.99084377288818,1.18719422817230,1.81830334663391,0.81345689296722
306,702348244,1.54271554946899,-0.52830952405930,50.90368652343750,-0.02273958735168,0.27918937802315,10.00274944305420,1.26757180690765,1.74645531177521,0.85723167657852
307,702356577,1.54244291782379,-0.52733290195465,50.90345382690430,-0.02575764991343,0.26520830392838,9.99233055114746,1.26959514617920,1.92219471931458,0.74045634269714
308,702364910,1.54319238662720,-0.52703046798706,50.90340423583984,-0.03018157370389,0.23540136218071,9.98883247375488,1.39062249660492,1.83697617053986,0.76740252971649
309,702373243,1.54382503032684,-0.52674531936646,50.90322875976562,-0.04409936070442,0.29078108072281,10.00689411163330,1.37840437889099,1.83956336975098,0.74944692850113
310,702381576,1.54269552230835,-0.52715837955475,50.90325546264648,-0.00806081201881,0.27288073301315,10.00131416320801,1.16419267654419,1.75019502639771,0.75088125467300
311,702389909,1.54317843914032,-0.52723139524460,50.90299606323242,0.01669407263398,0.24771346151829,10.00368690490723,1.36032092571259,1.79581379890442,0.74181383848190
312,702398242,1.54373943805695,-0.52659142017365,50.90343856811523,0.02995431050658,0.30103543400764,9.99010848999023,1.36836361885071,1.87829196453094,0.80912804603577
313,702406575,1.54409670829773,-0.52630597352982,50.90271377563477,0.07113269716501,0.28834405541420,10.00432014465332,1.34449112415314,1.83789825439453,0.68448925018311
314,702414908,1.54382550716400,-0.52635192871094,50.90263748168945,0.06709554046392,0.27869561314583,9.98696136474609,1.26805830001831,1.79594206809998,0.77677732706070
315,702423241,1.54340505599976,-0.52735847234726,50.90195083618164,0.12250638008118,0.29001083970070,9.99461936950684,1.25135779380798,1.68241965770721,0.69550329446793
316,702431574,1.54350757598877,-0.52692443132401,50.90138244628906,0.10180678963661,0.28173297643661,10.00060558319092,1.31208932399750,1.85039818286896,0.70377671718597
317,702439907,1.54339694976807,-0.52751237154007,50.90128707885742,0.14102526009083,0.27646169066429,10.01003742218018,1.28995859622955,1.73485231399536,0.76274073123932
318,702448240,1.54276680946350,-0.52749127149582,50.90003967285156,0.16286219656467,0.29514527320862,9.99488353729248,1.22307968139648,1.79942548274994,0.62270766496658
319,702456573,1.54295563697815,-0.52760899066925,50.90010833740234,0.17126198112965,0.29087004065514,10.00521850585938,1.32566475868225,1.79115223884583,0.78105485439301
320,702464906,1.54274880886078,-0.52893465757370,50.90005874633789,0.19037501513958,0.26105561852455,9.99207019805908,1.27551198005676,1.64130890369415,0.77288395166397
321,702473239,1.54289722442627,-0.52859479188919,50.89973068237305,0.19230577349663,0.29773533344269,10.00279617309570,1.32077240943909,1.84517264366150,0.73241341114044
322,702481572,1.54342758655548,-0.52870577573776,50.89997100830078,0.18376064300537,0.30439424514771,10.01596832275391,1.36400926113129,1.78923130035400,0.80341619253159
323,702489905,1.54389202594757,-0.52878946065903,50.90062332153320,0.21304589509964,0.27918601036072,10.00242900848389,1.35906577110291,1.79732549190521,0.85070002079010
324,702498238,1.54435813426971,-0.52849572896957,50.90061187744141,0.18286293745041,0.26104557514191,9.98626804351807,1.35686278343201,1.83605408668518,0.77062988281250
325,702506571,1.54487144947052,-0.52881014347076,50.90095901489258,0.17071686685085,0.29534864425659,10.01918697357178,1.36485457420349,1.76909852027893,0.81612080335617
326,702514904,1.54426395893097,-0.52803975343704,50.90143966674805,0.18002305924892,0.29294177889824,10.03527355194092,1.22807455062866,1.89499247074127,0.82787764072418
327,702523237,1.54358458518982,-0.52731484174728,50.90156173706055,0.15273889899254,0.25538372993469,9.99863624572754,1.22226011753082,1.89204657077789,0.78625458478928
328,702531570,1.54387211799622,-0.52631598711014,50.90140533447266,0.11437291651964,0.30643317103386,9.99599933624268,1.33355414867401,1.92109322547913,0.75190591812134
329,702539903,1.54382228851318,-0.52651780843735,50.90174484252930,0.11185250431299,0.28647708892822,10.00683593750000,1.29835987091064,1.78200793266296,0.81458383798599
330,702548236,1.54398953914642,-0.52689021825790,50.90136337280273,0.07600681483746,0.25544598698616,9.99040889739990,1.31823658943176,1.75595819950104,0.72647088766098
331,702556569,1.54418289661407,-0.52602076530457,50.90097045898438,0.03166441246867,0.27790129184723,9.97718524932861,1.32704770565033,1.90826058387756,0.72227013111115
332,702564902,1.54342365264893,-0.52573758363724,50.90109252929688,0.03389878943563,0.27113437652588,10.00295925140381,1.20899200439453,1.83618223667145,0.78640830516815
333,702573235,1.54359734058380,-0.52527070045471,50.90105056762695,0.03056669980288,0.27532404661179,10.00349330902100,1.32464027404785,1.86077189445496,0.76678776741028
334,702581568,1.54358422756195,-0.52528053522110,50.90152740478516,0.00246376567520,0.28821307420731,10.02361679077148,1.29800128936768,1.80219197273254,0.83215522766113
335,702589901,1.54308772087097,-0.52564048767090,50.90200424194336,-0.00642749574035,0.25868403911591,9.99515151977539,1.24364805221558,1.76364243030548,0.83097696304321
336,702598234,1.54231882095337,-0.52520227432251,50.90219879150391,-0.03760758042336,0.24667167663574,10.03353214263916,1.20835161209106,1.85482919216156,0.79529637098312
337,702606567,1.54211521148682,-0.52546763420105,50.90151977539062,-0.04183708503842,0.30968907475471,10.00768375396729,1.27820146083832,1.77071189880371,0.69360780715942
338,702614900,1.54244959354401,-0.52610468864441,50.90140533447266,-0.04869834706187,0.27833718061447,9.98941135406494,1.34016239643097,1.72440147399902,0.76107573509216
339,702623233,1.54280424118042,-0.52689075469971,50.90183639526367,-0.02876640856266,0.24678386747837,10.00793552398682,1.34669399261475,1.71185040473938,0.82721167802811
340,702631566,1.54309976100922,-0.52741086483002,50.90194702148438,-0.01431721914560,0.26742482185364,10.01593399047852,1.33544921875000,1.73943698406219,0.78843176364899
341,702639899,1.54365551471710,-0.52764821052551,50.90199661254883,0.00359490723349,0.28572210669518,10.00875377655029,1.37051522731781,1.77711558341980,0.77782750129700
342,702648232,1.54345858097076,-0.52732217311859,50.90253067016602,0.01493642851710,0.27111783623695,9.98481655120850,1.27692079544067,1.84174048900604,0.83720129728317
343,702656565,1.54370141029358,-0.52793323993683,50.90174865722656,0.00798231549561,0.27301129698753,10.02730178833008,1.33114624023438,1.72911465167999,0.68208140134811
344,702664898,1.54337167739868,-0.52784091234207,50.90158462524414,0.05160253867507,0.28551515936852,10.00126552581787,1.26001536846161,1.81246328353882,0.75226449966431
345,702673231,1.54272317886353,-0.52764695882797,50.90140533447266,0.05846907198429,0.25513812899590,10.00306415557861,1.22515439987183,1.82726812362671,0.75116300582886
346,702681564,1.54350948333740,-0.52848803997040,50.90200424194336,0.08645983785391,0.28252354264259,10.00585174560547,1.39469516277313,1.70096457004547,0.80257087945938
347,702689897,1.54372513294220,-0.52860414981842,50.90183639526367,0.10945218801498,0.25895079970360,9.99442100524902,1.32914829254150,1.79122912883759,0.75252056121826
348,702698230,1.54370403289795,-0.52806586027145,50.90171051025391,0.13059619069099,0.27906110882759,10.01955032348633,1.29751467704773,1.86361503601074,0.72864818572998
349,702706563,1.54387021064758,-0.52710121870041,50.90147781372070,0.16451664268970,0.30043071508408,10.01430225372314,1.32266795635223,1.92050433158875,0.74265915155411
350,702714896,1.54386579990387,-0.52722287178040,50.90203475952148,0.17501039803028,0.30557450652122,10.00028419494629,1.29958951473236,1.78897511959076,0.83702200651169
351,702723229,1.54356443881989,-0.52728432416916,50.90224838256836,0.17768277227879,0.26039454340935,10.01875019073486,1.26828873157501,1.79814481735229,0.79954832792282
352,702731562,1.54455041885376,-0.52701449394226,50.90279769897461,0.17236080765724,0.28722563385963,9.97266006469727,1.41756844520569,1.83415853977203,0.79813957214355
353,702739895,1.54454362392426,-0.52812772989273,50.90200424194336,0.17725175619125,0.30554640293121,10.02138233184814,1.30204832553864,1.66925394535065,0.68090319633484
354,702748228,1.54467749595642,-0.52745521068573,50.90168380737305,0.19370146095753,0.27928218245506,10.00556850433350,1.31539344787598,1.87985444068909,0.69342863559723
355,702756561,1.54441857337952,-0.52689135074615,50.90190505981445,0.22427681088448,0.27313616871834,10.00082492828369,1.27238714694977,1.87398850917816,0.79673081636429
356,702764894,1.54454112052917,-0.52680540084839,50.90166091918945,0.19191753864288,0.31532397866249,10.00885486602783,1.31383085250854,1.81143856048584,0.75067645311356
357,702773227,1.54467499256134,-0.52645879983902,50.90225219726562,0.16147401928902,0.28295686841011,10.00531291961670,1.32038819789886,1.84799003601074,0.84252899885178
358,702781560,1.54425179958344,-0.52644705772400,50.90259933471680,0.14268480241299,0.27485910058022,10.00315666198730,1.24895000457764,1.80126965045929,0.71609711647034
359,702789893,1.54441416263580,-0.52619510889053,50.90270233154297,0.13598996400833,0.29193639755249,9.99733352661133,1.32292425632477,1.83538818359375,0.78579360246658
360,702798226,1.54455351829529,-0.52657079696655,50.90324020385742,0.12685284018517,0.28345689177513,9.99766159057617,1.31695580482483,1.75793027877808,0.80928170681000
361,702806559,1.54525434970856,-0.52610242366791,50.90339279174805,0.10531956702471,0.27220699191093,10.02932453155518,1.38749754428864,1.86187326908112,0.78907215595245
362,702814892,1.54545783996582,-0.52588647603989,50.90345382690430,0.08026527613401,0.29662746191025,10.00395774841309,1.32451212406158,1.82754993438721,0.79593670368195
363,702823225,1.54501307010651,-0.52617853879929,50.90348052978516,0.05335643514991,0.27072313427925,9.97127342224121,1.25015413761139,1.76984131336212,0.77726399898529
364,702831558,1.54458367824554,-0.52585446834564,50.90438461303711,0.03258179873228,0.25755608081818,10.03036308288574,1.24915504455566,1.84373831748962,0.89029961824417
365,702839891,1.54477536678314,-0.52571010589600,50.90407180786133,0.01793889515102,0.29233473539352,9.97274589538574,1.32563912868500,1.82168424129486,0.73628115653992
366,702848224,1.54478514194489,-0.52554643154144,50.90375518798828,-0.00742748752236,0.28755855560303,10.00184345245361,1.30017852783203,1.82048046588898,0.74629622697830
367,702856557,1.54411351680756,-0.52540028095245,50.90379714965820,0.00229258998297,0.26716032624245,10.00070190429688,1.22310531139374,1.82334959506989,0.77580392360687
368,702864890,1.54412984848022,-0.52504009008408,50.90291595458984,-0.00450131203979,0.26632624864578,9.98815250396729,1.30233013629913,1.84069013595581,0.67421787977219
369,702873223,1.54445791244507,-0.52458196878433,50.90254211425781,-0.02920662984252,0.28213068842888,10.00059509277344,1.34149444103241,1.85920929908752,0.72506219148636
370,702881556,1.54534232616425,-0.52464646100998,50.90341186523438,-0.01448561251163,0.26261067390442,10.00891780853271,1.40722036361694,1.79612147808075,0.87723624706268
371,702889889,1.54535019397736,-0.52496021986008,50.90397644042969,-0.02411423623562,0.27987581491470,9.98708438873291,1.30494272708893,1.77009725570679,0.84109467267990
372,702898222,1.54528784751892,-0.52562326192856,50.90399932861328,-0.04077897220850,0.26152762770653,10.00244712829590,1.29264783859253,1.72143018245697,0.77762252092361
373,702906555,1.54528522491455,-0.52577537298203,50.90367126464844,-0.01993469893932,0.25951853394508,10.01473236083984,1.30189466476440,1.78641343116760,0.73356598615646
374,702914888,1.54546499252319,-0.52619338035583,50.90351104736328,-0.00418412918225,0.26410144567490,9.98469829559326,1.32169449329376,1.74988770484924,0.75544065237045
375,702923221,1.54627430438995,-0.52693724632263,50.90272140502930,0.04281380400062,0.25664743781090,10.00230789184570,1.40033018589020,1.71302878856659,0.67905896902084
376,702931554,1.54698419570923,-0.52711844444275,50.90258789062500,0.07113598287106,0.27369943261147,9.98963546752930,1.38421905040741,1.77970278263092,0.75935965776443
377,702939887,1.54706346988678,-0.52713572978973,50.90207672119141,0.08309696614742,0.28717145323753,10.00802612304688,1.31198668479919,1.80155158042908,0.71041083335876
378,702948220,1.54659593105316,-0.52819049358368,50.90139770507812,0.10544107854366,0.29252812266350,9.99012565612793,1.24449324607849,1.67081642150879,0.69540083408356
379,702956553,1.54704880714417,-0.52753973007202,50.90161132812500,0.09732056409121,0.28372779488564,10.01034164428711,1.35806679725647,1.88415741920471,0.79621851444244
380,702964886,1.54743874073029,-0.52762138843536,50.90184020996094,0.11959832906723,0.29134935140610,9.98234462738037,1.34630978107452,1.79233062267303,0.79977887868881
381,702973219,1.54741537570953,-0.52793878316879,50.90148162841797,0.18160943686962,0.30090743303299,10.01309585571289,1.30092132091522,1.76564037799835,0.73115831613541
382,702981552,1.54757189750671,-0.52841991186142,50.90128707885742,0.16806052625179,0.28507950901985,10.02775192260742,1.31749403476715,1.74345839023590,0.75021535158157
383,702989885,1.54845368862152,-0.52942341566086,50.90138626098633,0.19366523623466,0.30141165852547,10.00172615051270,1.40960252285004,1.68475055694580,0.78845727443695
384,702998218,1.54806077480316,-0.53099691867828,50.90143966674805,0.18959462642670,0.28924992680550,10.00123596191406,1.25315082073212,1.61180150508881,0.76230525970459
385,703006551,1.54808402061462,-0.53018546104431,50.90127182006836,0.17294301092625,0.29047471284866,9.98920726776123,1.30604422092438,1.90221560001373,0.75088137388229
386,703014884,1.54807364940643,-0.53068625926971,50.90156936645508,0.18821880221367,0.28648096323013,10.00379753112793,1.29810380935669,1.74061524868011,0.77716147899628
387,703023217,1.54756391048431,-0.53030025959015,50.90173339843750,0.18931187689304,0.28076812624931,10.01143360137939,1.24244403839111,1.85219085216522,0.79296541213989
388,703031550,1.54669690132141,-0.53048712015152,50.90190505981445,0.18344995379448,0.27784824371338,10.02231311798096,1.19664573669434,1.77875494956970,0.78026074171066
389,703039883,1.54614067077637,-0.53166866302490,50.90200042724609,0.16907700896263,0.29751244187355,10.00633430480957,1.23637342453003,1.66397738456726,0.78750962018967
390,703048216,1.54585278034210,-0.53060489892960,50.90161514282227,0.16097411513329,0.30483344197273,10.01020717620850,1.26575303077698,1.92721498012543,0.72452425956726
391,703056549,1.54552268981934,-0.53099507093430,50.90176010131836,0.11374405026436,0.29222995042801,9.99500560760498,1.26293551921844,1.75967216491699,0.79042965173721
392,703064882,1.54654407501221,-0.53067499399185,50.90198898315430,0.10386468470097,0.27331551909447,9.99705791473389,1.42243516445160,1.83958876132965,0.77746880054474
393,703073215,1.54691016674042,-0.52955585718155,50.90193939208984,0.07739904522896,0.26734256744385,9.98727989196777,1.34802615642548,1.93889522552490,0.76281756162643
394,703081548,1.54664146900177,-0.52968704700470,50.90270996093750,0.04870320856571,0.28141713142395,9.97788810729980,1.26626527309418,1.78736126422882,0.80794978141785
395,703089881,1.54573798179626,-0.53013968467712,50.90362548828125,0.03773274272680,0.26513811945915,10.01097869873047,1.19659459590912,1.75349938869476,0.88200062513351
396,703098214,1.54574990272522,-0.52943056821823,50.90334320068359,-0.00017719529569,0.27495190501213,10.01921367645264,1.30084431171417,1.88479781150818,0.72057956457138
397,703106547,1.54510104656219,-0.53006750345230,50.90381240844727,0.00196763710119,0.27991005778313,10.01850986480713,1.22628152370453,1.73016488552094,0.83028542995453
398,703114880,1.54504847526550,-0.52961599826813,50.90431594848633,0.00906263943762,0.28344592452049,10.01093673706055,1.29351890087128,1.85595643520355,0.79309362173080
399,703123213,1.54456114768982,-0.52882337570190,50.90442276000977,-0.03384054452181,0.29585400223732,9.99446392059326,1.24531292915344,1.90062761306763,0.78366756439209
400,703131546,1.54390788078308,-0.52858459949493,50.90466690063477,-0.00076814123895,0.27797251939774,10.00218868255615,1.22108185291290,1.83136665821075,0.79368269443512
401,703139879,1.54504382610321,-0.52911573648453,50.90423965454102,-0.04616784304380,0.26835456490517,10.00738716125488,1.43954551219940,1.73953950405121,0.72283369302750
402,703148212,1.54512953758240,-0.52891916036606,50.90436935424805,-0.04117153957486,0.26737460494041,9.99345588684082,1.30975842475891,1.82516789436340,0.77416467666626
403,703156545,1.54451668262482,-0.52939099073410,50.90449142456055,-0.03493007645011,0.28352382779121,9.99785423278809,1.22997009754181,1.74909377098083,0.78945642709732
404,703164878,1.54476547241211,-0.52942287921906,50.90440368652344,-0.01630452834070,0.26556193828583,9.99760818481445,1.33030080795288,1.79648005962372,0.76143437623978
405,703173211,1.54571616649628,-0.52982789278030,50.90369415283203,0.02055282145739,0.27913743257523,9.98704528808594,1.41633915901184,1.75411391258240,0.68897169828415
406,703181544,1.54557752609253,-0.52998489141464,50.90354537963867,0.02844304963946,0.27634814381599,9.96615505218506,1.28299129009247,1.78121376037598,0.75487709045410
407,703189877,1.54529404640198,-0.53016102313995,50.90371322631836,0.04792035743594,0.28563627600670,9.97579860687256,1.26941597461700,1.78477418422699,0.79491221904755
408,703198210,1.54509520530701,-0.53049790859222,50.90370941162109,0.06460890918970,0.25544121861458,9.99811172485352,1.27592182159424,1.76064562797546,0.77060419321060
409,703206543,1.54520654678345,-0.52883541584015,50.90335845947266,0.07182219624519,0.29650458693504,9.99603843688965,1.31623876094818,2.00339174270630,0.72624033689499
410,703214876,1.54525625705719,-0.52868288755417,50.90314865112305,0.08523254841566,0.26093450188637,10.00127792358398,1.30650532245636,1.81768858432770,0.74560481309891
411,703223209,1.54589641094208,-0.52893865108490,50.90299224853516,0.13032442331314,0.29043334722519,10.02475261688232,1.37914717197418,1.77506637573242,0.75518447160721
412,703231542,1.54583644866943,-0.52857786417007,50.90316772460938,0.15062509477139,0.31073269248009,10.00370025634766,1.29382622241974,1.84455776214600,0.79132616519928
413,703239875,1.54615283012390,-0.52862894535065,50.90376663208008,0.16838710010052,0.31323176622391,10.01060390472412,1.34205794334412,1.80106496810913,0.84547472000122
414,703248208,1.54666316509247,-0.52863651514053,50.90386962890625,0.16565074026585,0.28717389702797,9.99265098571777,1.36091005802155,1.79963064193726,0.78515315055847
415,703256541,1.54713034629822,-0.52859121561050,50.90402221679688,0.17432235181332,0.27232778072357,9.98383522033691,1.35932159423828,1.81213033199310,0.79078823328018
416,703264874,1.54673790931702,-0.52829664945602,50.90312194824219,0.15125116705894,0.27195772528648,10.01096248626709,1.25207495689392,1.83467078208923,0.71128171682358
417,703273207,1.54730248451233,-0.52806973457336,50.90301513671875,0.18167552351952,0.29338219761848,10.03135108947754,1.37092506885529,1.83157134056091,0.76051217317581
418,703281540,1.54693567752838,-0.52867686748505,50.90368652343750,0.18472559750080,0.28910347819328,10.03004932403564,1.25663447380066,1.73013901710510,0.84350234270096
419,703289873,1.54690599441528,-0.52919536828995,50.90379714965820,0.18143171072006,0.26698994636536,9.97859287261963,1.30043470859528,1.74345839023590,0.78768891096115
420,703298206,1.54813718795776,-0.52856069803238,50.90397262573242,0.18372923135757,0.28499636054039,9.98075103759766,1.44646155834198,1.87849688529968,0.77073240280151
421,703306539,1.54821205139160,-0.52894759178162,50.90362548828125,0.16548675298691,0.30640247464180,10.01116752624512,1.31167936325073,1.75754630565643,0.73195236921310
422,703314872,1.54754996299744,-0.52905863523483,50.90412139892578,0.11313115805387,0.27999129891396,10.02049350738525,1.22133791446686,1.79092168807983,0.85633510351181
423,703323205,1.54836225509644,-0.52866929769516,50.90469741821289,0.10408788919449,0.25450360774994,10.00929164886475,1.40132927894592,1.85362517833710,0.84145319461823
424,703331538,1.54853332042694,-0.52765876054764,50.90495681762695,0.07450675219297,0.27248695492744,10.02560329437256,1.32095170021057,1.92275798320770,0.77836537361145
425,703339871,1.54825735092163,-0.52768051624298,50.90499114990234,0.05385169759393,0.24654321372509,10.01414966583252,1.26985132694244,1.80324208736420,0.77565020322800
426,703348204,1.54885768890381,-0.52781760692596,50.90470504760742,0.03907111287117,0.28773337602615,9.99979972839355,1.37171900272369,1.78269946575165,0.72554880380630
427,703356537,1.54872846603394,-0.52794533967972,50.90473556518555,0.02250820025802,0.27877327799797,9.99859905242920,1.28808867931366,1.78979480266571,0.77795559167862
428,703364870,1.54919886589050,-0.52763479948044,50.90442276000977,0.00711530726403,0.28380939364433,10.03081989288330,1.35540306568146,1.83800077438354,0.71881234645844
429,703373203,1.54876756668091,-0.52780878543854,50.90423965454102,0.00555150164291,0.27287247776985,9.98835468292236,1.25199818611145,1.78331422805786,0.75190579891205
430,703381536,1.54949283599854,-0.52833312749863,50.90403366088867,-0.02695273607969,0.29675608873367,9.99785041809082,1.38660085201263,1.73661947250366,0.71832549571991
431,703389869,1.54876649379730,-0.52839910984039,50.90356826782227,-0.02031405828893,0.24267116189003,9.98871898651123,1.21601033210754,1.79535305500031,0.71840244531631
432,703398202,1.54897534847260,-0.52938920259476,50.90341567993164,-0.03811309486628,0.26600188016891,9.98241043090820,1.32479369640350,1.68236851692200,0.75546622276306
433,703406535,1.54942619800568,-0.52936768531799,50.90327453613281,-0.02790791541338,0.29697510600090,10.03364658355713,1.35622262954712,1.80746865272522,0.75774604082108
434,703414868,1.54889988899231,-0.52964073419571,50.90409088134766,0.00124871660955,0.26783478260040,9.98382759094238,1.23826897144318,1.76881659030914,0.80162310600281
435,703423201,1.55001068115234,-0.52961885929108,50.90419006347656,0.00090631726198,0.24440121650696,10.00230312347412,1.43644630908966,1.80803215503693,0.78535807132721
436,703431534,1.55072283744812,-0.52972251176834,50.90447235107422,0.00172753934748,0.29447665810585,9.97532653808594,1.38450062274933,1.78771984577179,0.75649082660675
437,703439867,1.55066597461700,-0.52881246805191,50.90478515625000,0.00051823072135,0.27408003807068,9.99178123474121,1.29631078243256,1.91602158546448,0.80784726142883
438,703448200,1.55045258998871,-0.52921205759048,50.90523529052734,0.04019734263420,0.26978814601898,9.98446178436279,1.27566564083099,1.75157809257507,0.77045059204102
439,703456533,1.55055081844330,-0.52995109558105,50.90502548217773,0.08044100552797,0.27815082669258,9.97585296630859,1.31454825401306,1.71651244163513,0.75144487619400
440,703464866,1.55062675476074,-0.53043162822723,50.90559005737305,0.08236330002546,0.28350311517715,10.00572967529297,1.30965578556061,1.74330472946167,0.81092107295990
441,703473199,1.55065810680389,-0.53058850765228,50.90592575073242,0.10378572344780,0.29188084602356,10.04316234588623,1.30742740631104,1.78789937496185,0.81402045488358
442,703481532,1.55144691467285,-0.53127652406693,50.90605926513672,0.11041450500488,0.27792745828629,10.03334999084473,1.39466941356659,1.71984207630157,0.82808262109756
443,703489865,1.55175268650055,-0.53221470117569,50.90656661987305,0.14334666728973,0.25193595886230,10.00028133392334,1.34075140953064,1.69433033466339,0.83799535036087
444,703498198,1.55222690105438,-0.53263342380524,50.90661621093750,0.15926142036915,0.24964126944542,10.00102424621582,1.35727274417877,1.75029742717743,0.74898582696915
445,703506531,1.55322909355164,-0.53170090913773,50.90681457519531,0.15956851840019,0.27980330586433,10.00828075408936,1.42381846904755,1.91730225086212,0.79358023405075
446,703514864,1.55287313461304,-0.53157675266266,50.90730285644531,0.18381306529045,0.30503350496292,10.01619911193848,1.25737726688385,1.81676626205444,0.80300623178482
447,703523197,1.55275964736938,-0.53133791685104,50.90735244750977,0.21652874350548,0.26930055022240,9.99580764770508,1.29006087779999,1.83449149131775,0.77808350324631
448,703531530,1.55334484577179,-0.53101384639740,50.90685272216797,0.20998832583427,0.29380539059639,9.98720741271973,1.36836361885071,1.83715546131134,0.68966323137283
449,703539863,1.55401217937469,-0.53233766555786,50.90676879882812,0.20079481601715,0.30871003866196,9.97517585754395,1.38383460044861,1.64655983448029,0.76519960165024
450,703548196,1.55399262905121,-0.53179502487183,50.90732192993164,0.18035221099854,0.27704292535782,10.01154708862305,1.29769396781921,1.86709856987000,0.82270359992981
451,703556529,1.55439019203186,-0.53140729665756,50.90847396850586,0.15920682251453,0.25395873188972,9.99808406829834,1.35161185264587,1.85613548755646,0.90945899486542
452,703564862,1.55493795871735,-0.53081792593002,50.90925598144531,0.14611318707466,0.30129688978195,10.03768253326416,1.36626327037811,1.87398850917816,0.82129484415054
453,703573195,1.55441129207611,-0.53097015619278,50.90922164916992,0.11814481019974,0.27760952711105,10.03846931457520,1.24036943912506,1.78690028190613,0.76842701435089
454,703581528,1.55330419540405,-0.53075540065765,50.90935516357422,0.12026134133339,0.27597281336784,9.96643352508545,1.16634428501129,1.82468140125275,0.68377202749252
455,703589861,1.55405342578888,-0.53122568130493,50.90965652465820,0.09108056128025,0.28351175785065,9.99351978302002,1.39410591125488,1.74878621101379,0.81248348951340
456,703598194,1.55413269996643,-0.53130018711090,50.90999221801758,0.07250940799713,0.28623938560486,9.99991989135742,1.30873370170593,1.79376482963562,0.78666436672211
457,703606527,1.55373573303223,-0.53046470880508,50.91147232055664,0.04942642897367,0.27467644214630,9.99407196044922,1.25755655765533,1.91002810001373,0.94928926229477
458,703614860,1.55456387996674,-0.52957570552826,50.91102218627930,0.01170834153891,0.26298305392265,10.00239849090576,1.39933133125305,1.90641617774963,0.71753156185150
459,703623193,1.55430662631989,-0.52994710206985,50.91071319580078,-0.01372927799821,0.26063978672028,9.99037837982178,1.27287375926971,1.75923681259155,0.73740822076797
460,703631526,1.55386924743652,-0.52964860200882,50.91079330444336,-0.01015678793192,0.26753446459770,10.01530647277832,1.24790000915527,1.83766770362854,0.80018872022629
461,703639859,1.55383181571960,-0.52922278642654,50.91106414794922,-0.01368896104395,0.28957396745682,10.00220775604248,1.29879558086395,1.85767257213593,0.80390280485153
462,703648192,1.55415391921997,-0.52988260984421,50.91131591796875,-0.00860308576375,0.26806297898293,9.96577072143555,1.33813881874084,1.72330033779144,0.80326247215271
463,703656525,1.55465149879456,-0.53017652034760,50.91125488281250,-0.03778616338968,0.25423619151115,9.99758529663086,1.36421406269073,1.76868844032288,0.76681333780289
464,703664858,1.55480456352234,-0.53028810024261,50.91154098510742,-0.03341604396701,0.26785409450531,10.01196098327637,1.31590557098389,1.78705394268036,0.71181952953339
465,703673191,1.55499076843262,-0.52998989820480,50.91182327270508,-0.02200699970126,0.28465548157692,9.99940299987793,1.32620275020599,1.84181725978851,0.80590069293976
466,703681524,1.55469846725464,-0.53012984991074,50.91229629516602,-0.02000987902284,0.25526416301727,10.00494670867920,1.26616299152374,1.78403151035309,0.79696136713028
467,703689857,1.55493080615997,-0.52999651432037,50.91197586059570,-0.02197654359043,0.26506009697914,9.99331569671631,1.33032643795013,1.82101833820343,0.73346364498138
468,703698190,1.55565011501312,-0.53056520223618,50.91188430786133,0.01627126894891,0.28831228613853,10.00383663177490,1.38652420043945,1.73249554634094,0.75974375009537
469,703706523,1.55615568161011,-0.53062486648560,50.91191482543945,0.03275645896792,0.30461788177490,10.00188064575195,1.36395800113678,1.79791450500488,0.77675169706345
470,703714856,1.55517590045929,-0.53088891506195,50.91185760498047,0.08668845891953,0.28709158301353,9.98471832275391,1.18286526203156,1.76835548877716,0.76330423355103
471,703723189,1.55494010448456,-0.53047174215317,50.91151428222656,0.09758134186268,0.28431639075279,9.99997615814209,1.27433371543884,1.85418868064880,0.73141437768936
472,703731522,1.55529689788818,-0.53088927268982,50.91110229492188,0.11988715082407,0.27755856513977,10.00541210174561,1.34134078025818,1.75027203559875,0.72157859802246
473,703739855,1.55469071865082,-0.53088307380676,50.91139221191406,0.10403438657522,0.31332853436470,9.98021125793457,1.23148107528687,1.80664861202240,0.80710452795029
474,703748188,1.55404508113861,-0.53077208995819,50.91129302978516,0.12093510478735,0.28707382082939,9.95650482177734,1.22315645217896,1.81343662738800,0.75772023200989
475,703756521,1.55387973785400,-0.53087961673737,50.91115951538086,0.14461036026478,0.27303901314735,9.99360942840576,1.28276085853577,1.79250979423523,0.75641393661499
476,703764854,1.55462598800659,-0.53111541271210,50.91154479980469,0.17036925256252,0.26971226930618,9.99327468872070,1.38852202892303,1.77391397953033,0.81850290298462
477,703773187,1.55458378791809,-0.53069841861725,50.91116333007812,0.17260511219501,0.30920720100403,10.01287269592285,1.29828310012817,1.85418891906738,0.72511339187622
478,703781520,1.55393075942993,-0.53118634223938,50.91074752807617,0.18272306025028,0.28292676806450,10.00090312957764,1.22210645675659,1.73979580402374,0.72081023454666
479,703789853,1.55378580093384,-0.53140121698380,50.91053390502930,0.19480195641518,0.27470505237579,9.97550487518311,1.28586018085480,1.77949774265289,0.74934440851212
480,703798186,1.53805351257324,-0.52379620075226,50.90759658813477,0.16264823079109,0.27580747008324,9.99038219451904,1.40127813816071,1.71735763549805,0.77567595243454
481,703806519,1.53847634792328,-0.52473878860474,50.90734100341797,0.17175328731537,0.28025960922241,10.00305843353271,1.35663235187531,1.69056522846222,0.74586093425751
482,703814852,1.53845858573914,-0.52496278285980,50.90770339965820,0.15409974753857,0.27419057488441,10.00631332397461,1.29807794094086,1.77457976341248,0.78948193788528
483,703823185,1.53857147693634,-0.52541613578796,50.90739440917969,0.16913084685802,0.29178035259247,10.01655483245850,1.31685328483582,1.74993884563446,0.73735690116882
484,703831518,1.53860902786255,-0.52583390474319,50.90736770629883,0.14578478038311,0.28237593173981,10.00707626342773,1.30478930473328,1.74950361251831,0.72173237800598
485,703839851,1.53870689868927,-0.52463984489441,50.90764236450195,0.12485964596272,0.25565239787102,10.00479030609131,1.31667411327362,1.94816768169403,0.80152070522308
486,703848184,1.53835344314575,-0.52546024322510,50.90785217285156,0.09553996473551,0.28163999319077,9.98898696899414,1.25773584842682,1.70390999317169,0.77844220399857
487,703856517,1.53802704811096,-0.52503538131714,50.90769195556641,0.05502349883318,0.27915987372398,10.00153732299805,1.26452362537384,1.85518777370453,0.75236696004868
488,703864850,1.53766942024231,-0.52425628900528,50.90745925903320,0.02876100130379,0.25201562047005,9.99371147155762,1.25747954845428,1.89419841766357,0.73507732152939
489,703873183,1.53845942020416,-0.52468860149384,50.90790176391602,0.02528974972665,0.29451113939285,10.00304603576660,1.39899837970734,1.75431907176971,0.82698130607605
490,703881516,1.53843259811401,-0.52433180809021,50.90831756591797,0.01969884894788,0.28843462467194,9.95376491546631,1.29725861549377,1.84432744979858,0.78922575712204
491,703889849,1.53818893432617,-0.52478790283203,50.90814208984375,0.01940164342523,0.26272973418236,9.99450111389160,1.27448749542236,1.74911916255951,0.75364762544632
492,703898182,1.53865730762482,-0.52524077892303,50.90869522094727,0.01084542274475,0.25780829787254,9.97706890106201,1.35673475265503,1.74837636947632,0.82910710573196
493,703906515,1.53889477252960,-0.52567565441132,50.90806961059570,-0.01138096489012,0.27674502134323,9.99431610107422,1.33145356178284,1.75063025951385,0.69952464103699
494,703914848,1.53898620605469,-0.52662140130997,50.90896606445312,-0.04703281447291,0.26339194178581,9.98623085021973,1.31185865402222,1.68930995464325,0.84411710500717
495,703923181,1.53976023197174,-0.52528977394104,50.90863800048828,-0.02597016654909,0.25449335575104,9.99271011352539,1.39638555049896,1.96381795406342,0.72849446535110
496,703931514,1.53969061374664,-0.52421140670776,50.90955352783203,-0.04776643961668,0.28160938620567,10.04059410095215,1.29213571548462,1.93115985393524,0.83620238304138
497,703939847,1.54038083553314,-0.52269351482391,50.90946960449219,0.00055322609842,0.27757588028908,10.00005817413330,1.38821470737457,1.98628151416779,0.75797647237778
498,703948180,1.54046344757080,-0.52273309230804,50.91013717651367,-0.01958774775267,0.26976716518402,10.01068305969238,1.30963015556335,1.79783749580383,0.79796028137207
499,703956513,1.54118263721466,-0.52329117059708,50.91028594970703,0.02970542944968,0.28128933906555,9.99836254119873,1.39133965969086,1.73787474632263,0.79160797595978
500,703964846,1.54086101055145,-0.52332758903503,50.91064453125000,0.03566990792751,0.27695867419243,9.98679256439209,1.26180839538574,1.79673612117767,0.79601359367371
501,703973179,1.54111766815186,-0.52369529008865,50.91061019897461,0.05323975905776,0.28235164284706,9.98547744750977,1.33427107334137,1.76067125797272,0.76924663782120
502,703981512,1.54116189479828,-0.52410912513733,50.91018295288086,0.05307122319937,0.27837395668030,9.99886703491211,1.30476343631744,1.74988770484924,0.72344845533371
503,703989845,1.54130542278290,-0.52393621206284,50.90992736816406,0.08558014035225,0.26815119385719,9.98707962036133,1.32205307483673,1.82429707050323,0.74247980117798
504,703998178,1.54216217994690,-0.52545052766800,50.90891647338867,0.11003514379263,0.27522841095924,9.98894309997559,1.40089380741119,1.61669373512268,0.65913110971451
505,704006511,1.54319012165070,-0.52486866712570,50.90866088867188,0.15334543585777,0.29974707961082,9.98436355590820,1.42850601673126,1.87275934219360,0.74086618423462
506,704014844,1.54376316070557,-0.52512276172638,50.90893173217773,0.16151638329029,0.25827595591545,9.99994182586670,1.36936259269714,1.77099382877350,0.78425663709641
507,704023177,1.54410207271576,-0.52499216794968,50.90840530395508,0.15951797366142,0.27099853754044,10.00205898284912,1.34277510643005,1.81960964202881,0.70971924066544
508,704031510,1.54411745071411,-0.52490514516830,50.90868759155273,0.18305695056915,0.29648751020432,9.99834728240967,1.30140805244446,1.81131052970886,0.77408778667450
509,704039843,1.54445934295654,-0.52450186014175,50.90846633911133,0.18126988410950,0.29251959919930,9.98666000366211,1.34661722183228,1.85216522216797,0.74417042732239
510,704048176,1.54454326629639,-0.52515035867691,50.90847778320312,0.18091002106667,0.26712813973427,9.98271179199219,1.30942523479462,1.72317206859589,0.76279193162918
511,704056509,1.54503333568573,-0.52566689252853,50.90932464599609,0.17964661121368,0.29390382766724,9.99816703796387,1.36400926113129,1.74545633792877,0.87636554241180
512,704064842,1.54460763931274,-0.52611070871353,50.90905380249023,0.19827926158905,0.30071648955345,10.04343223571777,1.24984657764435,1.74781286716461,0.76706945896149
513,704073175,1.54489958286285,-0.52589237689972,50.90945816040039,0.18765905499458,0.28742793202400,9.97024631500244,1.33888173103333,1.83272421360016,0.82119244337082
514,704081508,1.54430389404297,-0.52510172128677,50.90885162353516,0.16735093295574,0.27548453211784,10.01705646514893,1.22891974449158,1.89401900768280,0.70019072294235
515,704089841,1.54450869560242,-0.52464747428894,50.90982818603516,0.14381670951843,0.29288214445114,10.01006698608398,1.32930183410645,1.86300003528595,0.88909566402435
516,704098174,1.54437124729156,-0.52494269609451,50.91006469726562,0.11892315000296,0.29581427574158,9.99884796142578,1.28352940082550,1.76646029949188,0.79391330480576
517,704106507,1.54478895664215,-0.52584993839264,50.91014862060547,0.11916450411081,0.29478237032890,10.01945972442627,1.35466003417969,1.69596958160400,0.78540927171707
518,704114840,1.54415059089661,-0.52492570877075,50.91059875488281,0.07292963564396,0.28425991535187,9.99295711517334,1.22325909137726,1.91453623771667,0.81030631065369
519,704123173,1.54396688938141,-0.52497535943985,50.91049194335938,0.06776042282581,0.26459848880768,10.00187587738037,1.28176188468933,1.79863154888153,0.76064026355743
520,704131506,1.54421854019165,-0.52416861057281,50.91038131713867,0.05070858821273,0.26932957768440,9.98467922210693,1.33076202869415,1.89565837383270,0.73620438575745
521,704139839,1.54414069652557,-0.52515584230423,50.90986251831055,0.02511908300221,0.30659267306328,9.97999668121338,1.29413366317749,1.68503260612488,0.71491897106171
522,704148172,1.54398846626282,-0.52431529760361,50.91033172607422,0.01693985052407,0.26180386543274,9.97734260559082,1.28155708312988,1.90249729156494,0.79007112979889
523,704156505,1.54470241069794,-0.52482533454895,50.91100311279297,-0.02533677965403,0.22750897705555,9.99911308288574,1.39121150970459,1.74502098560333,0.85349190235138
524,704164838,1.54544591903687,-0.52424150705338,50.91123580932617,-0.02610702626407,0.31267014145851,9.99665927886963,1.38952088356018,1.87224686145782,0.78453838825226
525,704173171,1.54507648944855,-0.52334588766098,50.91113662719727,-0.03140864148736,0.27793288230896,9.99075508117676,1.26009237766266,1.91123187541962,0.75777155160904
526,704181504,1.54479956626892,-0.52383244037628,50.91086959838867,-0.01525489892811,0.26962411403656,10.00267887115479,1.26690578460693,1.74243390560150,0.74957501888275
527,704189837,1.54540491104126,-0.52374339103699,50.91085815429688,-0.01035431865603,0.28173190355301,9.99566173553467,1.37684214115143,1.81525528430939,0.77034813165665
528,704198170,1.54572319984436,-0.52381515502930,50.91062545776367,-0.01614049822092,0.30041387677193,10.01976394653320,1.33688366413116,1.79097294807434,0.69496548175812
529,704206503,1.54529917240143,-0.52387446165085,50.91022109985352,-0.00768493209034,0.29107162356377,10.01669120788574,1.25312507152557,1.79663348197937,0.72534382343292
530,704214836,1.54488444328308,-0.52515739202499,50.91028594970703,-0.00114191754255,0.27143090963364,9.98386573791504,1.25025629997253,1.64525341987610,0.74473387002945
531,704223169,1.54547488689423,-0.52474260330200,50.91019821166992,0.03617700189352,0.27167722582817,9.97331714630127,1.37525379657745,1.85431694984436,0.76158809661865
532,704231502,1.54665398597717,-0.52421361207962,50.91017913818359,0.01620188169181,0.28051567077637,9.97516536712646,1.44131302833557,1.86371743679047,0.75807905197144
533,704239835,1.54725468158722,-0.52326750755310,50.90993118286133,0.06977839767933,0.27234688401222,9.99533081054688,1.37579178810120,1.91766083240509,0.73914992809296
534,704248168,1.54700160026550,-0.52394276857376,50.90974426269531,0.09452581405640,0.27489799261093,9.98467540740967,1.26880109310150,1.71961176395416,0.74353003501892
535,704256501,1.54730308055878,-0.52352571487427,50.91000366210938,0.12184256315231,0.26889503002167,10.01610183715820,1.34049534797668,1.85595643520355,0.80275017023087
536,704264834,1.54804301261902,-0.52464598417282,50.91075134277344,0.11952165514231,0.30374142527580,10.01706123352051,1.38967466354370,1.66787087917328,0.83358967304230
537,704273167,1.54847908020020,-0.52482163906097,50.91136550903320,0.12518501281738,0.31348225474358,10.00961780548096,1.35655534267426,1.78608047962189,0.84752368927002
538,704281500,1.54815089702606,-0.52447855472565,50.91167449951172,0.13383808732033,0.25711601972580,10.00168418884277,1.26209008693695,1.84271359443665,0.81204807758331
539,704289833,1.54867923259735,-0.52472597360611,50.91114044189453,0.16210497915745,0.30455917119980,10.00504398345947,1.36654496192932,1.77360641956329,0.71092307567596
540,704298166,1.54861211776733,-0.52513825893402,50.91139221191406,0.18165995180607,0.29766261577606,9.99905300140381,1.29162335395813,1.75173175334930,0.76466172933578
541,704306499,1.54853105545044,-0.52463191747665,50.91123962402344,0.18949605524540,0.29748108983040,9.99649715423584,1.29456925392151,1.86568963527679,0.75036901235580
542,704314832,1.54820787906647,-0.52463406324387,50.91080093383789,0.18432122468948,0.28369069099426,9.98814964294434,1.26068127155304,1.79968166351318,0.72708564996719
543,704323165,1.54834711551666,-0.52502757310867,50.91056060791016,0.19041080772877,0.28459694981575,10.00022220611572,1.31987607479095,1.75685489177704,0.74534869194031
544,704331498,1.54866361618042,-0.52460896968842,50.91115570068359,0.16075555980206,0.30301162600517,9.97704219818115,1.33918917179108,1.85114097595215,0.77188491821289
545,704339831,1.54899227619171,-0.52360993623734,50.91151428222656,0.15701909363270,0.28946045041084,10.03211402893066,1.34372282028198,1.92526853084564,0.81430214643478
546,704348164,1.54811704158783,-0.52345323562622,50.91217041015625,0.14304462075233,0.26826605200768,9.99689579010010,1.19585168361664,1.82183790206909,0.82723730802536
547,704356497,1.54923403263092,-0.52251660823822,50.91231536865234,0.12559242546558,0.26364216208458,9.99236297607422,1.43788075447083,1.91850626468658,0.78750967979431
548,704364830,1.54931879043579,-0.52258771657944,50.91247177124023,0.11011651158333,0.27618569135666,10.01348876953125,1.31070590019226,1.79048621654510,0.72864806652069
549,704373163,1.54881906509399,-0.52345192432404,50.91242218017578,0.10585556924343,0.31477373838425,10.00443458557129,1.24405765533447,1.70055484771729,0.77009201049805
550,704381496,1.54898035526276,-0.52409160137177,50.91215133666992,0.08439961820841,0.27000287175179,9.98028087615967,1.31846714019775,1.72394061088562,0.71732670068741
551,704389829,1.54891836643219,-0.52339190244675,50.91225051879883,0.06442370265722,0.28215953707695,9.99323368072510,1.29743790626526,1.88892197608948,0.78282237052917
552,704398162,1.54882144927979,-0.52251946926117,50.91298294067383,0.02449795417488,0.31369805335999,10.03520774841309,1.28844738006592,1.90697991847992,0.80428707599640
553,704406495,1.54851472377777,-0.52257937192917,50.91324615478516,0.02088557742536,0.28842306137085,9.98519611358643,1.26698255538940,1.79873394966125,0.80482488870621
554,704414828,1.54844307899475,-0.52244395017624,50.91335678100586,-0.01126743480563,0.25382617115974,10.01913261413574,1.29290413856506,1.81653583049774,0.75426232814789
555,704423161,1.54862439632416,-0.52258205413818,50.91277694702148,-0.00576998433098,0.27650132775307,9.97587776184082,1.32407653331757,1.78687465190887,0.70334124565125
556,704431494,1.54879498481750,-0.52259570360184,50.91352081298828,-0.03731723129749,0.28581869602203,9.97842025756836,1.32138717174530,1.80134654045105,0.84460383653641
557,704439827,1.54863202571869,-0.52268159389496,50.91329574584961,-0.03164471685886,0.27904659509659,9.99560070037842,1.28560411930084,1.79338061809540,0.74611705541611
558,704448160,1.54903888702393,-0.52274560928345,50.91422653198242,-0.03005958162248,0.27978342771530,9.97707653045654,1.34853827953339,1.79691541194916,0.87183165550232
559,704456493,1.54885399341583,-0.52317625284195,50.91424942016602,-0.02265174314380,0.26586690545082,10.01542472839355,1.28189003467560,1.75332009792328,0.77772498130798
560,704464826,1.54844164848328,-0.52207773923874,50.91441345214844,-0.03365891426802,0.27140954136848,9.99456787109375,1.25030755996704,1.93285012245178,0.75331467390060
561,704473159,1.54879188537598,-0.52246332168579,50.91401290893555,-0.00880178250372,0.28612333536148,10.00747013092041,1.34630966186523,1.75741803646088,0.72442173957825
562,704481492,1.54865109920502,-0.52217298746109,50.91406631469727,0.03366420418024,0.28380471467972,9.98914527893066,1.28365731239319,1.83397924900055,0.76017922163010
563,704489825,1.54929304122925,-0.52189946174622,50.91423034667969,0.03311171755195,0.27101027965546,9.99043083190918,1.38142693042755,1.83869206905365,0.79109561443329
564,704498158,1.54968798160553,-0.52302837371826,50.91401672363281,0.05547950416803,0.28257831931114,10.01845645904541,1.34531092643738,1.66413116455078,0.72700881958008
565,704506491,1.54985404014587,-0.52394306659698,50.91364288330078,0.07631518691778,0.28377878665924,9.99838256835938,1.32507562637329,1.69338274002075,0.73079979419708
566,704514824,1.54986834526062,-0.52379113435745,50.91321182250977,0.08392041176558,0.27500304579735,10.02195549011230,1.29992258548737,1.81681776046753,0.69639986753464
567,704523157,1.55004227161407,-0.52384471893311,50.91320037841797,0.10954502224922,0.28145065903664,9.99523448944092,1.32622814178467,1.79824733734131,0.77086031436920
568,704531490,1.54915893077850,-0.52470582723618,50.91404342651367,0.12723422050476,0.28161138296127,10.02493000030518,1.19354653358459,1.69909465312958,0.83656090497971
569,704539823,1.54838609695435,-0.52598011493683,50.91382980346680,0.16397207975388,0.28140166401863,9.98310947418213,1.21186065673828,1.65086317062378,0.75036901235580
570,704548156,1.54828524589539,-0.52649784088135,50.91400909423828,0.17058256268501,0.26751148700714,9.99389839172363,1.28765308856964,1.73830997943878,0.74819189310074
571,704556489,1.54806542396545,-0.52646553516388,50.91490936279297,0.18826691806316,0.27740007638931,9.98062515258789,1.27894437313080,1.81079840660095,0.88217991590500
572,704564822,1.54829192161560,-0.52642184495926,50.91558456420898,0.18175189197063,0.27689298987389,9.98788356781006,1.32832872867584,1.80767345428467,0.81637692451477
573,704573155,1.54813098907471,-0.52601599693298,50.91514587402344,0.16226354241371,0.29973706603050,10.02112007141113,1.28450262546539,1.85190916061401,0.71847921609879
574,704581488,1.54816484451294,-0.52569901943207,50.91441726684570,0.18736910820007,0.29103007912636,10.00221920013428,1.30215072631836,1.83746266365051,0.68561619520187
575,704589821,1.54770159721375,-0.52620702981949,50.91451263427734,0.17830623686314,0.27037420868874,9.99511528015137,1.24930858612061,1.74412441253662,0.78589594364166
576,704598154,1.54777896404266,-0.52547609806061,50.91424179077148,0.16874425113201,0.28340944647789,9.99679565429688,1.30919480323792,1.88830697536469,0.75521010160446
577,704606487,1.54749095439911,-0.52605110406876,50.91429901123047,0.17270953953266,0.30407941341400,10.01108932495117,1.27051711082458,1.73551797866821,0.78220742940903
578,704614820,1.54803001880646,-0.52591741085052,50.91479873657227,0.13752941787243,0.28665697574615,10.02819919586182,1.36475217342377,1.81868767738342,0.79721742868423
579,704623153,1.54729580879211,-0.52471488714218,50.91487503051758,0.12847238779068,0.27964553236961,10.02093315124512,1.21649706363678,1.94921755790710,0.77926188707352
580,704631486,1.54736924171448,-0.52417564392090,50.91510772705078,0.09063407778740,0.26573714613914,9.99636459350586,1.30809342861176,1.86630463600159,0.78433358669281
581,704639819,1.54698944091797,-0.52297663688660,50.91509246826172,0.06801868230104,0.26994201540947,9.97984123229980,1.25950324535370,1.94827008247375,0.76599371433258
582,704648152,1.54657721519470,-0.52278369665146,50.91516494750977,0.07184679061174,0.28952664136887,10.03345489501953,1.25012838840485,1.82503998279572,0.77726393938065
583,704656485,1.54660701751709,-0.52168971300125,50.91553115844727,0.04125017672777,0.27983456850052,10.00342464447021,1.30898988246918,1.93656444549561,0.81417411565781
584,704664818,1.54659771919250,-0.52201068401337,50.91476058959961,0.04529647529125,0.29495167732239,9.99426555633545,1.29769396781921,1.75982594490051,0.67375683784485
585,704673151,1.54611694812775,-0.52221959829330,50.91473007202148,-0.00020726467483,0.27424794435501,9.97190284729004,1.24743890762329,1.77898538112640,0.77045065164566
586,704681484,1.54672384262085,-0.52098703384399,50.91498184204102,-0.00477171409875,0.28071182966232,9.99761009216309,1.37323045730591,1.94955074787140,0.78658759593964
587,704689817,1.54685461521149,-0.52155625820160,50.91491317749023,-0.02527160383761,0.26642012596130,10.00808525085449,1.31969666481018,1.73682439327240,0.76706945896149
588,704698150,1.54675388336182,-0.52229601144791,50.91529464721680,-0.03448713570833,0.27419590950012,10.00210285186768,1.28783249855042,1.71115887165070,0.74481076002121
589,704706483,1.54745173454285,-0.52137643098831,50.91583633422852,-0.05246575176716,0.25460717082024,9.97095489501953,1.38760006427765,1.91730237007141,0.83530580997467
590,704714816,1.54823613166809,-0.52184265851974,50.91598892211914,-0.02680006623268,0.27195310592651,9.98713397979736,1.39489996433258,1.74371457099915,0.76899051666260
591,704723149,1.54832446575165,-0.52223491668701,50.91564178466797,-0.00098847900517,0.25536221265793,10.00121688842773,1.31444573402405,1.75641918182373,0.73208051919937
592,704731482,1.54955303668976,-0.52220195531845,50.91519165039062,0.00299396738410,0.25738817453384,10.01210308074951,1.44651281833649,1.80370330810547,0.70293152332306
593,704739815,1.55001807212830,-0.52283912897110,50.91540145874023,0.02521157637239,0.28062775731087,9.99357700347900,1.36124289035797,1.72875595092773,0.79867744445801
594,704748148,1.55032932758331,-0.52249306440353,50.91555023193359,0.02595231309533,0.29132038354874,10.02954196929932,1.33575677871704,1.84176588058472,0.73991841077805
595,704756481,1.55050957202911,-0.52293640375137,50.91568756103516,0.03146746382117,0.28751659393311,10.00391387939453,1.32640743255615,1.75183427333832,0.79124927520752
596,704764814,1.55048096179962,-0.52287906408310,50.91586303710938,0.07504477351904,0.27841404080391,10.01125907897949,1.29682302474976,1.80895411968231,0.79601353406906
597,704773147,1.55059409141541,-0.52279031276703,50.91541290283203,0.07288765162230,0.27741840481758,9.97912120819092,1.31762182712555,1.81343662738800,0.72027224302292
598,704781480,1.55092704296112,-0.52375394105911,50.91511154174805,0.11500323563814,0.28894516825676,10.01773452758789,1.33916342258453,1.68393099308014,0.70964235067368
599,704789813,1.55089378356934,-0.52442824840546,50.91487884521484,0.13442413508892,0.29885178804398,10.00729274749756,1.30043470859528,1.72319781780243,0.74634754657745
600,704798146,1.55122780799866,-0.52443015575409,50.91504287719727,0.13387323915958,0.26589316129684,9.97224140167236,1.33982932567596,1.80111598968506,0.76473850011826
601,704806479,1.55152487754822,-0.52460312843323,50.91548156738281,0.13799747824669,0.27760562300682,10.00862026214600,1.34036719799042,1.78528666496277,0.82626396417618
602,704814812,1.55220043659210,-0.52407306432724,50.91528701782227,0.15260148048401,0.28103312849998,9.98752975463867,1.38019752502441,1.86317956447601,0.72611236572266
603,704823145,1.55205798149109,-0.52319574356079,50.91520690917969,0.17729842662811,0.27748087048531,9.99483108520508,1.28790938854218,1.90959239006042,0.75920587778091
604,704831478,1.55211162567139,-0.52234899997711,50.91492843627930,0.17971222102642,0.27823439240456,10.01998615264893,1.30548071861267,1.90137040615082,0.71130740642548
605,704839811,1.55257976055145,-0.52252119779587,50.91602325439453,0.17922231554985,0.30632320046425,10.00495338439941,1.36111474037170,1.78746378421783,0.90577048063278
606,704848144,1.55242121219635,-0.52322781085968,50.91668701171875,0.18392710387707,0.29103395342827,9.99841880798340,1.28140318393707,1.71853554248810,0.83873808383942
607,704856477,1.55247962474823,-0.52282905578613,50.91640853881836,0.18727238476276,0.25565502047539,10.00277996063232,1.31224298477173,1.85096144676208,0.73761314153671
608,704864810,1.55279636383057,-0.52212268114090,50.91690063476562,0.15750558674335,0.28831857442856,10.01700019836426,1.33744716644287,1.88669335842133,0.79232513904572
609,704873143,1.55153131484985,-0.52152699232101,50.91700744628906,0.15841013193130,0.29845029115677,10.01472091674805,1.15269172191620,1.87655007839203,0.78469210863113
610,704881476,1.55142986774445,-0.52210551500320,50.91717147827148,0.11758383363485,0.29315426945686,9.98073482513428,1.28757631778717,1.73195767402649,0.76878559589386
611,704889809,1.55098402500153,-0.52289754152298,50.91699600219727,0.10283550620079,0.28744229674339,9.98913860321045,1.25053822994232,1.70939159393311,0.75364768505096
612,704898142,1.54996418952942,-0.52359735965729,50.91756439208984,0.09684639424086,0.29275649785995,9.99477481842041,1.17789614200592,1.71710133552551,0.77690529823303
613,704906475,1.55009019374847,-0.52277714014053,50.91701126098633,0.09571095556021,0.26893588900566,9.99433422088623,1.31974792480469,1.90142154693604,0.70418661832809
614,704914808,1.55109059810638,-0.52261120080948,50.91663742065430,0.05220617726445,0.29459312558174,10.01158142089844,1.41815757751465,1.82004499435425,0.70395600795746
615,704923141,1.55091035366058,-0.52312129735947,50.91603851318359,0.02950792387128,0.29171395301819,9.99750995635986,1.28278660774231,1.74076890945435,0.70188122987747
616,704931474,1.55048215389252,-0.52292197942734,50.91600036621094,0.00781494379044,0.25299516320229,9.99441623687744,1.24825859069824,1.82511687278748,0.75505644083023
617,704939807,1.54984867572784,-0.52344846725464,50.91564941406250,-0.01390501670539,0.27976411581039,10.03563785552979,1.22799754142761,1.74071764945984,0.73149132728577
618,704948140,1.54972577095032,-0.52367746829987,50.91591262817383,-0.01160586997867,0.28968539834023,9.97410202026367,1.28568077087402,1.77342712879181,0.77127021551132
619,704956473,1.54901337623596,-0.52395099401474,50.91630554199219,-0.01516432221979,0.25550377368927,9.98485755920410,1.21941685676575,1.77386283874512,0.81968116760254
620,704964806,1.54917883872986,-0.52341264486313,50.91637039184570,0.00645001372322,0.26741880178452,10.01714611053467,1.32005536556244,1.86530542373657,0.76653158664703
621,704973139,1.54955923557281,-0.52336114645004,50.91690444946289,-0.02047577314079,0.27231857180595,10.00544643402100,1.34999835491180,1.81266820430756,0.83768796920776
622,704981472,1.54986608028412,-0.52315682172775,50.91789245605469,-0.01690825074911,0.27397054433823,10.01891517639160,1.33824145793915,1.82813918590546,0.85116112232208
623,704989805,1.55090594291687,-0.52331513166428,50.91816329956055,-0.02307801879942,0.27865365147591,9.97694110870361,1.42894136905670,1.78633689880371,0.80577266216278
624,704998138,1.55107796192169,-0.52256375551224,50.91832351684570,0.00402687955648,0.28436902165413,10.00850486755371,1.32033717632294,1.89250802993774,0.79470729827881
625,705006471,1.55117666721344,-0.52213644981384,50.91804885864258,0.01438522525132,0.28530558943748,10.01311874389648,1.31708407402039,1.85406088829041,0.73940616846085
626,705014804,1.55162203311920,-0.52205085754395,50.91744613647461,0.03653421252966,0.30512088537216,9.98754692077637,1.35179126262665,1.81005561351776,0.69250655174255
627,705023137,1.55148541927338,-0.52379870414734,50.91678619384766,0.07404298335314,0.26872324943542,9.99417495727539,1.28719222545624,1.59302616119385,0.69949913024902
628,705031470,1.55167174339294,-0.52307474613190,50.91699981689453,0.06867961585522,0.27000415325165,9.97280025482178,1.32197630405426,1.88812792301178,0.75774604082108
629,705039803,1.55218148231506,-0.52254229784012,50.91680526733398,0.08965515345335,0.29418691992760,9.99665451049805,1.36564862728119,1.86740601062775,0.74785888195038
630,705048136,1.55192244052887,-0.52184641361237,50.91682815551758,0.10226291418076,0.28098499774933,9.98192405700684,1.26839137077332,1.88423454761505,0.75103503465652
631,705056469,1.55242979526520,-0.52162063121796,50.91670608520508,0.09970974922180,0.26804131269455,9.99912548065186,1.36603295803070,1.83090567588806,0.75684946775436
632,705064802,1.55307698249817,-0.52269375324249,50.91643524169922,0.15221959352493,0.28238403797150,10.00504970550537,1.37658584117889,1.67104697227478,0.71561044454575
633,705073135,1.55337011814117,-0.52271419763565,50.91664505004883,0.16796946525574,0.28994476795197,9.98358917236328,1.34070014953613,1.80255055427551,0.79765290021896
634,705081468,1.55389690399170,-0.52180415391922,50.91745376586914,0.17175510525703,0.29165056347847,9.97872638702393,1.36382997035980,1.91084766387939,0.81184315681458
635,705089801,1.55322420597076,-0.52086097002029,50.91759872436523,0.21595662832260,0.27665129303932,9.99101638793945,1.22307980060577,1.91896724700928,0.78730475902557
636,705098134,1.55353915691376,-0.52137470245361,50.91806793212891,0.18835748732090,0.28242132067680,9.99913406372070,1.33913767337799,1.74056398868561,0.82498323917389
637,705106467,1.55459463596344,-0.52153354883194,50.91791534423828,0.18454006314278,0.27448385953903,10.01710224151611,1.43058061599731,1.78490233421326,0.75587600469589
638,705114800,1.55428683757782,-0.52184140682220,50.91760253906250,0.17968176305294,0.29299771785736,10.03025627136230,1.26221847534180,1.76364266872406,0.72186040878296
639,705123133,1.55431187152863,-0.52219450473785,50.91747283935547,0.16323511302471,0.29635956883430,10.04794216156006,1.30709457397461,1.76151669025421,0.75677257776260
640,705131466,1.55431687831879,-0.52160227298737,50.91748428344727,0.17086966335773,0.27365064620972,9.98527431488037,1.29971742630005,1.87257981300354,0.75715678930283
641,705139799,1.55389380455017,-0.52152889966965,50.91742324829102,0.14983952045441,0.28083398938179,10.01511192321777,1.25366306304932,1.81310367584229,0.76653152704239
642,705148132,1.55385088920593,-0.52207410335541,50.91720581054688,0.12582932412624,0.29210105538368,10.02960491180420,1.29526054859161,1.73679876327515,0.78510183095932
643,705156465,1.55360531806946,-0.52312564849854,50.91814041137695,0.11188025027514,0.25978925824165,10.02692222595215,1.27604985237122,1.68154883384705,0.88837862014771
644,705164798,1.55449056625366,-0.52232885360718,50.91909790039062,0.08783385902643,0.26519310474396,10.02460289001465,1.40747642517090,1.89839899539948,0.85820490121841
645,705173131,1.55426406860352,-0.52166587114334,50.91927337646484,0.04901000112295,0.28448873758316,10.03139972686768,1.27679264545441,1.88582253456116,0.79265815019608
646,705181464,1.55381786823273,-0.52182716131210,50.91983413696289,0.04159704223275,0.28321933746338,9.99757099151611,1.24710583686829,1.78149569034576,0.78433352708817
647,705189797,1.55349671840668,-0.52202469110489,50.91975021362305,0.02531725727022,0.24269759654999,9.99994087219238,1.26598358154297,1.78085517883301,0.76266384124756
648,705198130,1.55354237556458,-0.52173811197281,50.91964721679688,0.00447663944215,0.27602845430374,10.01829719543457,1.30450737476349,1.83490133285522,0.74642437696457
649,705206463,1.55241739749908,-0.52210813760757,50.92057037353516,-0.00676629226655,0.28350570797920,9.98167991638184,1.17115974426270,1.76320707798004,0.88325572013855
650,705214796,1.55188155174255,-0.52137756347656,50.92060470581055,-0.00687621207908,0.26088672876358,10.03172397613525,1.23493921756744,1.88874268531799,0.76251024007797
651,705223129,1.55175626277924,-0.52063691616058,50.91975784301758,-0.02786393091083,0.26532071828842,9.98728466033936,1.28970241546631,1.89058661460876,0.66848033666611
652,705231462,1.55212235450745,-0.52006363868713,50.92053985595703,-0.03069392591715,0.28607252240181,9.97852230072021,1.34321045875549,1.87237513065338,0.83056718111038
653,705239795,1.55252170562744,-0.52006798982620,50.92062377929688,-0.01449379324913,0.27766725420952,10.00315761566162,1.35255968570709,1.80449736118317,0.78300160169601
654,705248128,1.55279183387756,-0.51999044418335,50.92066955566406,-0.01379329152405,0.26688483357430,10.00386714935303,1.33283662796021,1.80872356891632,0.73784363269806
655,705256461,1.55231738090515,-0.52062797546387,50.92169189453125,0.00355924246833,0.27067941427231,9.99249839782715,1.24805378913879,1.73198354244232,0.89644706249237
656,705264794,1.55250501632690,-0.51949924230576,50.92251968383789,0.02500713616610,0.26216122508049,10.00706481933594,1.32341063022614,1.93876671791077,0.85761576890945
657,705273127,1.55257439613342,-0.51934707164764,50.92232131958008,0.02766366675496,0.26414704322815,10.00876045227051,1.31191003322601,1.82306754589081,0.74916517734528
658,705281460,1.55315113067627,-0.51824426651001,50.92212677001953,0.05522552877665,0.28915745019913,9.99249553680420,1.37054085731506,1.93075001239777,0.72713685035706
659,705289793,1.55325520038605,-0.51849669218063,50.92218399047852,0.04247602820396,0.26310133934021,9.97913265228271,1.31672537326813,1.77473366260529,0.77946674823761
660,705298126,1.55361390113831,-0.51935124397278,50.92189788818359,0.07461903244257,0.27031674981117,10.01162147521973,1.34282624721527,1.69663584232330,0.72122001647949
661,705306459,1.55475175380707,-0.51895809173584,50.92130279541016,0.10171118378639,0.30319014191628,10.01506328582764,1.44003224372864,1.85073089599609,0.69901251792908
662,705314792,1.55491483211517,-0.51802372932434,50.92182540893555,0.13610650599003,0.29948088526726,10.00516605377197,1.31954288482666,1.91312682628632,0.81135642528534
663,705323125,1.55517017841339,-0.51807159185410,50.92246246337891,0.15620379149914,0.27558225393295,9.98425388336182,1.33591055870056,1.80160284042358,0.84662735462189
664,705331458,1.55493807792664,-0.51829957962036,50.92198944091797,0.17219755053520,0.30716764926910,9.98532485961914,1.27115750312805,1.77194142341614,0.69796228408813
665,705339791,1.55480444431305,-0.51832467317581,50.92098999023438,0.16802833974361,0.30835765600204,10.01534652709961,1.28803730010986,1.79824733734131,0.65211278200150
666,705348124,1.55390536785126,-0.51782399415970,50.92052841186523,0.16821874678135,0.28427493572235,10.00211048126221,1.19142043590546,1.85900402069092,0.70303386449814
667,705356457,1.55428421497345,-0.51846909523010,50.92095947265625,0.17306545376778,0.29065737128258,9.99423122406006,1.35020315647125,1.72878146171570,0.82639199495316
668,705364790,1.55389440059662,-0.51803183555603,50.92078399658203,0.17216530442238,0.26314145326614,10.01324081420898,1.25340700149536,1.85165297985077,0.73938041925430
669,705373123,1.55363142490387,-0.51706957817078,50.92066574096680,0.18233770132065,0.27586930990219,10.00947380065918,1.27207994461060,1.92035055160522,0.75574803352356
670,705381456,1.55321300029755,-0.51621586084366,50.92071533203125,0.18489897251129,0.25853908061981,9.99231624603271,1.25058948993683,1.90334284305573,0.75628596544266
671,705389789,1.55348289012909,-0.51541513204575,50.92034530639648,0.18466635048389,0.27165773510933,9.99434375762939,1.33596169948578,1.89919328689575,0.72613793611526
672,705398122,1.55393779277802,-0.51515626907349,50.92131042480469,0.15255050361156,0.25849679112434,10.03292369842529,1.35435283184052,1.83500373363495,0.85359448194504
673,705406455,1.55329334735870,-0.51495671272278,50.92104339599609,0.12883371114731,0.29619333148003,9.98699569702148,1.22720372676849,1.82742178440094,0.74142962694168
674,705414788,1.55249869823456,-0.51482439041138,50.92161941528320,0.09179180115461,0.27371168136597,9.99338054656982,1.20507287979126,1.81843137741089,0.82370263338089
675,705423121,1.55233228206635,-0.51470613479614,50.92125701904297,0.06834000349045,0.25517410039902,9.98965263366699,1.28396475315094,1.81743252277374,0.72933971881866
676,705431454,1.55301678180695,-0.51394885778427,50.92211914062500,0.05984079837799,0.30247783660889,10.00177192687988,1.38309192657471,1.89512050151825,0.85113549232483
677,705439787,1.55235373973846,-0.51328277587891,50.92183303833008,0.04745880886912,0.28075793385506,10.00631427764893,1.22436058521271,1.88379907608032,0.73676794767380
678,705448120,1.55214476585388,-0.51332652568817,50.92169189453125,0.04136165231466,0.25922566652298,9.99168682098389,1.27453875541687,1.79507100582123,0.74025136232376
679,705456453,1.55147302150726,-0.51340329647064,50.92153549194336,-0.00766270421445,0.28342297673225,10.00981140136719,1.22430920600891,1.79453313350677,0.75469779968262
680,705464786,1.55131483078003,-0.51325738430023,50.92214965820312,-0.00839499942958,0.26970884203911,9.96793460845947,1.28183877468109,1.82055747509003,0.83428132534027
681,705473119,1.55101597309113,-0.51343023777008,50.92156600952148,-0.01421966403723,0.26096606254578,9.96983337402344,1.26708519458771,1.78293013572693,0.70259845256805
682,705481452,1.55047988891602,-0.51236653327942,50.92110824584961,-0.02396393939853,0.27186906337738,9.97723770141602,1.23621988296509,1.92578065395355,0.70118963718414
683,705489785,1.55024051666260,-0.51196461915970,50.92109298706055,-0.02726985141635,0.25275436043739,9.98034763336182,1.27487182617188,1.85308730602264,0.77057862281799
684,705498118,1.55126976966858,-0.51197957992554,50.92187118530273,-0.01343379076570,0.26467695832253,9.98065567016602,1.42412567138672,1.80124402046204,0.82129478454590
685,705506451,1.55206024646759,-0.51189464330673,50.92242050170898,0.00068343093153,0.28209251165390,10.01211547851562,1.40097069740295,1.81561398506165,0.83773922920227
686,705514784,1.55183601379395,-0.51186347007751,50.92266464233398,-0.00994786899537,0.26733955740929,10.01923179626465,1.27261745929718,1.80503499507904,0.77895450592041
687,705523117,1.55171883106232,-0.51130777597427,50.92298507690430,0.00226164096966,0.27229285240173,9.98674011230469,1.29054772853851,1.87252879142761,0.80748879909515
688,705531450,1.55155062675476,-0.51235258579254,50.92322158813477,0.01842696033418,0.27859926223755,9.99424839019775,1.28017389774323,1.67593944072723,0.78853422403336
689,705539783,1.55208945274353,-0.51206833124161,50.92327117919922,0.02571449615061,0.30316790938377,9.97629547119141,1.36931145191193,1.83907651901245,0.77874964475632
690,705548116,1.55269920825958,-0.51326185464859,50.92313003540039,0.05616778880358,0.26737239956856,10.00465488433838,1.37261557579041,1.65652382373810,0.75472342967987
691,705556449,1.55249726772308,-0.51350235939026,50.92325592041016,0.09351126104593,0.26452410221100,10.00205135345459,1.28042995929718,1.77627027034760,0.78904640674591
692,705564782,1.55315589904785,-0.51337492465973,50.92348098754883,0.08774346858263,0.28098767995834,9.99746990203857,1.37889111042023,1.81668949127197,0.77762264013290
693,705573115,1.55309736728668,-0.51320356130600,50.92364120483398,0.12842112779617,0.28689980506897,10.00844192504883,1.29856503009796,1.82532179355621,0.79132622480392
694,705581448,1.55389702320099,-0.51314473152161,50.92392349243164,0.13721226155758,0.28729373216629,9.98285484313965,1.39536106586456,1.80882596969604,0.80474799871445
695,705589781,1.55393338203430,-0.51181793212891,50.92422103881836,0.14008110761642,0.28270721435547,10.01254940032959,1.30952775478363,1.96448361873627,0.80456876754761
696,705598114,1.55424642562866,-0.51079481840134,50.92429733276367,0.15840619802475,0.26863688230515,10.01451110839844,1.33729350566864,1.92526829242706,0.77823728322983
697,705606447,1.55370080471039,-0.51101493835449,50.92413711547852,0.16672994196415,0.29066902399063,10.01997661590576,1.23983144760132,1.77678263187408,0.75482589006424
698,705614780,1.55342650413513,-0.51187795400620,50.92453002929688,0.18874864280224,0.30635511875153,10.00852394104004,1.26647019386292,1.69922268390656,0.80088025331497
699,705623113,1.55349028110504,-0.51285707950592,50.92469406127930,0.18153804540634,0.27825859189034,9.98890304565430,1.31265270709991,1.68761932849884,0.79527068138123
700,705631446,1.55388617515564,-0.51266670227051,50.92498016357422,0.17011265456676,0.28239890933037,10.02399635314941,1.34789788722992,1.82414329051971,0.76924663782120
701,705639779,1.55362558364868,-0.51416510343552,50.92462921142578,0.15302556753159,0.31295585632324,10.00347423553467,1.27154171466827,1.62417304515839,0.73558956384659
702,705648112,1.55355191230774,-0.51414221525192,50.92508697509766,0.17080914974213,0.27872714400291,10.01015090942383,1.29216122627258,1.80424118041992,0.81022942066193
703,705656445,1.55345249176025,-0.51423436403275,50.92475891113281,0.14727061986923,0.27685168385506,9.97345256805420,1.29208445549011,1.79253530502319,0.73202919960022
704,705664778,1.55273568630219,-0.51430654525757,50.92446899414062,0.12977102398872,0.29263243079185,10.00059509277344,1.21421718597412,1.79120349884033,0.73028743267059
705,705673111,1.55242323875427,-0.51441699266434,50.92488861083984,0.10993648320436,0.29015466570854,9.99571514129639,1.26636791229248,1.79356014728546,0.82285737991333
