sep=,
DeviceTag:,left leg
FirmwareVersion:,2.2.1
AppVersion:,2023.6.0
StartTime: ,2025-03-06_12:19:49_000 PST
© Movella Technologies B. V. 2005-2025

PacketCounter,SampleTimeFine,Euler_X,Euler_Y,Euler_Z,Acc_X,Acc_Y,Acc_Z,Gyr_X,Gyr_Y,Gyr_Z
0,613251808,1.59038460254669,-0.44570693373680,50.86436080932617,0.00000000000000,0.00000000000000,0.00000000000000,0.00000000000000,0.00000000000000,0.00000000000000
1,613260141,1.59064853191376,-0.44529005885124,50.86443328857422,0.07744418829679,0.29329133033752,9.99282646179199,1.33671736717224,1.85822296142578,0.77468973398209
2,613268474,1.59092760086060,-0.44508221745491,50.86463165283203,0.06763473153114,0.25869560241699,10.01592445373535,1.33792114257812,1.83378708362579,0.80501699447632
3,613276807,1.59089815616608,-0.44458240270615,50.86425781250000,0.09399334341288,0.28388470411301,9.98800086975098,1.30352115631104,1.86421668529510,0.72031068801880
4,613285140,1.59110331535339,-0.44474959373474,50.86475372314453,0.08702144771814,0.26847073435783,10.01792144775391,1.32893037796021,1.78827059268951,0.79927939176559
5,613293473,1.59059107303619,-0.44472330808640,50.86463165283203,0.09291943162680,0.25496691465378,9.99713802337646,1.24378883838654,1.80978643894196,0.75061231851578
6,613301806,1.59129679203033,-0.44391208887100,50.86425781250000,0.09201832115650,0.26275470852852,9.98346042633057,1.39037919044495,1.90307366847992,0.72082298994064
7,613310139,1.59103965759277,-0.44479551911354,50.86447525024414,0.08246149122715,0.29687276482582,9.99548530578613,1.27611398696899,1.70092618465424,0.79308074712753
8,613318472,1.59087300300598,-0.44534274935722,50.86425018310547,0.07513029873371,0.26129132509232,10.00153827667236,1.28390061855316,1.74073052406311,0.72725206613541
9,613326805,1.59199297428131,-0.44542104005814,50.86385345458984,0.05414784327149,0.25970107316971,9.99188709259033,1.44094181060791,1.79615986347198,0.71844094991684
10,613335138,1.59138870239258,-0.44448503851891,50.86425781250000,0.08566802740097,0.27529522776604,10.00953292846680,1.23208320140839,1.92179775238037,0.81779855489731
11,613343471,1.59089028835297,-0.44440096616745,50.86473846435547,0.06209542229772,0.27095359563828,9.99226951599121,1.24706733226776,1.81724011898041,0.82102584838867
12,613351804,1.59115028381348,-0.44467094540596,50.86437988281250,0.08640127629042,0.28919258713722,10.00975704193115,1.33533406257629,1.77554023265839,0.75450563430786
13,613360137,1.59065520763397,-0.44437947869301,50.86497116088867,0.10437891632318,0.27869322896004,9.99892520904541,1.24763107299805,1.84282898902893,0.83718854188919
14,613368470,1.59018301963806,-0.44433259963989,50.86546325683594,0.09965410828590,0.26358669996262,10.01309680938721,1.24891161918640,1.81501185894012,0.82473993301392
15,613376803,1.59026932716370,-0.44396802783012,50.86498260498047,0.07544154673815,0.27519533038139,9.97223281860352,1.31625139713287,1.84897625446320,0.70745229721069
16,613385136,1.59034490585327,-0.44370451569557,50.86526107788086,0.06500070542097,0.29607620835304,10.01519870758057,1.31322908401489,1.83957588672638,0.79364430904388
17,613393469,1.59063744544983,-0.44389787316322,50.86505126953125,0.06211212649941,0.28078892827034,9.98841667175293,1.34150695800781,1.78166210651398,0.74080199003220
18,613401802,1.59132266044617,-0.44451236724854,50.86535644531250,0.08491741120815,0.26717987656593,9.97826385498047,1.38784325122833,1.73504412174225,0.79100596904755
19,613410135,1.59191870689392,-0.44397017359734,50.86537551879883,0.10353035479784,0.29660072922707,10.00534629821777,1.37746930122375,1.87115836143494,0.76710784435272
20,613418468,1.59250235557556,-0.44381022453308,50.86513519287109,0.10919018089771,0.27638939023018,10.01972579956055,1.37516438961029,1.82735800743103,0.77684140205383
21,613426801,1.59271609783173,-0.44469636678696,50.86475372314453,0.09504482150078,0.26678806543350,9.97438907623291,1.33182489871979,1.69821083545685,0.72174507379532
22,613435134,1.59315860271454,-0.44449865818024,50.86410140991211,0.08584805577993,0.29946497082710,10.02110767364502,1.35646581649780,1.83099508285522,0.69666874408722
23,613443467,1.59307765960693,-0.44460824131966,50.86463165283203,0.07208331674337,0.28233233094215,9.99861145019531,1.29696393013000,1.79393124580383,0.83034938573837
24,613451800,1.59337925910950,-0.44416439533234,50.86423492431641,0.07176022231579,0.27538856863976,10.03062248229980,1.34132790565491,1.86022102832794,0.72963440418243
25,613460133,1.59330463409424,-0.44488340616226,50.86377334594727,0.08226799964905,0.28855443000793,10.01964092254639,1.29681026935577,1.71731913089752,0.71265202760696
26,613468466,1.59311497211456,-0.44431462883949,50.86367416381836,0.08839179575443,0.27998828887939,10.00415325164795,1.28126251697540,1.87766444683075,0.77530449628830
27,613476799,1.59313905239105,-0.44350773096085,50.86387634277344,0.09890345484018,0.29813253879547,9.99835968017578,1.30971992015839,1.90276634693146,0.78565269708633
28,613485132,1.59345889091492,-0.44385594129562,50.86359786987305,0.09963282197714,0.27734988927841,10.04434394836426,1.34294152259827,1.76491057872772,0.73603790998459
29,613493465,1.59356486797333,-0.44310858845711,50.86371231079102,0.07902234792709,0.28672185540199,10.03403568267822,1.31973505020142,1.89733588695526,0.77717429399490
30,613501798,1.59372460842133,-0.44301557540894,50.86351394653320,0.06682418286800,0.27941027283669,10.00177383422852,1.32360279560089,1.81713771820068,0.74215966463089
31,613510131,1.59382331371307,-0.44258725643158,50.86441040039062,0.07814314961433,0.29577824473381,9.99775600433350,1.31970942020416,1.85999047756195,0.87217748165131
32,613518464,1.59359860420227,-0.44240972399712,50.86376953125000,0.07846434414387,0.27932769060135,9.98766422271729,1.27616512775421,1.82899725437164,0.72271847724915
33,613526797,1.59396493434906,-0.44287893176079,50.86387634277344,0.08580421656370,0.27272406220436,9.99624729156494,1.35083055496216,1.74974679946899,0.78022235631943
34,613535130,1.59389102458954,-0.44339841604233,50.86444091796875,0.08711301535368,0.29110422730446,9.99794006347656,1.29696381092072,1.74741590023041,0.84269553422928
35,613543463,1.59391820430756,-0.44341826438904,50.86448287963867,0.08731795102358,0.27941954135895,9.99852943420410,1.30931007862091,1.80417704582214,0.77089881896973
36,613551796,1.59486603736877,-0.44323334097862,50.86464691162109,0.08844946324825,0.29382085800171,10.01712417602539,1.41965627670288,1.83058547973633,0.78585755825043
37,613560129,1.59405601024628,-0.44319593906403,50.86476135253906,0.08063817769289,0.26973804831505,9.98355960845947,1.20867156982422,1.81068301200867,0.78006863594055
38,613568462,1.59419250488281,-0.44265580177307,50.86428833007812,0.06262060254812,0.28123819828033,10.00466918945312,1.32119524478912,1.87292587757111,0.73265683650970
39,613576795,1.59426152706146,-0.44278508424759,50.86378479003906,0.06296399980783,0.29383036494255,10.03292274475098,1.31422781944275,1.78832173347473,0.70601791143417
40,613585128,1.59368288516998,-0.44241786003113,50.86396789550781,0.08055698126554,0.27808395028114,9.96261596679688,1.23505437374115,1.85207557678223,0.79802423715591
41,613593461,1.59384977817535,-0.44260430335999,50.86408615112305,0.08820805698633,0.27372738718987,10.01300621032715,1.32677888870239,1.78445410728455,0.78078585863113
42,613601794,1.59306597709656,-0.44217735528946,50.86447906494141,0.09015732258558,0.28224459290504,9.99338912963867,1.21005463600159,1.86045157909393,0.79092913866043
43,613610127,1.59233558177948,-0.44175797700882,50.86474227905273,0.08653633296490,0.26467508077621,9.99716663360596,1.21973717212677,1.85637903213501,0.79584711790085
44,613618460,1.59290182590485,-0.44197803735733,50.86467742919922,0.08073129504919,0.27169653773308,9.99967956542969,1.37275648117065,1.78227710723877,0.77176970243454
45,613626793,1.59311127662659,-0.44188711047173,50.86437988281250,0.07802251726389,0.28300127387047,10.02402019500732,1.33059549331665,1.81585705280304,0.72999286651611
46,613635126,1.59259808063507,-0.44239810109138,50.86387634277344,0.05746727809310,0.28363463282585,10.01985359191895,1.24281537532806,1.74626314640045,0.73708796501160
47,613643459,1.59201884269714,-0.44249638915062,50.86309432983398,0.08424659818411,0.25499930977821,10.00147914886475,1.23718047142029,1.79060161113739,0.67069596052170
48,613651792,1.59128296375275,-0.44212064146996,50.86307144165039,0.08647790551186,0.27274367213249,9.98542118072510,1.21661210060120,1.85256242752075,0.74026423692703
49,613660125,1.59080171585083,-0.44212415814400,50.86249160766602,0.09299315512180,0.26911941170692,9.99359035491943,1.24716985225677,1.80479168891907,0.69505506753922
50,613668458,1.59070694446564,-0.44186371564865,50.86323165893555,0.08456403017044,0.26904305815697,10.01088428497314,1.29447948932648,1.84116411209106,0.87904220819473
51,613676791,1.59105217456818,-0.44259068369865,50.86392593383789,0.07936216890812,0.27546718716621,10.00114536285400,1.34750068187714,1.72200655937195,0.85081523656845
52,613685124,1.59114515781403,-0.44140115380287,50.86423873901367,0.08893669396639,0.29055613279343,9.98535537719727,1.31735289096832,1.95227849483490,0.80278861522675
53,613693457,1.59084606170654,-0.44062447547913,50.86405181884766,0.07753093540668,0.27459666132927,10.00839424133301,1.27040207386017,1.89754092693329,0.73990559577942
54,613701790,1.59163832664490,-0.44130551815033,50.86413955688477,0.07988759130239,0.27726441621780,9.99215316772461,1.39883172512054,1.72651481628418,0.75381416082382
55,613710123,1.59154295921326,-0.44183948636055,50.86370086669922,0.10100299865007,0.29506897926331,9.97654056549072,1.29442822933197,1.74052560329437,0.71675032377243
56,613718456,1.59162294864655,-0.44176825881004,50.86287689208984,0.09189908206463,0.27348190546036,9.98962497711182,1.31427919864655,1.81406414508820,0.66813451051712
57,613726789,1.59130299091339,-0.44129481911659,50.86262893676758,0.09154588729143,0.29603803157806,9.97915267944336,1.26735401153564,1.86139929294586,0.73460346460342
58,613735122,1.59062647819519,-0.44045865535736,50.86251068115234,0.06727290153503,0.28871715068817,10.00617408752441,1.22337412834167,1.90919518470764,0.76452082395554
59,613743455,1.58926677703857,-0.44006818532944,50.86237716674805,0.08969113230705,0.28485372662544,9.99141502380371,1.14340662956238,1.85133278369904,0.74976712465286
60,613751788,1.58956670761108,-0.43992933630943,50.86220550537109,0.07380909472704,0.29044634103775,10.02630805969238,1.34104609489441,1.82361853122711,0.72781568765640
61,613760121,1.58945035934448,-0.44054585695267,50.86182403564453,0.09250492602587,0.30197605490685,9.97537231445312,1.29122638702393,1.73053598403931,0.72235977649689
62,613768454,1.58906567096710,-0.44109281897545,50.86167526245117,0.07749273627996,0.26491665840149,10.02222633361816,1.25869643688202,1.74111497402191,0.71016746759415
63,613776787,1.58958208560944,-0.44101491570473,50.86104965209961,0.08999190479517,0.27969428896904,10.01455116271973,1.36683952808380,1.81391048431396,0.69067502021790
64,613785120,1.58944606781006,-0.44160822033882,50.86135482788086,0.08990223705769,0.28675121068954,9.98859977722168,1.28935647010803,1.73683714866638,0.81946343183517
65,613793453,1.58975672721863,-0.44152137637138,50.86130523681641,0.09055551141500,0.26520356535912,9.98882484436035,1.34376120567322,1.81631827354431,0.75957739353180
66,613801786,1.58977758884430,-0.44137549400330,50.86183929443359,0.07776198536158,0.26713335514069,10.02246952056885,1.30951488018036,1.82605147361755,0.82963228225708
67,613810119,1.58423101902008,-0.44249975681305,50.85591125488281,0.07060497254133,0.28655323386192,10.01507091522217,1.41153645515442,1.89871919155121,0.76682621240616
68,613818452,1.58462917804718,-0.44136789441109,50.85543823242188,0.07187207788229,0.27349439263344,9.99127006530762,1.35244441032410,1.94180226325989,0.69554167985916
69,613826785,1.58521950244904,-0.44021058082581,50.85536193847656,0.06165080145001,0.27502480149269,9.97850608825684,1.37885272502899,1.94392848014832,0.75453138351440
70,613835118,1.58541524410248,-0.43991470336914,50.85515213012695,0.09043782204390,0.29242497682571,10.02341365814209,1.32849526405334,1.84346938133240,0.75637561082840
71,613843451,1.58513474464417,-0.44019982218742,50.85454177856445,0.09083551913500,0.27948763966560,10.00204086303711,1.27181077003479,1.76990509033203,0.69341576099396
72,613851784,1.58571422100067,-0.43961596488953,50.85469818115234,0.08835026621819,0.26535180211067,9.99206352233887,1.37559974193573,1.87961113452911,0.82348483800888
73,613860117,1.58608543872833,-0.43983107805252,50.85380554199219,0.07585908472538,0.32011884450912,9.98536682128906,1.34962666034698,1.77781987190247,0.65852910280228
74,613868450,1.58527588844299,-0.43926244974136,50.85453796386719,0.07991379499435,0.26172959804535,9.99696636199951,1.20967054367065,1.87812530994415,0.83921194076538
75,613876783,1.58556127548218,-0.43927896022797,50.85460281372070,0.07748051732779,0.24565207958221,9.99426078796387,1.34099483489990,1.80394673347473,0.77363955974579
76,613885116,1.58593416213989,-0.43946990370750,50.85478210449219,0.09979379177094,0.29493382573128,9.99621868133545,1.35011374950409,1.78617036342621,0.82220417261124
77,613893449,1.58582663536072,-0.44003385305405,50.85557556152344,0.09154141694307,0.27916777133942,9.98274230957031,1.29437685012817,1.74129402637482,0.86375039815903
78,613901782,1.58554792404175,-0.44068080186844,50.85614013671875,0.09241026639938,0.26052603125572,9.98012638092041,1.27255356311798,1.73307204246521,0.84005725383759
79,613910115,1.58538353443146,-0.43943211436272,50.85620880126953,0.07753352075815,0.28426086902618,10.00973129272461,1.28805029392242,1.95586454868317,0.77097570896149
80,613918448,1.58450126647949,-0.43960109353065,50.85593032836914,0.07992647588253,0.26042419672012,10.01251506805420,1.19893825054169,1.78801441192627,0.75514602661133
81,613926781,1.58443689346313,-0.43970257043839,50.85601043701172,0.06408025324345,0.26324975490570,9.99023056030273,1.29919242858887,1.79354703426361,0.77620095014572
82,613935114,1.58432805538177,-0.44106990098953,50.85639953613281,0.07484304159880,0.27649495005608,9.99464797973633,1.29155933856964,1.64501011371613,0.81185591220856
83,613943447,1.58401489257812,-0.44019144773483,50.85699462890625,0.08309603482485,0.27734264731407,9.96956157684326,1.27014601230621,1.91429293155670,0.83483207225800
84,613951780,1.58418762683868,-0.44021338224411,50.85728454589844,0.07094641774893,0.26070150732994,10.02745532989502,1.32698380947113,1.80571377277374,0.79564213752747
85,613960113,1.58393061161041,-0.44137504696846,50.85627746582031,0.08230866491795,0.28818935155869,10.00439739227295,1.27450025081635,1.66306817531586,0.64956420660019
86,613968446,1.58403968811035,-0.44087579846382,50.85659408569336,0.09339536726475,0.29236945509911,10.01516723632812,1.31937646865845,1.86892998218536,0.78844457864761
87,613976779,1.58489394187927,-0.44055151939392,50.85663986206055,0.09722893685102,0.26662012934685,9.95981121063232,1.40907764434814,1.84482705593109,0.77105259895325
88,613985112,1.58451652526855,-0.43948698043823,50.85722732543945,0.08966666460037,0.28939828276634,9.98549938201904,1.25992584228516,1.93831896781921,0.81726056337357
89,613993445,1.58496367931366,-0.43912938237190,50.85696029663086,0.08867001533508,0.28382280468941,10.00362873077393,1.35989820957184,1.84797751903534,0.73270803689957
90,614001778,1.58559858798981,-0.43842098116875,50.85784149169922,0.08056662231684,0.26145178079605,9.98377418518066,1.38238751888275,1.89587616920471,0.88355028629303
91,614010111,1.58585929870605,-0.43864822387695,50.85780334472656,0.06921733170748,0.27474218606949,10.00876903533936,1.33904814720154,1.77833235263824,0.76083242893219
92,614018444,1.58607637882233,-0.43833869695663,50.85765838623047,0.09424766153097,0.28205761313438,9.98021697998047,1.33082604408264,1.84546720981598,0.74969029426575
93,614026777,1.58544731140137,-0.43803659081459,50.85783004760742,0.09013033658266,0.26926505565643,9.97945499420166,1.23041808605194,1.84313619136810,0.78688210248947
94,614035110,1.58487391471863,-0.43723261356354,50.85747146606445,0.06695442646742,0.28694564104080,10.00199031829834,1.23730862140656,1.90338122844696,0.69531130790710
95,614043443,1.58425045013428,-0.43732503056526,50.85795974731445,0.06796611845493,0.30460023880005,9.99371814727783,1.23180139064789,1.79600596427917,0.82386904954910
96,614051776,1.58509206771851,-0.43623596429825,50.85780715942383,0.08513868600130,0.24283178150654,10.00147438049316,1.40702831745148,1.93913853168488,0.76044833660126
97,614060109,1.58570647239685,-0.43677431344986,50.85751342773438,0.07922133058310,0.26223155856133,10.00992965698242,1.38000535964966,1.73973155021667,0.73209327459335
98,614068442,1.58598589897156,-0.43709471821785,50.85750579833984,0.08238942921162,0.27829012274742,9.99558734893799,1.33902251720428,1.76939284801483,0.74846071004868
99,614076775,1.58616960048676,-0.43737319111824,50.85735702514648,0.09018834680319,0.26896291971207,9.98109817504883,1.32852077484131,1.77241551876068,0.74935728311539
100,614085108,1.58686959743500,-0.43808597326279,50.85743331909180,0.04743086174130,0.30097100138664,9.98871421813965,1.38876521587372,1.72341537475586,0.77494585514069
101,614093441,1.58807265758514,-0.43766477704048,50.85758590698242,0.05072134360671,0.30822470784187,9.98071765899658,1.45123863220215,1.85653257369995,0.78332167863846
102,614101774,1.58836865425110,-0.43755704164505,50.85794448852539,0.07418036460876,0.26564905047417,10.00084686279297,1.34158384799957,1.82205569744110,0.79820352792740
103,614110107,1.58798396587372,-0.43757796287537,50.85765838623047,0.06780003011227,0.27652886509895,10.01255416870117,1.26048946380615,1.80281972885132,0.73229825496674
104,614118440,1.58864712715149,-0.43671193718910,50.85713958740234,0.08082319796085,0.27868470549583,10.00201225280762,1.38405251502991,1.91150081157684,0.73111993074417
105,614126773,1.58788251876831,-0.43667912483215,50.85660171508789,0.08521191775799,0.26653125882149,10.00618457794189,1.21366631984711,1.80794239044189,0.70171475410461
106,614135106,1.58878505229950,-0.43659314513206,50.85651016235352,0.11368324607611,0.27251058816910,10.03672790527344,1.41512262821198,1.81711232662201,0.74046921730042
107,614143439,1.58878421783447,-0.43670636415482,50.85660171508789,0.09317612648010,0.29498818516731,9.99951553344727,1.30595445632935,1.79277873039246,0.77760970592499
108,614151772,1.58875322341919,-0.43675619363785,50.85652160644531,0.06115848943591,0.29161021113396,10.01735019683838,1.30231738090515,1.80174374580383,0.74653971195221
109,614160105,1.58843541145325,-0.43758475780487,50.85673522949219,0.06220897287130,0.28874611854553,9.98553466796875,1.26807105541229,1.70899450778961,0.79520672559738
110,614168438,1.58807265758514,-0.43773218989372,50.85711288452148,0.08780845999718,0.27695810794830,9.98699283599854,1.26223087310791,1.79065251350403,0.80089306831360
111,614176771,1.58748161792755,-0.43737477064133,50.85728836059570,0.08491178601980,0.27458649873734,9.98860263824463,1.23602771759033,1.84895062446594,0.78611361980438
112,614185104,1.58715653419495,-0.43788209557533,50.85786819458008,0.08129157871008,0.27664938569069,9.99096584320068,1.26627802848816,1.74846601486206,0.80575978755951
113,614193437,1.58728063106537,-0.43833345174789,50.85713577270508,0.08729753643274,0.30421248078346,10.01462650299072,1.32068276405334,1.74938821792603,0.67855948209763
114,614201770,1.58666384220123,-0.43879714608192,50.85712432861328,0.07999663800001,0.27320089936256,10.01415824890137,1.23290276527405,1.75243628025055,0.79533481597900
115,614210103,1.58720946311951,-0.43888568878174,50.85678482055664,0.08807572722435,0.27443960309029,10.00448036193848,1.37224400043488,1.79587793350220,0.72671425342560
116,614218436,1.58743560314178,-0.43902668356895,50.85663223266602,0.08220800757408,0.29432645440102,10.00429153442383,1.33187615871429,1.79011476039886,0.74917787313461
117,614226769,1.58659923076630,-0.43958005309105,50.85631179809570,0.09511186927557,0.30070471763611,9.97374343872070,1.20623826980591,1.73850202560425,0.72748267650604
118,614235102,1.58627450466156,-0.43996986746788,50.85681152343750,0.08928602188826,0.27267590165138,10.00170612335205,1.26671350002289,1.76437246799469,0.83347433805466
119,614243435,1.58597755432129,-0.43922182917595,50.85646057128906,0.08880600333214,0.29745408892632,9.99905204772949,1.26947999000549,1.89477479457855,0.72218060493469
120,614251768,1.58635258674622,-0.43781313300133,50.85561370849609,0.08526040613651,0.27872985601425,10.02021121978760,1.35144543647766,1.97440946102142,0.68580836057663
121,614260101,1.58693730831146,-0.43883290886879,50.85583114624023,0.09891261905432,0.26755928993225,10.00008964538574,1.37629139423370,1.68489170074463,0.79728150367737
122,614268434,1.58642971515656,-0.43904978036880,50.85589981079102,0.06265574693680,0.27648773789406,10.00511360168457,1.24522316455841,1.78073978424072,0.75862962007523
123,614276767,1.58617806434631,-0.44032505154610,50.85562133789062,0.06357854604721,0.27399277687073,9.98863029479980,1.27624201774597,1.65207970142365,0.73852235078812
124,614285100,1.58619379997253,-0.43962678313255,50.85582733154297,0.06200830265880,0.29656425118446,10.02497768402100,1.30690228939056,1.89303302764893,0.80125170946121
125,614293433,1.58661448955536,-0.43906334042549,50.85570144653320,0.07092480361462,0.27770835161209,9.99932289123535,1.35782349109650,1.87377107143402,0.75089412927628
126,614301766,1.58593082427979,-0.43863558769226,50.85611724853516,0.05687482655048,0.26994836330414,10.00111865997314,1.22322046756744,1.85968267917633,0.79372107982635
127,614310099,1.58639812469482,-0.43732273578644,50.85629272460938,0.08729534596205,0.26704099774361,9.98569869995117,1.36202406883240,1.96500849723816,0.78278374671936
128,614318432,1.58596825599670,-0.43723636865616,50.85638427734375,0.07643538713455,0.27886337041855,9.98847770690918,1.25526404380798,1.81893110275269,0.80202013254166
129,614326765,1.58552587032318,-0.43646985292435,50.85650253295898,0.07391558587551,0.29194241762161,10.02684688568115,1.25390636920929,1.89948761463165,0.77988940477371
130,614335098,1.58587181568146,-0.43666708469391,50.85719299316406,0.07581965625286,0.26250055432320,10.01192665100098,1.34645080566406,1.78617036342621,0.86170136928558
131,614343431,1.58573246002197,-0.43671208620071,50.85636138916016,0.06791134178638,0.27355208992958,9.98915576934814,1.29004812240601,1.79736387729645,0.66677701473236
132,614351764,1.58609414100647,-0.43645575642586,50.85654449462891,0.07856135815382,0.29454097151756,10.00126647949219,1.34939646720886,1.83990895748138,0.78580635786057
133,614360097,1.58619439601898,-0.43713864684105,50.85609817504883,0.06710783392191,0.25733247399330,9.99422073364258,1.31855666637421,1.72169911861420,0.71577692031860
134,614368430,1.58598017692566,-0.43668401241302,50.85649108886719,0.08597752451897,0.28123193979263,10.01932907104492,1.28021228313446,1.86501049995422,0.81385385990143
135,614376763,1.58641827106476,-0.43763127923012,50.85655212402344,0.09498065710068,0.29572665691376,10.01454830169678,1.35877096652985,1.69239640235901,0.77671319246292
136,614385096,1.58628416061401,-0.43718308210373,50.85627746582031,0.07369618117809,0.28058210015297,10.00261211395264,1.28940784931183,1.86211657524109,0.73865056037903
137,614393429,1.58660221099854,-0.43707206845284,50.85610198974609,0.07623792439699,0.26542201638222,9.99932193756104,1.34465777873993,1.81887960433960,0.74748742580414
138,614401762,1.58745789527893,-0.43705883622169,50.85530471801758,0.06214758381248,0.30703744292259,10.01324176788330,1.40736138820648,1.80725073814392,0.70222705602646
139,614410095,1.58787691593170,-0.43736597895622,50.85541534423828,0.06209900230169,0.27482393383980,9.99076461791992,1.35731112957001,1.77036619186401,0.77960759401321
140,614418428,1.58827710151672,-0.43790879845619,50.85514068603516,0.07508119940758,0.27503207325935,10.01152324676514,1.35336649417877,1.74183201789856,0.74218517541885
141,614426761,1.58858370780945,-0.43800646066666,50.85483169555664,0.06854842603207,0.26780790090561,9.98389244079590,1.34327447414398,1.79359829425812,0.73173463344574
142,614435094,1.58777487277985,-0.43827894330025,50.85498428344727,0.08299919217825,0.28927925229073,9.98775005340576,1.20815968513489,1.77490007877350,0.76055073738098
143,614443427,1.58821237087250,-0.43943819403648,50.85528564453125,0.07131513953209,0.27241542935371,10.00960636138916,1.35907840728760,1.66852402687073,0.80660498142242
144,614451760,1.58754372596741,-0.43948474526405,50.85538864135742,0.08435096591711,0.28571572899818,9.97692012786865,1.22570526599884,1.80238425731659,0.77161610126495
145,614460093,1.58708202838898,-0.43945017457008,50.85561370849609,0.07565770298243,0.27342429757118,9.97284889221191,1.25134503841400,1.81157946586609,0.79320877790451
146,614468426,1.58653950691223,-0.43943387269974,50.85549926757812,0.07058283686638,0.26826500892639,10.00914382934570,1.24007487297058,1.80858290195465,0.72766202688217
147,614476759,1.58648717403412,-0.44048613309860,50.85496520996094,0.08294492214918,0.27608001232147,10.00074386596680,1.30031931400299,1.67789900302887,0.70522391796112
148,614485092,1.58625996112823,-0.43973752856255,50.85519409179688,0.08502550423145,0.29440191388130,9.99673461914062,1.27788138389587,1.89923143386841,0.83124595880508
149,614493425,1.58658921718597,-0.43885290622711,50.85562515258789,0.09731804579496,0.27754494547844,10.00345993041992,1.34755218029022,1.91342163085938,0.81441736221313
150,614501758,1.58693158626556,-0.43852841854095,50.85523223876953,0.07873572409153,0.27064967155457,10.02020931243896,1.34542608261108,1.84628677368164,0.74884486198425
151,614510091,1.58752238750458,-0.43873891234398,50.85569381713867,0.05174180120230,0.28182840347290,10.00188541412354,1.37816119194031,1.78214895725250,0.82225543260574
152,614518424,1.58698737621307,-0.43845507502556,50.85577392578125,0.06994478404522,0.26891186833382,9.99943733215332,1.24140667915344,1.84349477291107,0.79441261291504
153,614526757,1.58665907382965,-0.43776172399521,50.85545730590820,0.07764017581940,0.29325827956200,9.99731922149658,1.26819908618927,1.88821732997894,0.72668862342834
154,614535090,1.58663487434387,-0.43775931000710,50.85554504394531,0.08075756579638,0.27706748247147,10.00578880310059,1.30311143398285,1.80904376506805,0.77899289131165
155,614543423,1.58649837970734,-0.43779036402702,50.85552215576172,0.09448086470366,0.26489132642746,10.01833057403564,1.29015064239502,1.80225598812103,0.76334261894226
156,614551756,1.58688914775848,-0.43753626942635,50.85544586181641,0.09161768108606,0.28927993774414,10.01593208312988,1.35195779800415,1.83762931823730,0.75537669658661
157,614560089,1.58679068088531,-0.43755152821541,50.85530853271484,0.08823128044605,0.27882716059685,9.99706268310547,1.29481220245361,1.80366468429565,0.75107330083847
158,614568422,1.58742392063141,-0.43757191300392,50.85516357421875,0.09660556912422,0.27279034256935,9.98975372314453,1.38195216655731,1.80661046504974,0.77261507511139
159,614576755,1.58703219890594,-0.43732166290283,50.85534667968750,0.11077762395144,0.29370766878128,10.02607917785645,1.25867068767548,1.83688628673553,0.78780424594879
160,614585088,1.58637797832489,-0.43736240267754,50.85445785522461,0.08224047720432,0.27607637643814,10.00852298736572,1.22780549526215,1.80041158199310,0.72776436805725
161,614593421,1.58701336383820,-0.43744683265686,50.85435485839844,0.09411417692900,0.27490082383156,10.01208209991455,1.38359141349792,1.79600620269775,0.75330185890198
162,614601754,1.58713209629059,-0.43795385956764,50.85409164428711,0.10038923472166,0.27853763103485,9.97609996795654,1.31865918636322,1.74685239791870,0.75350677967072
163,614610087,1.58692741394043,-0.43708062171936,50.85422515869141,0.07169862836599,0.27561905980110,9.99082660675049,1.28238952159882,1.91103959083557,0.77932590246201
164,614618420,1.58734226226807,-0.43656098842621,50.85366058349609,0.06006405130029,0.28707060217857,10.00439071655273,1.35423731803894,1.86846852302551,0.70909160375595
165,614626753,1.58743751049042,-0.43637067079544,50.85392761230469,0.07099810987711,0.29305538535118,10.01117992401123,1.31789076328278,1.83127677440643,0.79664111137390
166,614635086,1.58626198768616,-0.43645912408829,50.85368728637695,0.07556180655956,0.27053865790367,9.97858238220215,1.16420531272888,1.79641592502594,0.75445437431335
167,614643419,1.58637511730194,-0.43634459376335,50.85413742065430,0.07552270591259,0.26133748888969,9.98211383819580,1.32055485248566,1.82092893123627,0.81933534145355
168,614651752,1.58714950084686,-0.43561136722565,50.85385131835938,0.09736805409193,0.24875365197659,9.99547195434570,1.39931833744049,1.89556849002838,0.73478269577026
169,614660085,1.58775579929352,-0.43562018871307,50.85382843017578,0.07757407426834,0.27325150370598,9.98722648620605,1.37913453578949,1.80556035041809,0.76285606622696
170,614668418,1.58762717247009,-0.43579667806625,50.85245513916016,0.05912956222892,0.27647423744202,9.99869728088379,1.28856253623962,1.78291714191437,0.66467654705048
171,614676751,1.58797872066498,-0.43614432215691,50.85234832763672,0.08734691143036,0.27107694745064,9.99138164520264,1.34901213645935,1.76409089565277,0.75291770696640
172,614685084,1.58763730525970,-0.43520253896713,50.85250091552734,0.06170819699764,0.24953432381153,9.99660682678223,1.26387047767639,1.92161846160889,0.75629878044128
173,614693417,1.58692324161530,-0.43487998843193,50.85205459594727,0.07241857796907,0.28662234544754,9.99447917938232,1.22088968753815,1.84298253059387,0.71073096990585
174,614701750,1.58621609210968,-0.43433773517609,50.85190200805664,0.08870634436607,0.27074170112610,10.00302505493164,1.22158122062683,1.87266945838928,0.75804036855698
175,614710083,1.58581316471100,-0.43440556526184,50.85255050659180,0.06646601110697,0.28055244684219,9.99654674530029,1.25874757766724,1.80094945430756,0.84425795078278
176,614718416,1.58619785308838,-0.43322959542274,50.85238265991211,0.08012543618679,0.28414663672447,10.00047492980957,1.35060012340546,1.94777035713196,0.73911160230637
177,614726749,1.58584427833557,-0.43270576000214,50.85181427001953,0.08116534352303,0.28967788815498,9.98618316650391,1.26461315155029,1.86759781837463,0.69602841138840
178,614735082,1.58625543117523,-0.43250760436058,50.85194015502930,0.08328756690025,0.28795486688614,10.01406383514404,1.35485208034515,1.83189177513123,0.77973574399948
179,614743415,1.58614230155945,-0.43308940529823,50.85192871093750,0.07540878653526,0.26222229003906,10.00055217742920,1.29273748397827,1.73619687557220,0.76595520973206
180,614751748,1.58577036857605,-0.43347036838531,50.85201644897461,0.08218243718147,0.29106295108795,10.02294731140137,1.26071977615356,1.76232326030731,0.77743047475815
181,614760081,1.58504819869995,-0.43393871188164,50.85142517089844,0.08319854736328,0.27514663338661,9.97249221801758,1.21914815902710,1.74967002868652,0.69646388292313
182,614768414,1.58477592468262,-0.43334528803825,50.85046386718750,0.07366449385881,0.27593189477921,9.98650550842285,1.27245128154755,1.87669122219086,0.70719617605209
183,614776747,1.58430850505829,-0.43373760581017,50.85019302368164,0.10393451154232,0.26361045241356,9.98669624328613,1.25152420997620,1.75809705257416,0.73421913385391
184,614785080,1.58427226543427,-0.43273133039474,50.85053253173828,0.08789391070604,0.27738305926323,9.98940467834473,1.30167710781097,1.93158245086670,0.82263964414597
185,614793413,1.58458316326141,-0.43190792202950,50.85093307495117,0.07750866562128,0.27932992577553,9.99173355102539,1.34317207336426,1.90607035160065,0.81034481525421
186,614801746,1.58573842048645,-0.43157187104225,50.85072326660156,0.06958229094744,0.28527933359146,10.00603008270264,1.44427132606506,1.84718346595764,0.74254387617111
187,614810079,1.58639430999756,-0.42997235059738,50.85111236572266,0.07084393501282,0.29131132364273,10.02853393554688,1.38638329505920,1.99979317188263,0.80888479948044
188,614818412,1.58656275272369,-0.43008434772491,50.85130691528320,0.07850133627653,0.29476541280746,10.03013420104980,1.32496035099030,1.79536581039429,0.78278386592865
189,614826745,1.58571648597717,-0.43016120791435,50.85104751586914,0.05132368579507,0.27129825949669,9.98668670654297,1.20482957363129,1.79592907428741,0.73570489883423
190,614835078,1.58628988265991,-0.42994070053101,50.85114288330078,0.08996143192053,0.27606299519539,9.97159862518311,1.37577903270721,1.83550345897675,0.79069864749908
191,614843411,1.58627426624298,-0.42912310361862,50.85089874267578,0.09236857295036,0.28917610645294,10.02935409545898,1.30431532859802,1.90292000770569,0.73529511690140
192,614851744,1.58565378189087,-0.42853817343712,50.85073471069336,0.07978272438049,0.26415884494781,10.03081226348877,1.23146843910217,1.87907326221466,0.77714872360229
193,614860077,1.58575379848480,-0.42939293384552,50.85011672973633,0.07896531373262,0.25873824954033,9.97988033294678,1.31771159172058,1.70125913619995,0.69367194175720
194,614868410,1.58536601066589,-0.43029353022575,50.84949874877930,0.06994488835335,0.28763884305954,10.01236629486084,1.25897789001465,1.69821083545685,0.69592589139938
195,614876743,1.58545982837677,-0.43089249730110,50.84952163696289,0.07585453987122,0.28840595483780,9.97630023956299,1.31796765327454,1.73414766788483,0.77220511436462
196,614885076,1.58512294292450,-0.43039038777351,50.84978103637695,0.07019211351871,0.25642049312592,10.02546882629395,1.26402413845062,1.87015914916992,0.80798822641373
197,614893409,1.58579838275909,-0.42941159009933,50.85040283203125,0.08479015529156,0.30172443389893,9.95571708679199,1.38940584659576,1.92510187625885,0.83749580383301
198,614901742,1.58536672592163,-0.42940795421600,50.85023117065430,0.08474572002888,0.28675794601440,10.01138973236084,1.25352227687836,1.80799353122711,0.75921875238419
199,614910075,1.58479762077332,-0.43013361096382,50.85009765625000,0.09947697818279,0.27134117484093,10.00098609924316,1.23910129070282,1.71801078319550,0.75015127658844
200,614918408,1.58477640151978,-0.43061318993568,50.85042953491211,0.08069658279419,0.27614912390709,10.01048088073730,1.30300879478455,1.75192379951477,0.83880209922791
201,614926741,1.58489024639130,-0.43160465359688,50.85134124755859,0.06971097737551,0.27068907022476,10.02601337432861,1.32083642482758,1.69009113311768,0.87929821014404
202,614935074,1.58510673046112,-0.43221729993820,50.85147476196289,0.06806691735983,0.27127033472061,9.97389888763428,1.33182513713837,1.73483943939209,0.77433121204376
203,614943407,1.58526253700256,-0.43182909488678,50.85142517089844,0.09087067842484,0.28983351588249,9.99448776245117,1.32519090175629,1.85158920288086,0.75911629199982
204,614951740,1.58437657356262,-0.43245184421539,50.85137939453125,0.07414193451405,0.29375576972961,10.02931880950928,1.19934809207916,1.73437821865082,0.76326572895050
205,614960073,1.58490502834320,-0.43210375308990,50.85146331787109,0.08037750422955,0.25018936395645,10.00829410552979,1.36955475807190,1.84795188903809,0.77758419513702
206,614968406,1.58496427536011,-0.43216323852539,50.85124588012695,0.07264493405819,0.29117980599403,9.97180271148682,1.31366443634033,1.80053973197937,0.74718004465103
207,614976739,1.58458638191223,-0.43232947587967,50.85090637207031,0.07739079743624,0.28069412708282,9.99063301086426,1.26046359539032,1.78560662269592,0.72791820764542
208,614985072,1.58422374725342,-0.43137887120247,50.84996032714844,0.06628874689341,0.26395571231842,9.98322963714600,1.26082229614258,1.91967189311981,0.68140274286270
209,614993405,1.58457589149475,-0.43119668960571,50.84999465942383,0.08594264090061,0.29650473594666,9.99954986572266,1.34873032569885,1.82784450054169,0.76867038011551
210,615001738,1.58463370800018,-0.43143543601036,50.85065841674805,0.06776987016201,0.30111184716225,10.03361701965332,1.31322908401489,1.78214895725250,0.87005162239075
211,615010071,1.58499741554260,-0.43064868450165,50.85083389282227,0.07783983647823,0.28275918960571,9.98593997955322,1.34990859031677,1.90151107311249,0.78426957130432
212,615018404,1.58466744422913,-0.43107900023460,50.85021209716797,0.09063972532749,0.28828528523445,9.98816394805908,1.26594495773315,1.75397312641144,0.69631010293961
213,615026737,1.58419334888458,-0.43184998631477,50.85004425048828,0.09359057247639,0.29327204823494,9.99303436279297,1.24901413917542,1.71260619163513,0.74756413698196
214,615035070,1.58402204513550,-0.43226698040962,50.84968566894531,0.08050031960011,0.26979747414589,10.01965999603271,1.28556561470032,1.75740540027618,0.73882985115051
215,615043403,1.58466088771820,-0.43206685781479,50.84948348999023,0.07079026848078,0.28446784615517,9.99214458465576,1.38377058506012,1.82940733432770,0.73985439538956
216,615051736,1.58413326740265,-0.43168342113495,50.84926986694336,0.09053525328636,0.28157410025597,9.99551391601562,1.24015164375305,1.85333085060120,0.72822546958923
217,615060069,1.58406066894531,-0.43205222487450,50.84893417358398,0.07244794815779,0.27278956770897,9.99555873870850,1.29878258705139,1.76142680644989,0.72896826267242
218,615068402,1.58407759666443,-0.43195188045502,50.84822845458984,0.07063033431768,0.26393991708755,10.00704669952393,1.30679988861084,1.81777846813202,0.71859455108643
219,615076735,1.58427417278290,-0.43094390630722,50.84822082519531,0.07262255996466,0.30162236094475,10.00633239746094,1.33044183254242,1.92763781547546,0.76183140277863
220,615085068,1.58473074436188,-0.43148654699326,50.84836196899414,0.07391262799501,0.25892120599747,9.98192501068115,1.36084580421448,1.74313831329346,0.77046334743500
221,615093401,1.58367586135864,-0.43187636137009,50.84806442260742,0.06217285990715,0.26512342691422,10.01725387573242,1.17916417121887,1.75732851028442,0.73152971267700
222,615101734,1.58340859413147,-0.43260976672173,50.84720230102539,0.06430792808533,0.30822727084160,9.99452304840088,1.27311706542969,1.71854865550995,0.67184859514236
223,615110067,1.58377456665039,-0.43330448865891,50.84679412841797,0.08312891423702,0.27123817801476,10.01559352874756,1.34888398647308,1.72157108783722,0.72059243917465
224,615118400,1.58435523509979,-0.43260020017624,50.84630203247070,0.07660429924726,0.27651152014732,9.96058940887451,1.37478005886078,1.89052248001099,0.72151464223862
225,615126733,1.58404397964478,-0.43355020880699,50.84648513793945,0.08098252117634,0.28378769755363,9.99022197723389,1.27068376541138,1.69208908081055,0.79077541828156
226,615135066,1.58454513549805,-0.43296721577644,50.84664535522461,0.06246006116271,0.26397237181664,9.99120330810547,1.36619937419891,1.87866342067719,0.78718948364258
227,615143399,1.58466506004333,-0.43256440758705,50.84645843505859,0.08441740274429,0.27137321233749,9.99445152282715,1.32055461406708,1.85456013679504,0.74431127309799
228,615151732,1.58480632305145,-0.43277317285538,50.84657669067383,0.06941743940115,0.30145680904388,10.02552604675293,1.32229650020599,1.78307080268860,0.76982307434082
229,615160065,1.58449816703796,-0.43231743574142,50.84687042236328,0.06517902761698,0.28997689485550,10.02631568908691,1.27040219306946,1.86160433292389,0.79963803291321
230,615168398,1.58438563346863,-0.43156534433365,50.84616088867188,0.07823533564806,0.25298568606377,9.98801136016846,1.29202032089233,1.89674699306488,0.70957839488983
231,615176731,1.58506715297699,-0.43157437443733,50.84631347656250,0.07361079752445,0.28744694590569,9.99321842193604,1.38868844509125,1.80584180355072,0.78483295440674
232,615185064,1.58453917503357,-0.43127745389938,50.84657669067383,0.09016625583172,0.28126880526543,9.97849559783936,1.24250817298889,1.84487807750702,0.81979632377625
233,615193397,1.58511149883270,-0.43082970380783,50.84669876098633,0.08272112905979,0.27110671997070,10.02626037597656,1.37570202350616,1.85999047756195,0.78040170669556
234,615201730,1.58535003662109,-0.43052914738655,50.84654617309570,0.08267098665237,0.29147881269455,9.97952175140381,1.33338737487793,1.84387898445129,0.75473624467850
235,615210063,1.58549427986145,-0.43057981133461,50.84689712524414,0.08051393926144,0.29305481910706,9.98261165618896,1.32549834251404,1.80135929584503,0.80837243795395
236,615218396,1.58534622192383,-0.43044829368591,50.84674453735352,0.07062227278948,0.26135876774788,9.98619079589844,1.28648769855499,1.82428419589996,0.77819877862930
237,615226729,1.58525741100311,-0.43051794171333,50.84702682495117,0.07315680384636,0.29656648635864,10.02589988708496,1.29678475856781,1.79872119426727,0.80258357524872
238,615235062,1.58517670631409,-0.43047642707825,50.84673690795898,0.05926448106766,0.28803867101669,10.01773738861084,1.29586267471313,1.81262993812561,0.77653396129608
239,615243395,1.58544695377350,-0.43064519762993,50.84756088256836,0.06619215756655,0.26756647229195,10.00180149078369,1.33935546875000,1.78898775577545,0.86774629354477
240,615251728,1.58634638786316,-0.43027684092522,50.84805679321289,0.07378429919481,0.29229208827019,9.99644470214844,1.41368818283081,1.85374069213867,0.79897207021713
241,615260061,1.58673238754272,-0.43102732300758,50.84811019897461,0.08039796352386,0.28236725926399,9.97205257415771,1.35369956493378,1.71593618392944,0.77425432205200
242,615268394,1.58573162555695,-0.43149787187576,50.84789276123047,0.08657724410295,0.27724871039391,10.00971698760986,1.18487608432770,1.75033593177795,0.76751768589020
243,615276727,1.58575654029846,-0.43116286396980,50.84781265258789,0.08849748969078,0.28998470306396,10.00601768493652,1.30992496013641,1.84636390209198,0.75537663698196
244,615285060,1.58561718463898,-0.43148732185364,50.84788131713867,0.08332046121359,0.28390568494797,10.01726245880127,1.28874194622040,1.76946985721588,0.80307036638260
245,615293393,1.58505785465240,-0.43040534853935,50.84803390502930,0.08973725140095,0.27539122104645,10.01255226135254,1.23951137065887,1.93606495857239,0.78109335899353
246,615301726,1.58540284633636,-0.42969021201134,50.84798431396484,0.07918737083673,0.27412182092667,9.99933815002441,1.34719347953796,1.89654183387756,0.78421819210052
247,615310059,1.58525741100311,-0.42948731780052,50.84829330444336,0.07526779919863,0.28947693109512,10.01716041564941,1.29043233394623,1.83079016208649,0.80330079793930
248,615318392,1.58469581604004,-0.42937248945236,50.84869766235352,0.07678047567606,0.25550726056099,10.00484180450439,1.23651432991028,1.82325971126556,0.80719417333603
249,615326725,1.58494067192078,-0.42933884263039,50.84896850585938,0.08097200840712,0.28636282682419,10.01145935058594,1.33771622180939,1.81088805198669,0.79833167791367
250,615335058,1.58573257923126,-0.42914402484894,50.84802246093750,0.07440759986639,0.27546596527100,9.99547290802002,1.40006124973297,1.82794690132141,0.68619245290756
251,615343391,1.58510947227478,-0.42854771018028,50.84882736206055,0.08417461812496,0.26395851373672,9.97268962860107,1.23223686218262,1.88160896301270,0.86298209428787
252,615351724,1.58530282974243,-0.42859816551208,50.84928131103516,0.07284649461508,0.29019299149513,9.99718189239502,1.33059537410736,1.80366456508636,0.84287470579147
253,615360057,1.58533000946045,-0.42842778563499,50.84899520874023,0.06973115354776,0.28490447998047,10.00498485565186,1.30941236019135,1.82497572898865,0.73283594846725
254,615368390,1.58550512790680,-0.42836117744446,50.84901046752930,0.08001645654440,0.29076346755028,10.01749038696289,1.32593369483948,1.81672787666321,0.76856797933578
255,615376723,1.58508253097534,-0.42818188667297,50.84857177734375,0.07799299806356,0.28257185220718,9.96889305114746,1.25649344921112,1.82587242126465,0.71311306953430
256,615385056,1.58492147922516,-0.42796501517296,50.84864425659180,0.06984908878803,0.27919366955757,10.00133895874023,1.28605234622955,1.83432519435883,0.77632910013199
257,615393389,1.58477556705475,-0.42824894189835,50.84820556640625,0.08828020840883,0.27144664525986,9.99927425384521,1.28925418853760,1.77064812183380,0.71449631452560
258,615401722,1.58470249176025,-0.42891880869865,50.84778594970703,0.08421655744314,0.26194548606873,10.01430130004883,1.29673337936401,1.72710371017456,0.73749786615372
259,615410055,1.58448684215546,-0.42928338050842,50.84726715087891,0.06348028033972,0.28673887252808,9.98297309875488,1.27921330928802,1.75983893871307,0.70581310987473
260,615418388,1.58460950851440,-0.43001937866211,50.84763717651367,0.09147072583437,0.27249032258987,10.00463771820068,1.32147669792175,1.72223699092865,0.85386329889297
261,615426721,1.58427858352661,-0.43060541152954,50.84726333618164,0.08417969197035,0.26551750302315,9.99784088134766,1.26679050922394,1.73560762405396,0.72256469726562
262,615435054,1.58486986160278,-0.43171259760857,50.84672164916992,0.07752998918295,0.29865249991417,9.99334335327148,1.37606072425842,1.67303204536438,0.71083343029022
263,615443387,1.58457827568054,-0.43226429820061,50.84692764282227,0.07039449363947,0.28271967172623,9.99627304077148,1.27155458927155,1.73985970020294,0.79336243867874
264,615451720,1.58437395095825,-0.43280640244484,50.84707641601562,0.10299571603537,0.26828187704086,10.01298809051514,1.28146743774414,1.74370169639587,0.78122133016586
265,615460053,1.58426249027252,-0.43294319510460,50.84693908691406,0.06903623044491,0.29115504026413,10.01019191741943,1.29309606552124,1.78983306884766,0.75086843967438
266,615468386,1.58455491065979,-0.43337488174438,50.84728240966797,0.07495212554932,0.28425469994545,9.98215293884277,1.34132778644562,1.75702118873596,0.80237865447998
267,615476719,1.58447730541229,-0.43250405788422,50.84746932983398,0.08823293447495,0.25718006491661,9.98735332489014,1.29732251167297,1.91127014160156,0.78831654787064
268,615485052,1.58405530452728,-0.43251973390579,50.84811401367188,0.07798665016890,0.28366065025330,10.00082492828369,1.25644207000732,1.80704593658447,0.84010845422745
269,615493385,1.58362948894501,-0.43193736672401,50.84778213500977,0.06952282041311,0.28731963038445,10.00935077667236,1.25485396385193,1.87599921226501,0.72366613149643
270,615501718,1.58443403244019,-0.43094199895859,50.84760665893555,0.07993617653847,0.26056739687920,10.00319480895996,1.40123963356018,1.92551171779633,0.74292808771133
271,615510051,1.58336389064789,-0.43008336424828,50.84760284423828,0.08210004866123,0.29138717055321,9.97450447082520,1.17829322814941,1.90960526466370,0.76262539625168
272,615518384,1.58295869827271,-0.42964589595795,50.84736251831055,0.08449149131775,0.32689148187637,9.98394775390625,1.25692892074585,1.86024665832520,0.74420881271362
273,615526717,1.58305132389069,-0.43012654781342,50.84706115722656,0.08993510901928,0.26664400100708,9.93826007843018,1.31753242015839,1.74821007251740,0.73342525959015
274,615535050,1.58277630805969,-0.42976495623589,50.84719848632812,0.07439479231834,0.26478430628777,9.99875736236572,1.27319395542145,1.85041069984436,0.76362437009811
275,615543383,1.58368968963623,-0.42937833070755,50.84735488891602,0.08140695095062,0.28599986433983,9.98339271545410,1.41622400283813,1.85379195213318,0.78480738401413
276,615551716,1.58343875408173,-0.43018406629562,50.84810638427734,0.08346710354090,0.30945539474487,10.01727390289307,1.27552473545074,1.71252930164337,0.83923757076263
277,615560049,1.58353865146637,-0.43074530363083,50.84822845458984,0.09224058687687,0.28880274295807,10.01531696319580,1.31837749481201,1.73980867862701,0.78127259016037
278,615568382,1.58334183692932,-0.43195596337318,50.84742355346680,0.07065310329199,0.28741896152496,9.98535633087158,1.28187716007233,1.66009676456451,0.67489665746689
279,615576715,1.58376622200012,-0.43196690082550,50.84788513183594,0.07750269025564,0.28995487093925,10.00668048858643,1.35797715187073,1.80666148662567,0.82123076915741
280,615585048,1.58380329608917,-0.43101656436920,50.84806823730469,0.09463219344616,0.26956379413605,9.98855590820312,1.30951488018036,1.92207932472229,0.79674357175827
281,615593381,1.58343780040741,-0.42996802926064,50.84791946411133,0.07331530004740,0.28492400050163,10.00548171997070,1.26381921768188,1.93109571933746,0.74446493387222
282,615601714,1.58358478546143,-0.43004754185677,50.84822463989258,0.07807128876448,0.27244278788567,9.98350048065186,1.32301378250122,1.80061674118042,0.82504731416702
283,615610047,1.58448088169098,-0.43015632033348,50.84809494018555,0.07138133794069,0.27157583832741,9.98910617828369,1.41440534591675,1.79316306114197,0.75045871734619
284,615618380,1.58447623252869,-0.43049624562263,50.84860610961914,0.09428780525923,0.28398773074150,9.99524593353271,1.30564713478088,1.76775348186493,0.82763427495956
285,615626713,1.58393919467926,-0.43057784438133,50.84823226928711,0.07654906809330,0.27164214849472,9.98288536071777,1.24212396144867,1.79493021965027,0.72212928533554
286,615635046,1.58406448364258,-0.43022716045380,50.84842300415039,0.07672597467899,0.28023988008499,9.99181842803955,1.32006812095642,1.85222923755646,0.81587743759155
287,615643379,1.58459579944611,-0.43028208613396,50.84827804565430,0.08082478493452,0.28407144546509,9.98460865020752,1.36958038806915,1.79915678501129,0.74812781810760
288,615651712,1.58412313461304,-0.42926990985870,50.84844589233398,0.07657654583454,0.27328005433083,9.99846649169922,1.25016689300537,1.92950749397278,0.78401333093643
289,615660045,1.58441114425659,-0.42889547348022,50.84807968139648,0.07472879439592,0.29830443859100,10.00294780731201,1.34130215644836,1.85028266906738,0.72038757801056
290,615668378,1.58447122573853,-0.42930483818054,50.84817886352539,0.06513508409262,0.27839773893356,9.99397563934326,1.31182026863098,1.75881421566010,0.77297353744507
291,615676711,1.58441936969757,-0.42877787351608,50.84821701049805,0.08175845444202,0.28735709190369,10.03073120117188,1.30078053474426,1.86885309219360,0.76831179857254
292,615685044,1.58428156375885,-0.42952606081963,50.84810256958008,0.09255745261908,0.27368026971817,10.01321506500244,1.28889536857605,1.71747291088104,0.73539745807648
293,615693377,1.58443701267242,-0.43001466989517,50.84780883789062,0.09802050888538,0.28488013148308,10.01418685913086,1.32511401176453,1.74616074562073,0.73324590921402
294,615701710,1.58411312103271,-0.43052443861961,50.84742355346680,0.07542388886213,0.28505373001099,9.98771858215332,1.26622676849365,1.74641680717468,0.71237021684647
295,615710043,1.58344304561615,-0.43085080385208,50.84716796875000,0.07067295163870,0.28305491805077,9.99724006652832,1.22529530525208,1.76588380336761,0.73703676462173
296,615718376,1.58366310596466,-0.43049907684326,50.84683990478516,0.09994108974934,0.30347728729248,10.01099681854248,1.33197855949402,1.84951424598694,0.73432165384293
297,615726709,1.58403253555298,-0.43095895648003,50.84669494628906,0.08728706836700,0.28622293472290,10.00168132781982,1.34978055953979,1.75074565410614,0.74951100349426
298,615735042,1.58358895778656,-0.43039932847023,50.84694671630859,0.07680364698172,0.27666574716568,9.98649024963379,1.25295865535736,1.87635803222656,0.81116437911987
299,615743375,1.58396601676941,-0.43016725778580,50.84778976440430,0.09022402018309,0.26999390125275,9.99948215484619,1.35421180725098,1.83701467514038,0.86815607547760
300,615751708,1.58393514156342,-0.43157958984375,50.84765625000000,0.07335102558136,0.30616623163223,9.99102497100830,1.30152320861816,1.63819682598114,0.76600646972656
301,615760041,1.58395338058472,-0.43276038765907,50.84827423095703,0.09104140847921,0.28119504451752,10.00262546539307,1.30838799476624,1.66603934764862,0.84418112039566
302,615768374,1.58370888233185,-0.43234458565712,50.84844207763672,0.07797427475452,0.26610305905342,9.97970390319824,1.27670323848724,1.85919654369354,0.75611948966980
303,615776707,1.58355498313904,-0.43186622858047,50.84834289550781,0.08375615626574,0.27391889691353,10.01458835601807,1.28851151466370,1.86293625831604,0.75345563888550
304,615785040,1.58434808254242,-0.43084734678268,50.84767913818359,0.07396663725376,0.27698594331741,9.96630573272705,1.39970266819000,1.92615199089050,0.64395469427109
305,615793373,1.58432841300964,-0.43197181820869,50.84769821166992,0.08676940202713,0.28628149628639,10.03034877777100,1.30323946475983,1.67082929611206,0.77302473783493
306,615801706,1.58439147472382,-0.43221548199654,50.84771347045898,0.07945542037487,0.27913835644722,9.99892234802246,1.31404852867126,1.77761507034302,0.76744091510773
307,615810039,1.58271956443787,-0.44029274582863,50.84672546386719,0.07349116355181,0.26392686367035,10.00398731231689,1.29097008705139,1.85748016834259,0.70804142951965
308,615818372,1.58251941204071,-0.43937116861343,50.84637832641602,0.06775230169296,0.27997049689293,9.99620342254639,1.28144192695618,1.91672611236572,0.72533112764359
309,615826705,1.58208668231964,-0.43948036432266,50.84562301635742,0.07746271044016,0.29164472222328,9.98053073883057,1.25372719764709,1.79144704341888,0.67702263593674
310,615835038,1.58143091201782,-0.43972253799438,50.84553909301758,0.08082603663206,0.25916916131973,9.97507667541504,1.22790789604187,1.77971541881561,0.78288626670837
311,615843371,1.58086490631104,-0.44050794839859,50.84589004516602,0.07873525470495,0.28005769848824,9.98126983642578,1.23940873146057,1.71406626701355,0.81172788143158
312,615851704,1.58110225200653,-0.44123661518097,50.84640884399414,0.06588170677423,0.28414696455002,10.01928138732910,1.33346450328827,1.72216033935547,0.81344413757324
313,615860037,1.58133447170258,-0.44191512465477,50.84688949584961,0.11022344231606,0.28621169924736,10.00242710113525,1.33569276332855,1.72656583786011,0.82374101877213
314,615868370,1.58149743080139,-0.44156485795975,50.84713363647461,0.08502944558859,0.28259539604187,10.01550865173340,1.32470417022705,1.85138428211212,0.79464322328568
315,615876703,1.58084142208099,-0.44161012768745,50.84785842895508,0.06980655342340,0.27063223719597,10.00280475616455,1.22918868064880,1.80404889583588,0.85404258966446
316,615885036,1.58113110065460,-0.44163584709167,50.84741592407227,0.07960169017315,0.26551201939583,9.98651981353760,1.34002149105072,1.80374157428741,0.70161229372025
317,615893369,1.58067083358765,-0.44211041927338,50.84738922119141,0.08391984552145,0.26652655005455,9.97691440582275,1.25198543071747,1.74915754795074,0.76444399356842
318,615901702,1.58050191402435,-0.44193261861801,50.84757995605469,0.06834301352501,0.27451321482658,9.98566818237305,1.28507900238037,1.83189177513123,0.83716285228729
319,615910035,1.58092260360718,-0.44112884998322,50.84733200073242,0.08660844713449,0.28636446595192,10.00860595703125,1.35695242881775,1.90286874771118,0.73529493808746
320,615918368,1.58114194869995,-0.44117048382759,50.84803390502930,0.08461513370275,0.27838891744614,9.97852230072021,1.33331072330475,1.80545783042908,0.83972430229187
321,615926701,1.58199727535248,-0.44046291708946,50.84841537475586,0.08430527150631,0.29325842857361,9.98060989379883,1.40918004512787,1.89272570610046,0.80924332141876
322,615935034,1.58196401596069,-0.44008889794350,50.84791183471680,0.06281698495150,0.26380118727684,10.00653171539307,1.30188202857971,1.85171723365784,0.72666311264038
323,615943367,1.58167779445648,-0.44016712903976,50.84822463989258,0.07710069417953,0.27039080858231,9.99944496154785,1.27298915386200,1.79872119426727,0.80496573448181
324,615951700,1.58170127868652,-0.43919205665588,50.84803390502930,0.07381074875593,0.25930339097977,10.01105690002441,1.30905389785767,1.92417955398560,0.72589457035065
325,615960033,1.58135592937469,-0.44041734933853,50.84801864624023,0.07682290673256,0.26712161302567,9.98837757110596,1.26448512077332,1.65881633758545,0.76746648550034
326,615968366,1.58207285404205,-0.44089543819427,50.84835433959961,0.07715835422277,0.27653703093529,10.01020526885986,1.39271008968353,1.75366592407227,0.81290620565414
327,615976699,1.58256971836090,-0.44165521860123,50.84800338745117,0.07480412721634,0.26662373542786,9.99608707427979,1.36571252346039,1.71301591396332,0.72717529535294
328,615985032,1.58216059207916,-0.44141268730164,50.84810256958008,0.07718420028687,0.29259827733040,9.97752857208252,1.25685214996338,1.83931982517242,0.80009907484055
329,615993365,1.58272397518158,-0.44003063440323,50.84807205200195,0.07466986030340,0.28088727593422,9.99540328979492,1.37429344654083,1.97251379489899,0.75911623239517
330,616001698,1.58202588558197,-0.43952503800392,50.84798431396484,0.07070002704859,0.28109246492386,9.98353672027588,1.22237539291382,1.86928856372833,0.76165205240250
331,616010031,1.58210265636444,-0.43990695476532,50.84847259521484,0.08967535197735,0.27230918407440,10.02147674560547,1.31594419479370,1.76298940181732,0.82607197761536
332,616018364,1.58249318599701,-0.43979197740555,50.84867477416992,0.11047562211752,0.27578309178352,9.99620056152344,1.35182964801788,1.82315719127655,0.80219936370850
333,616026697,1.58228874206543,-0.44005456566811,50.84873580932617,0.10147513449192,0.27294856309891,10.00398254394531,1.28277373313904,1.77474617958069,0.77438229322433
334,616035030,1.58227241039276,-0.44009277224541,50.84922027587891,0.07897999137640,0.27141395211220,10.00932312011719,1.30413603782654,1.80525279045105,0.82571333646774
335,616043363,1.58247005939484,-0.44043099880219,50.84917449951172,0.07868598401546,0.27860429883003,10.02558612823486,1.33036494255066,1.76616573333740,0.76034581661224
336,616051696,1.58260881900787,-0.44041627645493,50.84986877441406,0.08205287158489,0.28697076439857,10.01584529876709,1.32360279560089,1.81239926815033,0.85954976081848
337,616060029,1.58245444297791,-0.44011935591698,50.85023117065430,0.09375709295273,0.26641565561295,9.98396301269531,1.28897237777710,1.84439146518707,0.81008863449097
338,616068362,1.58214712142944,-0.43997487425804,50.85060882568359,0.06837309151888,0.27521744370461,10.00241088867188,1.26842975616455,1.82615399360657,0.80027830600739
339,616076695,1.58118867874146,-0.43986138701439,50.85061645507812,0.08346387743950,0.26661747694016,9.98203754425049,1.19238114356995,1.82146656513214,0.76633942127228
340,616085028,1.58091163635254,-0.44070380926132,50.85033416748047,0.08905304223299,0.28039211034775,10.01321315765381,1.27175962924957,1.70594632625580,0.71459871530533
341,616093361,1.58086049556732,-0.44122657179832,50.85058975219727,0.09767480194569,0.26073318719864,9.98831844329834,1.30065238475800,1.74436783790588,0.79871588945389
342,616101694,1.58153450489044,-0.44078868627548,50.85034179687500,0.09344128519297,0.26869916915894,9.99232196807861,1.38727986812592,1.86063110828400,0.76347064971924
343,616110027,1.58210527896881,-0.44115969538689,50.85008621215820,0.08737773448229,0.27179855108261,9.99922180175781,1.37524104118347,1.76104259490967,0.73678064346313
344,616118360,1.58237338066101,-0.44049772620201,50.85108184814453,0.08585104346275,0.28318464756012,9.99679088592529,1.33771634101868,1.89139354228973,0.86887335777283
345,616126693,1.58213758468628,-0.44008049368858,50.85140228271484,0.09099139273167,0.27423846721649,9.98189353942871,1.27885460853577,1.85806953907013,0.80583661794662
346,616135026,1.58208179473877,-0.44047459959984,50.85120773315430,0.08090843260288,0.26999148726463,10.02710342407227,1.29973018169403,1.76088893413544,0.77118057012558
347,616143359,1.58177244663239,-0.44055622816086,50.85146713256836,0.09122124314308,0.27155151963234,10.01157093048096,1.27004349231720,1.79782485961914,0.79799872636795
348,616151692,1.58196067810059,-0.44093087315559,50.85149765014648,0.09392830729485,0.28510960936546,10.01526641845703,1.32862317562103,1.76403951644897,0.79484814405441
349,616160025,1.58284592628479,-0.44224679470062,50.85168457031250,0.09825916588306,0.27542656660080,10.02610874176025,1.41289401054382,1.65072214603424,0.79272210597992
350,616168358,1.58331084251404,-0.44150367379189,50.85161972045898,0.07639026641846,0.25819995999336,9.97735786437988,1.36187052726746,1.89623475074768,0.73158103227615
351,616176691,1.58428561687469,-0.44030189514160,50.85178375244141,0.07745271176100,0.30004957318306,10.01818275451660,1.42306292057037,1.95053684711456,0.78137511014938
352,616185024,1.58475410938263,-0.44058382511139,50.85137176513672,0.07489066570997,0.26858612895012,9.98703289031982,1.36087131500244,1.77384960651398,0.72061800956726
353,616193357,1.58531129360199,-0.44214910268784,50.85168457031250,0.06040100008249,0.27583169937134,9.98038291931152,1.37480545043945,1.61957526206970,0.81034463644028
354,616201690,1.58479094505310,-0.44329309463501,50.85171508789062,0.08668597042561,0.27607795596123,9.97568035125732,1.24281561374664,1.67267370223999,0.77502268552780
355,616210023,1.58495283126831,-0.44266223907471,50.85145187377930,0.06619255989790,0.27899646759033,10.01750373840332,1.32644593715668,1.88096833229065,0.73383498191833
356,616218356,1.58530342578888,-0.44157803058624,50.85124206542969,0.06199152022600,0.27441978454590,10.01917076110840,1.34662985801697,1.93849778175354,0.73265665769577
357,616226689,1.58582627773285,-0.44073748588562,50.85089874267578,0.08720014244318,0.28296959400177,9.99399566650391,1.37004137039185,1.90586543083191,0.72251355648041
358,616235022,1.58527779579163,-0.44149398803711,50.85136795043945,0.07862715423107,0.29661089181900,10.00537109375000,1.23994672298431,1.71880471706390,0.82850515842438
359,616243355,1.58426892757416,-0.44144326448441,50.85182952880859,0.07777690887451,0.27167898416519,10.02184963226318,1.18613111972809,1.81531918048859,0.82215285301208
360,616251688,1.58468472957611,-0.44089180231094,50.85184478759766,0.07856729626656,0.26717522740364,10.00693416595459,1.35600471496582,1.87418067455292,0.76710790395737
361,616260021,1.58505189418793,-0.44130140542984,50.85179138183594,0.07688458263874,0.28582882881165,10.00195407867432,1.34990870952606,1.75848126411438,0.76113981008530
362,616268354,1.58520662784576,-0.44188240170479,50.85124588012695,0.08540555089712,0.27279978990555,9.98636817932129,1.32424306869507,1.73745214939117,0.71731382608414
363,616276687,1.58499360084534,-0.44157037138939,50.85129165649414,0.07764478772879,0.28021290898323,10.03237628936768,1.28100621700287,1.84431457519531,0.77043771743774
364,616285020,1.58508431911469,-0.44219484925270,50.85179901123047,0.06642271578312,0.26846930384636,9.98073673248291,1.31625163555145,1.73337936401367,0.80442798137665
365,616293353,1.58533215522766,-0.44251000881195,50.85199356079102,0.09007934480906,0.28799140453339,10.00392150878906,1.33815169334412,1.76987969875336,0.79054492712021
366,616301686,1.58551812171936,-0.44314405322075,50.85145950317383,0.07059144228697,0.28268912434578,10.00835990905762,1.32677888870239,1.73053598403931,0.68176132440567
367,616310019,1.58508896827698,-0.44428390264511,50.85147094726562,0.08270092308521,0.26765128970146,9.97297668457031,1.25505900382996,1.67059886455536,0.77095001935959
368,616318352,1.58518290519714,-0.44341644644737,50.85116195678711,0.09542193263769,0.25296872854233,9.98143959045410,1.31591844558716,1.91183352470398,0.73749786615372
369,616326685,1.58477830886841,-0.44322988390923,50.85154724121094,0.07544096559286,0.26869001984596,9.98682117462158,1.25861942768097,1.83094382286072,0.81165105104446
370,616335018,1.58528387546539,-0.44383808970451,50.85095596313477,0.09108425676823,0.29840460419655,10.01187133789062,1.36617374420166,1.73394274711609,0.70399451255798
371,616343351,1.58439350128174,-0.44305661320686,50.85104751586914,0.07980754226446,0.27069956064224,10.00047874450684,1.20073139667511,1.90074288845062,0.77387017011642
372,616351684,1.58428347110748,-0.44192135334015,50.85112762451172,0.07563768327236,0.27309101819992,9.99961090087891,1.29209733009338,1.94497859477997,0.78683096170425
373,616360017,1.58455729484558,-0.44151800870895,50.85129165649414,0.07310581952333,0.28460159897804,10.00257587432861,1.33961188793182,1.85540580749512,0.78508919477463
374,616368350,1.58420205116272,-0.44182664155960,50.85169982910156,0.06982655078173,0.26880228519440,9.99774837493896,1.26476705074310,1.77162158489227,0.80803948640823
375,616376683,1.58302545547485,-0.44145467877388,50.85103225708008,0.08493262529373,0.28111839294434,10.00629806518555,1.16412854194641,1.84959113597870,0.68506544828415
376,616385016,1.58363294601440,-0.44133111834526,50.85083007812500,0.08025719970465,0.26190885901451,9.99390125274658,1.37885272502899,1.82254254817963,0.74513095617294
377,616393349,1.58317089080811,-0.44100785255432,50.85173416137695,0.10622013360262,0.27001848816872,9.99976634979248,1.25180602073669,1.84864318370819,0.87379115819931
378,616401682,1.58260858058929,-0.44042614102364,50.85219955444336,0.06231046095490,0.26105666160583,9.99270057678223,1.23861479759216,1.87976479530334,0.79543727636337
379,616410015,1.58197486400604,-0.44023722410202,50.85228729248047,0.07796987891197,0.27796891331673,9.98772239685059,1.22995710372925,1.82863867282867,0.77556061744690
380,616418348,1.58108985424042,-0.43995422124863,50.85215377807617,0.08170824497938,0.27546340227127,9.99298858642578,1.20052623748779,1.84211158752441,0.73995679616928
381,616426681,1.58033168315887,-0.43991443514824,50.85266876220703,0.06984636932611,0.29845434427261,10.00982856750488,1.21581816673279,1.81357765197754,0.82789051532745
382,616435014,1.57958376407623,-0.43954932689667,50.85230255126953,0.08728479593992,0.26751318573952,9.99283123016357,1.21584379673004,1.85115373134613,0.72371745109558
383,616443347,1.57951354980469,-0.43981137871742,50.85195922851562,0.08627708256245,0.28476744890213,9.97800636291504,1.29711759090424,1.77331173419952,0.72712409496307
384,616451680,1.57891988754272,-0.43880456686020,50.85114669799805,0.08560999482870,0.27050739526749,9.97417068481445,1.23441398143768,1.92699742317200,0.68071115016937
385,616460013,1.57990193367004,-0.43858230113983,50.85139083862305,0.08689064532518,0.28344509005547,10.00354099273682,1.42511188983917,1.83437597751617,0.79413086175919
386,616468346,1.58003664016724,-0.43857285380363,50.85123062133789,0.09357310086489,0.29214829206467,9.98812770843506,1.32140004634857,1.80937671661377,0.75302010774612
387,616476679,1.58026373386383,-0.43835705518723,50.85067749023438,0.08532209694386,0.29452019929886,9.99837112426758,1.33302867412567,1.83086705207825,0.69992178678513
388,616485012,1.57907140254974,-0.43881419301033,50.85097122192383,0.06394464522600,0.28025263547897,9.99892902374268,1.16366744041443,1.75399863719940,0.80637449026108
389,616493345,1.57882261276245,-0.43941804766655,50.85081863403320,0.07320076227188,0.26922059059143,10.01994895935059,1.27644705772400,1.73514688014984,0.75043308734894
390,616501678,1.57899093627930,-0.43945333361626,50.85130310058594,0.09405673295259,0.29265218973160,9.97980976104736,1.32672774791718,1.80581641197205,0.82917124032974
391,616510011,1.57887709140778,-0.43950745463371,50.85085678100586,0.10067954659462,0.27330490946770,9.96299076080322,1.29171299934387,1.79987370967865,0.71505975723267
392,616518344,1.57900559902191,-0.43887215852737,50.85087585449219,0.08206687122583,0.25623726844788,10.00038433074951,1.32165610790253,1.88458025455475,0.76385498046875
393,616526677,1.57875442504883,-0.43932306766510,50.85169601440430,0.07112647593021,0.28881826996803,9.98689556121826,1.27731788158417,1.75545871257782,0.86679852008820
394,616535010,1.57879865169525,-0.43960285186768,50.85171890258789,0.08954892307520,0.27373740077019,10.01618862152100,1.31174337863922,1.77443885803223,0.77986377477646
395,616543343,1.57837891578674,-0.43989753723145,50.85158538818359,0.09265211224556,0.27699074149132,9.99538230895996,1.25687766075134,1.77090394496918,0.75125265121460
396,616551676,1.57773613929749,-0.43862214684486,50.85170745849609,0.08202722668648,0.28248834609985,9.98482131958008,1.22811281681061,1.96303653717041,0.77599602937698
397,616560009,1.57773256301880,-0.43716832995415,50.85242462158203,0.07918312400579,0.27209550142288,10.00720787048340,1.30610811710358,1.98383533954620,0.84625595808029
398,616568342,1.57750022411346,-0.43611490726471,50.85231781005859,0.10228294879198,0.27779075503349,9.99620151519775,1.27795827388763,1.93422043323517,0.75422400236130
399,616576675,1.57711315155029,-0.43591633439064,50.85277938842773,0.07158282399178,0.27823179960251,10.00435733795166,1.26241028308868,1.83201944828033,0.82097458839417
400,616585008,1.57757174968719,-0.43621736764908,50.85309982299805,0.07794544100761,0.28975179791451,9.98821067810059,1.35959076881409,1.77310705184937,0.79812675714493
401,616593341,1.57744228839874,-0.43647009134293,50.85270690917969,0.06617830693722,0.28604894876480,9.98010540008545,1.29176425933838,1.77495110034943,0.71903002262115
402,616601674,1.57779181003571,-0.43702867627144,50.85303115844727,0.08981454372406,0.27538925409317,9.98794078826904,1.34724473953247,1.74203693866730,0.77717417478561
403,616610007,1.57770323753357,-0.43719074130058,50.85299301147461,0.08438874781132,0.27195215225220,9.97708511352539,1.29663097858429,1.78747653961182,0.76203632354736
404,616618340,1.57819163799286,-0.43768635392189,50.85250473022461,0.09577839076519,0.26243489980698,10.01085472106934,1.36420142650604,1.74621212482452,0.71531593799591
405,616626673,1.57871258258820,-0.43875914812088,50.85279846191406,0.09742479771376,0.28290152549744,9.99814128875732,1.36893987655640,1.67910242080688,0.80616956949234
406,616635006,1.57822346687317,-0.43832719326019,50.85382461547852,0.08303754776716,0.27963176369667,10.00318717956543,1.24873232841492,1.86419105529785,0.87187010049820
407,616643339,1.57841527462006,-0.43835887312889,50.85383987426758,0.08759942650795,0.25882706046104,10.00470256805420,1.32946825027466,1.80317783355713,0.76859343051910
408,616651672,1.57792878150940,-0.43931645154953,50.85371017456055,0.08393398672342,0.27421429753304,10.02833366394043,1.24832260608673,1.69229400157928,0.76723593473434
409,616660005,1.57854056358337,-0.43877425789833,50.85407257080078,0.10157672315836,0.28501737117767,10.01636314392090,1.37905764579773,1.87351489067078,0.80801385641098
410,616668338,1.57937085628510,-0.43911612033844,50.85437774658203,0.07676148414612,0.27964708209038,9.97851371765137,1.40626013278961,1.76921379566193,0.80755287408829
411,616676671,1.57983708381653,-0.43860763311386,50.85358047485352,0.08473761379719,0.30821722745895,9.97645950317383,1.36251080036163,1.86421668529510,0.66995316743851
412,616685004,1.58026039600372,-0.43840831518173,50.85443496704102,0.09788501262665,0.29435962438583,9.99584674835205,1.35731124877930,1.83573377132416,0.85960096120834
413,616693337,1.58005917072296,-0.43794974684715,50.85469818115234,0.08329246193171,0.26761063933372,9.99457454681396,1.28320908546448,1.86227011680603,0.79669225215912
414,616701670,1.57996189594269,-0.43866249918938,50.85495758056641,0.08631413429976,0.28279110789299,9.99082469940186,1.29276323318481,1.72367167472839,0.77340906858444
415,616710003,1.57988047599792,-0.43886440992355,50.85532760620117,0.05931918695569,0.28098818659782,10.01858901977539,1.29880821704865,1.78342938423157,0.81119000911713
416,616718336,1.58035612106323,-0.43962067365646,50.85594177246094,0.07717334479094,0.26032662391663,10.02095222473145,1.36233139038086,1.71839487552643,0.80122601985931
417,616726669,1.58044254779816,-0.43939611315727,50.85655593872070,0.07405161112547,0.28675022721291,9.97827911376953,1.31763470172882,1.83555471897125,0.83990365266800
418,616735002,1.58049869537354,-0.43933695554733,50.85635375976562,0.07996977865696,0.28574371337891,9.99631786346436,1.31330585479736,1.81557524204254,0.77225637435913
419,616743335,1.58113336563110,-0.44004452228546,50.85618972778320,0.08467303216457,0.26363855600357,9.99670410156250,1.38192641735077,1.72249317169189,0.74956214427948
420,616751668,1.58222615718842,-0.44071355462074,50.85570144653320,0.06666868925095,0.28394159674644,9.98272991180420,1.43684339523315,1.72551584243774,0.71951669454575
421,616760001,1.58200025558472,-0.43982437252998,50.85523223876953,0.08638739585876,0.29094582796097,9.97554779052734,1.27908527851105,1.91306316852570,0.70653033256531
422,616768334,1.58064210414886,-0.44009530544281,50.85471343994141,0.06834398955107,0.29996770620346,10.02241706848145,1.14258694648743,1.77464377880096,0.70742672681808
423,616776667,1.57954442501068,-0.43951335549355,50.85487747192383,0.08020424842834,0.26071071624756,10.01753044128418,1.17496335506439,1.87694704532623,0.78444874286652
424,616785000,1.57957375049591,-0.44006597995758,50.85445404052734,0.09042463451624,0.28442242741585,10.00418758392334,1.30974555015564,1.74044871330261,0.70373833179474
425,616793333,1.57945835590363,-0.43981668353081,50.85403060913086,0.10113093256950,0.28106057643890,9.99708080291748,1.29222524166107,1.83652794361115,0.71342051029205
426,616801666,1.57961618900299,-0.44021010398865,50.85457229614258,0.09175391495228,0.26271519064903,9.97791481018066,1.32601058483124,1.76099145412445,0.80834680795670
427,616809999,1.57884383201599,-0.44036364555359,50.85482788085938,0.09845084697008,0.29429501295090,9.98051261901855,1.21330773830414,1.78944885730743,0.79820352792740
428,616818332,1.57809615135193,-0.44059550762177,50.85465240478516,0.09615731239319,0.26518303155899,10.01092720031738,1.21597170829773,1.77997171878815,0.73296409845352
429,616826665,1.57791554927826,-0.44063529372215,50.85458755493164,0.09362120926380,0.28983119130135,10.00108242034912,1.28461790084839,1.80215370655060,0.75929564237595
430,616834998,1.57775485515594,-0.43996149301529,50.85524368286133,0.07652603834867,0.28623810410500,10.00629711151123,1.28694880008698,1.89016413688660,0.82074421644211
431,616843331,1.57723855972290,-0.44047775864601,50.85551452636719,0.08908025920391,0.28105154633522,9.99032592773438,1.24642693996429,1.74564850330353,0.80081623792648
432,616851664,1.57694339752197,-0.44107335805893,50.85585784912109,0.07275993376970,0.27028656005859,9.99273300170898,1.27001774311066,1.73824596405029,0.77471530437469
433,616859997,1.57641494274139,-0.44074627757072,50.85561752319336,0.07138246297836,0.29073640704155,10.00479316711426,1.24273860454559,1.84410953521729,0.73637080192566
434,616868330,1.57644188404083,-0.44043040275574,50.85536575317383,0.08710523694754,0.27436956763268,10.02173423767090,1.30859291553497,1.84644067287445,0.73345082998276
435,616876663,1.57555043697357,-0.44106063246727,50.85569000244141,0.07970473915339,0.30061483383179,9.99004173278809,1.20106410980225,1.73179113864899,0.80647695064545
436,616884996,1.57579243183136,-0.44158729910851,50.85552597045898,0.08851154148579,0.28784868121147,9.99093818664551,1.33451426029205,1.74447023868561,0.73895788192749
437,616893329,1.57650518417358,-0.44117957353592,50.85454177856445,0.10825722664595,0.25482404232025,9.96569538116455,1.39124989509583,1.85269033908844,0.64777112007141
438,616901662,1.57620060443878,-0.44085690379143,50.85398101806641,0.06961476802826,0.27195060253143,10.03000068664551,1.26927506923676,1.84510862827301,0.70150983333588
439,616909995,1.57664704322815,-0.44040432572365,50.85465240478516,0.06445159018040,0.29252356290817,10.04452514648438,1.35951387882233,1.86373031139374,0.84471899271011
440,616918328,1.57697343826294,-0.44065588712692,50.85489273071289,0.08862231671810,0.25411838293076,10.00348758697510,1.34540045261383,1.77830660343170,0.76867038011551
441,616926661,1.57765424251556,-0.44138205051422,50.85443496704102,0.09087558090687,0.26222708821297,9.97686290740967,1.38899588584900,1.71862542629242,0.71406078338623
442,616934994,1.57786178588867,-0.44192084670067,50.85441589355469,0.06089154630899,0.29139217734337,10.00506687164307,1.32964766025543,1.74388098716736,0.76213878393173
443,616943327,1.57731449604034,-0.44220352172852,50.85445022583008,0.08399557322264,0.28152117133141,9.99526023864746,1.24056124687195,1.77261996269226,0.77151352167130
444,616951660,1.57766318321228,-0.44198450446129,50.85523223876953,0.08296839147806,0.27416861057281,9.99756908416748,1.34952449798584,1.83760368824005,0.84748548269272
445,616959993,1.57774591445923,-0.44174611568451,50.85569000244141,0.07740601897240,0.30028161406517,9.98588562011719,1.31717371940613,1.83693778514862,0.82051366567612
446,616968326,1.57729721069336,-0.44252604246140,50.85596084594727,0.08485766500235,0.27744165062904,9.97333621978760,1.25154983997345,1.71503949165344,0.79016071557999
447,616976659,1.57674527168274,-0.44178369641304,50.85588455200195,0.08605205267668,0.28107401728630,9.95714473724365,1.24058711528778,1.89631152153015,0.75435203313828
448,616984992,1.57717657089233,-0.44198736548424,50.85580062866211,0.08248487859964,0.27857673168182,9.97069740295410,1.35728549957275,1.78447973728180,0.77020716667175
449,616993325,1.57739019393921,-0.44207423925400,50.85636520385742,0.07570023834705,0.27908974885941,9.98053741455078,1.33384859561920,1.79746615886688,0.83493447303772
450,617001658,1.57662820816040,-0.44290938973427,50.85693359375000,0.08335030078888,0.26661708950996,9.98693656921387,1.21402513980865,1.71024966239929,0.83974981307983
451,617009991,1.57634627819061,-0.44371330738068,50.85705184936523,0.07769995927811,0.26993677020073,9.98199081420898,1.27345001697540,1.71104359626770,0.78334730863571
452,617018324,1.57612204551697,-0.44348549842834,50.85730361938477,0.05870172381401,0.26672971248627,9.96392154693604,1.27946960926056,1.83673286437988,0.76618587970734
453,617026657,1.57578134536743,-0.44440937042236,50.85760879516602,0.07624308764935,0.27832201123238,10.00219535827637,1.26635491847992,1.69700729846954,0.80701494216919
454,617034990,1.57688808441162,-0.44409686326981,50.85755538940430,0.10003729909658,0.27850219607353,10.01454544067383,1.43735575675964,1.84492957592010,0.75383985042572
455,617043323,1.57740330696106,-0.44361844658852,50.85837554931641,0.09435572475195,0.27673777937889,10.03580474853516,1.36981081962585,1.86816132068634,0.86103528738022
456,617051656,1.57663619518280,-0.44338241219521,50.85851287841797,0.08766747266054,0.27878886461258,10.00418853759766,1.21433246135712,1.83542656898499,0.78004312515259
457,617059989,1.57646000385284,-0.44349223375320,50.85812759399414,0.08643622696400,0.28529289364815,10.01291275024414,1.28507900238037,1.79295802116394,0.72043883800507
458,617068322,1.57681977748871,-0.44302654266357,50.85911941528320,0.08772014081478,0.27716273069382,10.01071166992188,1.34929394721985,1.86708581447601,0.85112255811691
459,617076655,1.57651734352112,-0.44256347417831,50.85922241210938,0.07702139019966,0.28876987099648,9.99297618865967,1.27158033847809,1.86250066757202,0.77860867977142
460,617084988,1.57687807083130,-0.44243824481964,50.85975646972656,0.08777691423893,0.29579201340675,10.00491523742676,1.34803867340088,1.82520627975464,0.81938654184341
461,617093321,1.57693195343018,-0.44222423434258,50.85897445678711,0.09899726510048,0.26298362016678,9.99031543731689,1.31343388557434,1.83014988899231,0.67254012823105
462,617101654,1.57689452171326,-0.44249281287193,50.85938644409180,0.09168929606676,0.25075101852417,10.00666427612305,1.30136966705322,1.77717959880829,0.79989409446716
463,617109987,1.57699823379517,-0.44127652049065,50.85963058471680,0.07845230400562,0.26408788561821,10.00634288787842,1.31999123096466,1.95361042022705,0.79420781135559
464,617118320,1.57701361179352,-0.44017124176025,50.85931015014648,0.08776617050171,0.25382620096207,10.00749778747559,1.30590331554413,1.93862628936768,0.70279055833817
465,617126653,1.57683932781219,-0.44003093242645,50.85942459106445,0.08687300235033,0.28163751959801,10.00821495056152,1.28702545166016,1.82474529743195,0.78042727708817
466,617134986,1.57581102848053,-0.44202545285225,50.85895919799805,0.08633269369602,0.28563407063484,10.00600051879883,1.18164873123169,1.56798827648163,0.74195480346680
467,617143319,1.57572937011719,-0.44160056114197,50.85916900634766,0.08669892698526,0.26724883913994,10.02127742767334,1.29706633090973,1.85806930065155,0.79108279943466
468,617151652,1.57508695125580,-0.44164809584618,50.85931777954102,0.07765321433544,0.26097780466080,10.01054096221924,1.22962427139282,1.80322933197021,0.77361392974854
469,617159985,1.57532012462616,-0.44212108850479,50.85979461669922,0.08958540111780,0.29446977376938,9.97972106933594,1.33492422103882,1.75251317024231,0.82471430301666
470,617168318,1.57493257522583,-0.44290387630463,50.85971832275391,0.09512940794230,0.27864468097687,9.98721313476562,1.25851690769196,1.71388673782349,0.75138074159622
471,617176651,1.57514357566833,-0.44436693191528,50.85961914062500,0.09134174883366,0.27784863114357,9.99881267547607,1.33213222026825,1.63066613674164,0.75993591547012
472,617184984,1.57473027706146,-0.44517421722412,50.86002349853516,0.09444039314985,0.28665342926979,10.01372337341309,1.25618612766266,1.71265733242035,0.79067295789719
473,617193317,1.57464611530304,-0.44536659121513,50.85953140258789,0.07692245393991,0.27818542718887,9.97059535980225,1.29642605781555,1.78271222114563,0.70809268951416
474,617201650,1.57448577880859,-0.44537779688835,50.86005401611328,0.09771091490984,0.27098995447159,9.98597908020020,1.28789663314819,1.80689215660095,0.80032956600189
475,617209983,1.57450652122498,-0.44503831863403,50.86000442504883,0.07008312642574,0.28671082854271,9.97317028045654,1.30741453170776,1.84859204292297,0.75870645046234
476,617218316,1.57513141632080,-0.44526201486588,50.86004257202148,0.07145516574383,0.28450176119804,10.00121498107910,1.38138854503632,1.78104734420776,0.77855741977692
477,617226649,1.57596707344055,-0.44532698392868,50.85939407348633,0.07879769057035,0.26056718826294,10.01862144470215,1.40710496902466,1.79790127277374,0.68813920021057
478,617234982,1.57569003105164,-0.44560974836349,50.85868835449219,0.08268351107836,0.28041920065880,10.03211021423340,1.27173399925232,1.77005898952484,0.67274504899979
479,617243315,1.57567477226257,-0.44586735963821,50.85824584960938,0.07067025452852,0.26574304699898,10.01678180694580,1.30492997169495,1.77571952342987,0.71257519721985
480,617251648,1.57617390155792,-0.44509616494179,50.85813522338867,0.07386636734009,0.26106476783752,9.97642135620117,1.36537969112396,1.90048670768738,0.76954126358032
481,617259981,1.57647573947906,-0.44599235057831,50.85807418823242,0.06200009584427,0.25826629996300,10.02147388458252,1.34232687950134,1.69882571697235,0.76070433855057
482,617268314,1.57605612277985,-0.44590064883232,50.85818481445312,0.07614031434059,0.26946553587914,9.99732112884521,1.25631415843964,1.81913578510284,0.74728244543076
483,617276647,1.57636141777039,-0.44664305448532,50.85836791992188,0.09226794540882,0.27628603577614,9.99290561676025,1.34263396263123,1.71890723705292,0.79064738750458
484,617284980,1.57635033130646,-0.44716724753380,50.85777282714844,0.07465749233961,0.28656232357025,10.01600646972656,1.30487871170044,1.74262595176697,0.67164361476898
485,617293313,1.57635235786438,-0.44719451665878,50.85712814331055,0.07634121924639,0.26090931892395,9.98916435241699,1.30639004707336,1.80143642425537,0.68755006790161
486,617301646,1.57589888572693,-0.44656801223755,50.85651779174805,0.08571384102106,0.27768909931183,10.01795101165771,1.25098645687103,1.88196766376495,0.68414348363876
487,617309979,1.57527995109558,-0.44703745841980,50.85704040527344,0.07567158341408,0.27622929215431,10.00126934051514,1.23241627216339,1.75179600715637,0.83019584417343
488,617318312,1.57510602474213,-0.44764941930771,50.85742568969727,0.07413442432880,0.26540291309357,10.02789783477783,1.28518140316010,1.73568451404572,0.80073928833008
489,617326645,1.57423841953278,-0.44882038235664,50.85791015625000,0.10074368119240,0.27585768699646,9.99418926239014,1.20365118980408,1.66837036609650,0.82840275764465
490,617334978,1.57390165328979,-0.44882422685623,50.85815048217773,0.07583392411470,0.29126569628716,9.99593067169189,1.26591944694519,1.80894124507904,0.78885436058044
491,617343311,1.57394158840179,-0.44822338223457,50.85826492309570,0.09214816242456,0.26560544967651,10.02748680114746,1.31100058555603,1.87945723533630,0.77981257438660
492,617351644,1.57333445549011,-0.44784173369408,50.85838699340820,0.09629131108522,0.25602152943611,10.03034305572510,1.23300516605377,1.85394513607025,0.76805555820465
493,617359977,1.57335674762726,-0.44776773452759,50.85841751098633,0.07170459628105,0.27558621764183,9.99294185638428,1.30995047092438,1.81680488586426,0.76803004741669
494,617368310,1.57352757453918,-0.44799947738647,50.85819244384766,0.08100800216198,0.27793699502945,9.95901584625244,1.32606172561646,1.77966392040253,0.73373252153397
495,617376643,1.57371842861176,-0.44796776771545,50.85766983032227,0.09025897085667,0.25541260838509,9.98926925659180,1.32821357250214,1.80873656272888,0.70215022563934
496,617384976,1.57411623001099,-0.44752338528633,50.85867691040039,0.09356185793877,0.29216831922531,9.96785163879395,1.35587680339813,1.86526679992676,0.87658321857452
497,617393309,1.57429778575897,-0.44678547978401,50.85883712768555,0.08593325316906,0.26296919584274,9.95326900482178,1.32800853252411,1.89487719535828,0.78245091438293
498,617401642,1.57322871685028,-0.44657257199287,50.85837554931641,0.08278085291386,0.27974015474319,10.01277256011963,1.17844688892365,1.83319807052612,0.71288251876831
499,617409975,1.57348656654358,-0.44668778777122,50.85867309570312,0.09617400169373,0.28952336311340,9.99291419982910,1.33676850795746,1.79395711421967,0.80296790599823
500,617418308,1.57327640056610,-0.44653961062431,50.85782623291016,0.06715509295464,0.26782414317131,10.02201080322266,1.28072452545166,1.82272160053253,0.65192067623138
501,617426641,1.57341885566711,-0.44585257768631,50.85781478881836,0.09360603988171,0.25795134902000,10.00400447845459,1.32355177402496,1.88913965225220,0.76467466354370
502,617434974,1.57299160957336,-0.44501158595085,50.85850143432617,0.08102937787771,0.27660381793976,10.00591278076172,1.25564825534821,1.91168010234833,0.81472480297089
503,617443307,1.57314658164978,-0.44535967707634,50.85904312133789,0.08551876246929,0.27993032336235,9.99904346466064,1.32616424560547,1.76626813411713,0.83493447303772
504,617451640,1.57335603237152,-0.44545349478722,50.85955047607422,0.09262367337942,0.27902907133102,9.96298789978027,1.33141505718231,1.79902851581573,0.83201438188553
505,617459973,1.57333159446716,-0.44572570919991,50.85965347290039,0.06847940385342,0.26483634114265,10.00072383880615,1.30300891399384,1.77464401721954,0.77914655208588
506,617468306,1.57254040241241,-0.44658881425858,50.86042404174805,0.08592703938484,0.27959510684013,9.99258518218994,1.21130979061127,1.70597195625305,0.81692755222321
507,617476639,1.57243871688843,-0.44744715094566,50.86047744750977,0.08803115785122,0.26016980409622,9.98119258880615,1.29414641857147,1.70530605316162,0.77658522129059
508,617484972,1.57206189632416,-0.44678747653961,50.86050033569336,0.08731430023909,0.27219966053963,9.94879245758057,1.26082229614258,1.88532304763794,0.73501336574554
509,617493305,1.57309257984161,-0.44589152932167,50.86100387573242,0.05368818715215,0.27374249696732,9.97236824035645,1.43143856525421,1.91652095317841,0.82199919223785
510,617501638,1.57360696792603,-0.44548168778419,50.86088943481445,0.09233417361975,0.26479414105415,10.02368068695068,1.36660909652710,1.85660958290100,0.73398870229721
511,617509971,1.57326304912567,-0.44580093026161,50.86052322387695,0.07814885675907,0.27447161078453,9.98464298248291,1.26627802848816,1.76793277263641,0.72228288650513
512,617518304,1.57315218448639,-0.44550907611847,50.86030578613281,0.08290614187717,0.27498415112495,10.01267814636230,1.29097032546997,1.84305953979492,0.72089982032776
513,617526637,1.57337379455566,-0.44561940431595,50.86044311523438,0.07970572263002,0.25563129782677,9.98363018035889,1.33471930027008,1.79352152347565,0.78321921825409
514,617534970,1.57281148433685,-0.44524562358856,50.86034011840820,0.06301546096802,0.28406807780266,9.99919223785400,1.23787188529968,1.85294640064240,0.74387574195862
515,617543303,1.57228159904480,-0.44537425041199,50.86037445068359,0.08256138116121,0.27372094988823,9.99561309814453,1.24294376373291,1.79026865959167,0.77207714319229
516,617551636,1.57277345657349,-0.44499158859253,50.86043167114258,0.05885377526283,0.26634535193443,9.99336242675781,1.36586642265320,1.85596919059753,0.79139018058777
517,617559969,1.57252120971680,-0.44509321451187,50.86099243164062,0.07979662716389,0.26936870813370,9.99696445465088,1.27649831771851,1.79669797420502,0.83334636688232
518,617568302,1.57242524623871,-0.44450151920319,50.86101531982422,0.07054126262665,0.28909492492676,10.00924205780029,1.29483807086945,1.87879145145416,0.76185703277588
519,617576635,1.57227599620819,-0.44493213295937,50.86175155639648,0.09742773324251,0.28141298890114,10.00320053100586,1.28915154933929,1.75804579257965,0.85624545812607
520,617584968,1.57212173938751,-0.44581261277199,50.86162185668945,0.09083642065525,0.27443033456802,9.98480987548828,1.28810155391693,1.70000386238098,0.72082298994064
521,617593301,1.57185328006744,-0.44607114791870,50.86198043823242,0.08870727568865,0.29048448801041,9.97614860534668,1.27421844005585,1.77810168266296,0.81016540527344
522,617601634,1.57210409641266,-0.44479060173035,50.86209869384766,0.07406374067068,0.25505533814430,10.02024078369141,1.33523178100586,1.96193540096283,0.76111418008804
523,617609967,1.57198262214661,-0.44468644261360,50.86181640625000,0.07599454373121,0.27317818999290,9.98372936248779,1.29232776165009,1.81806004047394,0.73209327459335
524,617618300,1.57203412055969,-0.44438844919205,50.86168289184570,0.09508993476629,0.26989400386810,9.98603725433350,1.31194841861725,1.84218871593475,0.72315388917923
525,617626633,1.57168626785278,-0.44607007503510,50.86143493652344,0.07324266433716,0.26817214488983,10.00627136230469,1.26422882080078,1.60564112663269,0.74185228347778
526,617634966,1.57147026062012,-0.44579890370369,50.86149978637695,0.07856466621161,0.25831860303879,10.00069713592529,1.27967441082001,1.83955049514771,0.73954707384109
527,617643299,1.57212126255035,-0.44675236940384,50.86127090454102,0.08776275813580,0.27537751197815,9.98912143707275,1.38569164276123,1.69157683849335,0.74210840463638
528,617651632,1.57182192802429,-0.44664534926414,50.86108779907227,0.09190472215414,0.27058780193329,9.97755908966064,1.27001774311066,1.82077515125275,0.75284075737000
529,617659965,1.57177746295929,-0.44690704345703,50.86156463623047,0.08286240696907,0.25121042132378,10.02016925811768,1.30162572860718,1.77822947502136,0.82153809070587
530,617668298,1.57198512554169,-0.44672855734825,50.86214447021484,0.07282387465239,0.29690885543823,9.98632240295410,1.33021128177643,1.83043181896210,0.81034475564957
531,617676631,1.57225477695465,-0.44716203212738,50.86149215698242,0.07345872372389,0.30912047624588,10.01749992370605,1.33950912952423,1.75220572948456,0.68824172019958
532,617684964,1.57191336154938,-0.44653353095055,50.86160278320312,0.07690287381411,0.25794136524200,9.96692180633545,1.26456201076508,1.88411903381348,0.76521241664886
533,617693297,1.57160210609436,-0.44651335477829,50.86217117309570,0.09103304892778,0.27294716238976,9.98992633819580,1.26971030235291,1.81127202510834,0.83426833152771
534,617701630,1.57097244262695,-0.44621053338051,50.86329650878906,0.07737003266811,0.28741466999054,10.00528812408447,1.23095607757568,1.84641504287720,0.86095845699310
535,617709963,1.57027399539948,-0.44649222493172,50.86383056640625,0.08785860985518,0.26142519712448,9.99406719207764,1.22355353832245,1.77518165111542,0.83219367265701
536,617718296,1.57042479515076,-0.44646582007408,50.86394119262695,0.07669065147638,0.28364524245262,10.00019454956055,1.32367968559265,1.81145131587982,0.75040745735168
537,617726629,1.57042658329010,-0.44690749049187,50.86352920532227,0.07400862127542,0.29160562157631,9.98991203308105,1.30641567707062,1.75202631950378,0.71718579530716
538,617734962,1.57094192504883,-0.44701278209686,50.86395645141602,0.07664942741394,0.27560493350029,9.99478054046631,1.36868393421173,1.79754316806793,0.79925376176834
539,617743295,1.57117545604706,-0.44744405150414,50.86463165283203,0.07842556387186,0.26700285077095,10.00227642059326,1.33538532257080,1.75661158561707,0.84940648078918
540,617751628,1.57189369201660,-0.44674000144005,50.86516952514648,0.08764045685530,0.27478918433189,9.96996784210205,1.39296603202820,1.89387810230255,0.81854122877121
541,617759961,1.57109844684601,-0.44717562198639,50.86519622802734,0.09328579157591,0.27505001425743,9.99897480010986,1.21128427982330,1.75430607795715,0.77061700820923
542,617768294,1.57185637950897,-0.44737252593040,50.86528015136719,0.06857990473509,0.29051098227501,10.00341796875000,1.39652657508850,1.78547859191895,0.75266152620316
543,617776627,1.57202482223511,-0.44657906889915,50.86483764648438,0.07521639764309,0.29132032394409,10.00269699096680,1.32626688480377,1.90007686614990,0.70962959527969
544,617784960,1.57172453403473,-0.44592145085335,50.86483764648438,0.05766815692186,0.27757978439331,9.98568820953369,1.26927506923676,1.88688540458679,0.75903946161270
545,617793293,1.57188868522644,-0.44563627243042,50.86476898193359,0.06987114250660,0.26659315824509,9.96794795989990,1.32703506946564,1.84116411209106,0.75632435083389
546,617801626,1.57264387607574,-0.44614809751511,50.86405563354492,0.08468922972679,0.30496969819069,10.00614070892334,1.39621901512146,1.74334311485291,0.68235033750534
547,617809959,1.57701349258423,-0.44507950544357,50.85556411743164,0.07658994197845,0.26690673828125,10.00826263427734,1.23879408836365,1.78081703186035,0.68317008018494
548,617818292,1.57701134681702,-0.44490784406662,50.85535049438477,0.07539515942335,0.27084410190582,9.96795177459717,1.30508363246918,1.82761394977570,0.72533112764359
549,617826625,1.57686901092529,-0.44500869512558,50.85528182983398,0.06823236495256,0.30200481414795,9.99546241760254,1.28925406932831,1.79490458965302,0.76006394624710
550,617834958,1.57771182060242,-0.44506213068962,50.85520553588867,0.06811722368002,0.27254554629326,10.01672267913818,1.40615725517273,1.80205106735229,0.74554067850113
551,617843291,1.57767450809479,-0.44573518633842,50.85502624511719,0.08547680824995,0.26497009396553,10.00418663024902,1.30139529705048,1.72449135780334,0.74769234657288
552,617851624,1.57756340503693,-0.44546237587929,50.85472488403320,0.08832486718893,0.28710132837296,10.00291347503662,1.29248142242432,1.83965253829956,0.72535663843155
553,617859957,1.57695960998535,-0.44454774260521,50.85380554199219,0.08225357532501,0.27478015422821,10.00543308258057,1.23436284065247,1.91337037086487,0.65461015701294
554,617868290,1.57723450660706,-0.44474917650223,50.85323715209961,0.09803509712219,0.27703726291656,10.00954627990723,1.33868968486786,1.78015100955963,0.70053660869598
555,617876623,1.57673227787018,-0.44435405731201,50.85328292846680,0.08807744085789,0.25978326797485,10.00036430358887,1.24399363994598,1.85683989524841,0.76931065320969
556,617884956,1.57608199119568,-0.44476875662804,50.85385131835938,0.08908458799124,0.25692671537399,10.00937557220459,1.22941923141479,1.76004362106323,0.82415080070496
557,617893289,1.57596886157990,-0.44554743170738,50.85329818725586,0.08509368449450,0.28197106719017,10.00975608825684,1.29163622856140,1.71145343780518,0.70314919948578
558,617901622,1.57504701614380,-0.44540768861771,50.85282516479492,0.07765924185514,0.28028711676598,10.00771331787109,1.19409704208374,1.82302892208099,0.69075185060501
559,617909955,1.57500660419464,-0.44521766901016,50.85303878784180,0.09302479028702,0.27166301012039,10.00169944763184,1.30185651779175,1.83081603050232,0.79244047403336
560,617918288,1.57505345344543,-0.44538950920105,50.85285568237305,0.10113502293825,0.26447162032127,9.96439266204834,1.31164109706879,1.78727185726166,0.73829191923141
561,617926621,1.57511389255524,-0.44490242004395,50.85343551635742,0.08296205103397,0.27792108058929,9.98936748504639,1.31458663940430,1.86675286293030,0.83506250381470
562,617934954,1.57430994510651,-0.44472441077232,50.85387039184570,0.07985049486160,0.30066359043121,10.00437355041504,1.20874857902527,1.83014988899231,0.80721980333328
563,617943287,1.57379448413849,-0.44479390978813,50.85435104370117,0.08045855909586,0.26100033521652,10.02081775665283,1.24596595764160,1.80002748966217,0.82535463571548
564,617951620,1.57329630851746,-0.44538837671280,50.85470581054688,0.09900141507387,0.28136771917343,9.99404621124268,1.24540245532990,1.73734927177429,0.78916168212891
565,617959953,1.57317149639130,-0.44462946057320,50.85488510131836,0.08884927630424,0.27089822292328,9.99378204345703,1.29094457626343,1.89851427078247,0.78734314441681
566,617968286,1.57311582565308,-0.44616171717644,50.85498046875000,0.07103161513805,0.27607634663582,10.01181316375732,1.29962801933289,1.62518489360809,0.79264539480209
567,617976619,1.57330727577209,-0.44664141535759,50.85488510131836,0.08413092792034,0.26517790555954,9.97936058044434,1.32934057712555,1.74887609481812,0.75701594352722
568,617984952,1.57304608821869,-0.44700071215630,50.85504913330078,0.06907471269369,0.26190149784088,10.00206279754639,1.27460289001465,1.76506400108337,0.77855741977692
569,617993285,1.57242059707642,-0.44703662395477,50.85525512695312,0.07649596780539,0.28967908024788,10.02626514434814,1.23118638992310,1.80343425273895,0.79264527559280
570,618001618,1.57209253311157,-0.44754186272621,50.85576629638672,0.08824747055769,0.26388466358185,9.98878860473633,1.26609861850739,1.74872219562531,0.81536507606506
571,618009951,1.57213592529297,-0.44758129119873,50.85513305664062,0.08082973212004,0.26883628964424,10.00195693969727,1.31240940093994,1.80084729194641,0.69169962406158
572,618018284,1.57181763648987,-0.44819718599319,50.85586547851562,0.07615303993225,0.28727337718010,9.99874877929688,1.26761007308960,1.73673474788666,0.85081523656845
573,618026617,1.57143425941467,-0.44848555326462,50.85602188110352,0.05424183607101,0.25774338841438,10.00658130645752,1.26105272769928,1.77203094959259,0.78688204288483
574,618034950,1.57147967815399,-0.44884973764420,50.85610580444336,0.08907709270716,0.26583597064018,10.01106166839600,1.31079554557800,1.76386022567749,0.76651871204376
575,618043283,1.57095265388489,-0.44870004057884,50.85648345947266,0.07544948905706,0.27250176668167,10.00982475280762,1.24250817298889,1.82681989669800,0.81195843219757
576,618051616,1.57083714008331,-0.44931930303574,50.85651779174805,0.07958669960499,0.26022762060165,10.00754833221436,1.29312181472778,1.73360979557037,0.77015602588654
577,618059949,1.57077836990356,-0.44992414116859,50.85670471191406,0.08531577885151,0.28375509381294,10.01355552673340,1.29934608936310,1.73473680019379,0.79246604442596
578,618068282,1.57084763050079,-0.44948509335518,50.85602951049805,0.08014868199825,0.27745521068573,9.99413013458252,1.31233263015747,1.85742902755737,0.65875977277756
579,618076615,1.57127249240875,-0.44976529479027,50.85633468627930,0.08236055076122,0.27766644954681,9.98206233978271,1.35833561420441,1.77443909645081,0.80486327409744
580,618084948,1.57098829746246,-0.44954282045364,50.85727310180664,0.07554206252098,0.28542146086693,9.98895740509033,1.27211833000183,1.83829522132874,0.86095851659775
581,618093281,1.57119643688202,-0.44860398769379,50.85800170898438,0.07745393365622,0.28903093934059,10.00468730926514,1.33328509330750,1.92095255851746,0.85043096542358
582,618101614,1.57128393650055,-0.44887864589691,50.85840606689453,0.08697631955147,0.27103498578072,10.02193450927734,1.31532931327820,1.77656471729279,0.80061125755310
583,618109947,1.57072818279266,-0.44815742969513,50.85865402221680,0.08438175916672,0.28093230724335,9.98841762542725,1.24092018604279,1.89418566226959,0.79425901174545
584,618118280,1.57041060924530,-0.44805267453194,50.85935974121094,0.08496768027544,0.28237667679787,10.00090503692627,1.26745629310608,1.82364392280579,0.85406821966171
585,618126613,1.57062160968781,-0.44748544692993,50.85937500000000,0.09678521007299,0.26627343893051,10.01288318634033,1.33203005790710,1.87464189529419,0.76795321702957
586,618134946,1.56980645656586,-0.44634553790092,50.85960388183594,0.08450665324926,0.27822822332382,10.00226783752441,1.20703244209290,1.94636189937592,0.77748173475266
587,618143279,1.56876850128174,-0.44702565670013,50.86014938354492,0.09078277647495,0.29035276174545,9.99911594390869,1.18272447586060,1.72671973705292,0.83401238918304
588,618151612,1.56867158412933,-0.44631987810135,50.85991668701172,0.07438737154007,0.29353585839272,10.01053810119629,1.29399275779724,1.89203393459320,0.73183715343475
589,618159945,1.56839549541473,-0.44569754600525,50.85958480834961,0.05718857422471,0.27346065640450,10.01012229919434,1.27265620231628,1.88007211685181,0.72627890110016
590,618168278,1.56846261024475,-0.44547054171562,50.85942077636719,0.08909440040588,0.27350330352783,9.99219989776611,1.31397187709808,1.83491432666779,0.75893706083298
591,618176611,1.56796467304230,-0.44533935189247,50.85859298706055,0.08986864238977,0.25878283381462,10.02501869201660,1.24555611610413,1.82041645050049,0.66877484321594
592,618184944,1.56814420223236,-0.44527330994606,50.85803222656250,0.09024111181498,0.28128638863564,9.99943733215332,1.32772672176361,1.81473004817963,0.71098715066910
593,618193277,1.56799435615540,-0.44518053531647,50.85808944702148,0.07762827724218,0.29831975698471,10.01770210266113,1.28871631622314,1.81729161739349,0.77225649356842
594,618201610,1.56774246692657,-0.44581553339958,50.85773849487305,0.06949734687805,0.28604272007942,10.00554180145264,1.27357816696167,1.73071551322937,0.68309324979782
595,618209943,1.56754469871521,-0.44676142930984,50.85710525512695,0.06387594342232,0.27290046215057,9.98579978942871,1.28272247314453,1.69039857387543,0.69405603408813
596,618218276,1.56739449501038,-0.44606161117554,50.85684204101562,0.08945491909981,0.28608387708664,9.99761581420898,1.28725612163544,1.89221322536469,0.76892650127411
597,618226609,1.56677913665771,-0.44487878680229,50.85728073120117,0.08277495205402,0.27216947078705,10.01393318176270,1.23377370834351,1.95030629634857,0.81500655412674
598,618234942,1.56712543964386,-0.44531077146530,50.85686111450195,0.08740186691284,0.26870232820511,9.99203300476074,1.34545171260834,1.75584292411804,0.71726262569427
599,618243275,1.56699693202972,-0.44590541720390,50.85656738281250,0.08833976835012,0.27264022827148,10.01630401611328,1.29138004779816,1.73537731170654,0.73342525959015
600,618251608,1.56619405746460,-0.44642496109009,50.85699844360352,0.06376811861992,0.28943380713463,10.02773761749268,1.20933771133423,1.74587917327881,0.80396682024002
601,618259941,1.56545400619507,-0.44644507765770,50.85807418823242,0.06778886169195,0.28059956431389,10.00032901763916,1.21948087215424,1.80886447429657,0.89469248056412
602,618268274,1.56517040729523,-0.44582557678223,50.85828399658203,0.07879552245140,0.28176334500313,10.01122665405273,1.27088880538940,1.88219821453094,0.78042739629745
603,618276607,1.56515538692474,-0.44635805487633,50.85819244384766,0.07875964790583,0.28653082251549,10.01967716217041,1.30423855781555,1.74306142330170,0.75670850276947
604,618284940,1.56517529487610,-0.44612884521484,50.85786819458008,0.09130770713091,0.24203218519688,9.97623825073242,1.30918192863464,1.83406889438629,0.71564894914627
605,618293273,1.56498885154724,-0.44655841588974,50.85775375366211,0.08709043264389,0.28397452831268,9.98468780517578,1.28282499313354,1.75507473945618,0.75332748889923
606,618301606,1.56401741504669,-0.44665116071701,50.85828018188477,0.09311222285032,0.27312600612640,9.99843406677246,1.18938422203064,1.79984819889069,0.81516015529633
607,618309939,1.56354033946991,-0.44645002484322,50.85798263549805,0.09462217241526,0.24385128915310,9.98181819915771,1.24939835071564,1.83025252819061,0.73042839765549
608,618318272,1.56488835811615,-0.44578662514687,50.85799026489258,0.05513166636229,0.28768467903137,10.01964664459229,1.46793889999390,1.88765382766724,0.75535088777542
609,618326605,1.56538116931915,-0.44576799869537,50.85838317871094,0.09023275971413,0.28277021646500,10.03221035003662,1.36481618881226,1.80986356735229,0.81372582912445
610,618334938,1.56614720821381,-0.44588184356689,50.85870361328125,0.08666637539864,0.25571823120117,10.02442455291748,1.39852452278137,1.79626226425171,0.79128783941269
611,618343271,1.56630992889404,-0.44636866450310,50.85886764526367,0.06674145162106,0.26713949441910,10.01086616516113,1.32608723640442,1.74882459640503,0.78808593750000
612,618351604,1.56611645221710,-0.44701161980629,50.85895919799805,0.08317108452320,0.29091215133667,9.99401950836182,1.28205645084381,1.73086893558502,0.76416224241257
613,618359937,1.56660246849060,-0.44658485054970,50.85862350463867,0.09547921270132,0.26034605503082,10.00970458984375,1.36563587188721,1.85581541061401,0.72481882572174
614,618368270,1.56685984134674,-0.44647014141083,50.85926818847656,0.09919827431440,0.27456986904144,9.97712135314941,1.33738315105438,1.82425856590271,0.82484233379364
615,618376603,1.56655347347260,-0.44712966680527,50.85911178588867,0.07331899553537,0.28322711586952,10.00184535980225,1.26840400695801,1.72687327861786,0.74992072582245
616,618384936,1.56578552722931,-0.44749268889427,50.85969924926758,0.07052133977413,0.27187374234200,10.02131748199463,1.21456301212311,1.76685702800751,0.80880784988403
617,618393269,1.56538212299347,-0.44766539335251,50.85951614379883,0.07176630944014,0.28958851099014,9.99856185913086,1.25810706615448,1.78509438037872,0.74500280618668
618,618401602,1.56522548198700,-0.44835224747658,50.85935974121094,0.06730248779058,0.29129523038864,9.98378086090088,1.28505325317383,1.72449111938477,0.69520872831345
619,618409935,1.56520962715149,-0.44807419180870,50.85955429077148,0.07440745830536,0.25884190201759,9.99543190002441,1.30490446090698,1.84095931053162,0.78765058517456
620,618418268,1.56519448757172,-0.44848138093948,50.85981369018555,0.07506678998470,0.25503143668175,9.99709129333496,1.30329060554504,1.75845563411713,0.78216910362244
621,618426601,1.56529569625854,-0.44813230633736,50.85949325561523,0.08097376674414,0.30895784497261,10.02670955657959,1.31940209865570,1.84784948825836,0.72755962610245
622,618434934,1.56560623645782,-0.44802424311638,50.85978317260742,0.07109180092812,0.26101851463318,10.00026035308838,1.34291601181030,1.82297790050507,0.78099089860916
623,618443267,1.56615900993347,-0.44774514436722,50.85961151123047,0.09270726889372,0.25520884990692,9.99769496917725,1.37193691730499,1.83862805366516,0.74620664119720
624,618451600,1.56580054759979,-0.44748932123184,50.85919189453125,0.07746163010597,0.28813144564629,9.99864292144775,1.26266658306122,1.83816695213318,0.72154015302658
625,618459933,1.56590008735657,-0.44750258326530,50.85879898071289,0.07795867323875,0.28924798965454,9.97618865966797,1.31799328327179,1.80389523506165,0.71918368339539
626,618468266,1.56647098064423,-0.44728401303291,50.85919189453125,0.09897519648075,0.27584603428841,10.00086307525635,1.37480568885803,1.83547782897949,0.80650258064270
627,618476599,1.56625211238861,-0.44761705398560,50.85894393920898,0.08418301492929,0.30391913652420,9.96656703948975,1.28010964393616,1.76547396183014,0.73719042539597
628,618484932,1.56542873382568,-0.44874268770218,50.85877609252930,0.08317823708057,0.29148101806641,9.99969196319580,1.20595657825470,1.67259669303894,0.73667818307877
629,618493265,1.56477487087250,-0.44896733760834,50.85931015014648,0.08487123250961,0.25864076614380,10.00530529022217,1.22862517833710,1.78232800960541,0.83301335573196
630,618501598,1.56509840488434,-0.44821682572365,50.85877609252930,0.06816872209311,0.29362750053406,10.00319671630859,1.34463226795197,1.89684939384460,0.69323647022247
631,618509931,1.56508481502533,-0.44757488369942,50.85930252075195,0.07529497146606,0.30241015553474,10.00728225708008,1.30480206012726,1.88427293300629,0.82973474264145
632,618518264,1.56526982784271,-0.44715604186058,50.85914993286133,0.04818229377270,0.26028972864151,9.99251079559326,1.32757294178009,1.85804390907288,0.73590970039368
633,618526597,1.56487381458282,-0.44710689783096,50.85912704467773,0.08466578274965,0.30646267533302,10.02035045623779,1.25923418998718,1.81245052814484,0.76364994049072
634,618534930,1.56433725357056,-0.44639694690704,50.85945510864258,0.08041403442621,0.31046015024185,10.01729583740234,1.24181640148163,1.89528703689575,0.80268609523773
635,618543263,1.56352078914642,-0.44643056392670,50.85932540893555,0.07821839302778,0.24041117727757,9.99600028991699,1.20836436748505,1.80202543735504,0.75289189815521
636,618551596,1.56354451179504,-0.44651335477829,50.85875320434570,0.08322704583406,0.28651615977287,10.01459217071533,1.30851590633392,1.79567313194275,0.68573147058487
637,618559929,1.56305778026581,-0.44653645157814,50.85865783691406,0.05891194194555,0.30658829212189,10.00991630554199,1.24681115150452,1.80463802814484,0.75506913661957
638,618568262,1.56258845329285,-0.44574847817421,50.85884094238281,0.08653364330530,0.26171541213989,9.98326110839844,1.24927031993866,1.90130639076233,0.77620095014572
639,618576595,1.56348598003387,-0.44515246152878,50.85928344726562,0.07162553071976,0.28557738661766,9.99848461151123,1.41476404666901,1.88094294071198,0.81746554374695
640,618584928,1.56360816955566,-0.44461178779602,50.85894012451172,0.07947111874819,0.29975461959839,10.00489997863770,1.31940197944641,1.87149131298065,0.70921969413757
641,618593261,1.56312906742096,-0.44489097595215,50.85864257812500,0.09390819817781,0.28051120042801,9.98310089111328,1.24998724460602,1.77162134647369,0.73281043767929
642,618601594,1.56321775913239,-0.44510853290558,50.85874176025391,0.09129136055708,0.24964722990990,9.98906898498535,1.31568801403046,1.78309643268585,0.77707189321518
643,618609927,1.56301176548004,-0.44472256302834,50.85877990722656,0.08751337975264,0.29392462968826,10.01212692260742,1.28154420852661,1.85310029983521,0.76982307434082
644,618618260,1.56259953975677,-0.44507682323456,50.85900115966797,0.07885184884071,0.27513697743416,10.03790283203125,1.25662147998810,1.76496136188507,0.76175451278687
645,618626593,1.56309974193573,-0.44570356607437,50.85894393920898,0.06575413048267,0.29204827547073,9.96693611145020,1.36584079265594,1.73217535018921,0.76201063394547
646,618634926,1.56257665157318,-0.44600200653076,50.85890197753906,0.08564613014460,0.29415526986122,10.01367664337158,1.24278974533081,1.77133953571320,0.75104773044586
647,618643259,1.56234490871429,-0.44510197639465,50.85880661010742,0.09340377151966,0.29177281260490,9.99612617492676,1.27859854698181,1.91452300548553,0.75284075737000
648,618651592,1.56318390369415,-0.44438254833221,50.85935592651367,0.08735451847315,0.28551283478737,9.98529052734375,1.40666973590851,1.89718222618103,0.82199925184250
649,618659925,1.56278312206268,-0.44422119855881,50.85961151123047,0.07674613595009,0.30382847785950,10.03813266754150,1.25856828689575,1.82689678668976,0.79792183637619
650,618668258,1.56291031837463,-0.44405001401901,50.85916900634766,0.08452735841274,0.26425710320473,9.98193550109863,1.32116949558258,1.82697379589081,0.71787738800049
651,618676591,1.56283390522003,-0.44498518109322,50.85873794555664,0.08672669529915,0.26398620009422,10.04199123382568,1.29609322547913,1.69347238540649,0.71979838609695
652,618684924,1.56287336349487,-0.44560265541077,50.85808181762695,0.07262860983610,0.30044460296631,9.99937438964844,1.31036019325256,1.73253393173218,0.70117688179016
653,618693257,1.56326293945312,-0.44552028179169,50.85797882080078,0.07645197957754,0.25694751739502,10.00144100189209,1.35295677185059,1.81649732589722,0.75494116544724
654,618701590,1.56322443485260,-0.44596678018570,50.85757064819336,0.06466455757618,0.25390124320984,10.02482891082764,1.29975593090057,1.75274384021759,0.70312362909317
655,618709923,1.56335139274597,-0.44548153877258,50.85759735107422,0.07174625247717,0.29313588142395,10.00165271759033,1.32229638099670,1.86519026756287,0.76751774549484
656,618718256,1.56217801570892,-0.44582453370094,50.85787582397461,0.07656928151846,0.28721976280212,10.00948619842529,1.16420531272888,1.76813781261444,0.80199444293976
657,618726589,1.56184792518616,-0.44612646102905,50.85803985595703,0.07599028944969,0.25971153378487,10.01135635375977,1.26750755310059,1.77113461494446,0.78818845748901
658,618734922,1.56165683269501,-0.44718527793884,50.85805511474609,0.08416713029146,0.31269028782845,9.98868083953857,1.28231251239777,1.68094694614410,0.74064844846725
659,618743255,1.56144118309021,-0.44695353507996,50.85795974731445,0.07372134923935,0.27100014686584,9.99880123138428,1.28041732311249,1.83388960361481,0.75514602661133
660,618751588,1.56171786785126,-0.44728866219521,50.85828781127930,0.07405172288418,0.27276688814163,10.00818920135498,1.33932983875275,1.76995635032654,0.83309018611908
661,618759921,1.56207549571991,-0.44706663489342,50.85863113403320,0.07015160471201,0.28015959262848,9.98301982879639,1.34939646720886,1.83509361743927,0.80775773525238
662,618768254,1.56202948093414,-0.44606032967567,50.85986328125000,0.06425163149834,0.28777980804443,9.98121070861816,1.30206131935120,1.93127489089966,0.87007713317871
663,618776587,1.56136381626129,-0.44605553150177,50.85995483398438,0.07236295938492,0.26464134454727,9.99672794342041,1.22675538063049,1.80750691890717,0.77812200784683
664,618784920,1.56162607669830,-0.44675335288048,50.86022949218750,0.08603672683239,0.28973406553268,9.96847724914551,1.33625614643097,1.72472178936005,0.78718948364258
665,618793253,1.56157219409943,-0.44761586189270,50.86007690429688,0.08905235677958,0.26146963238716,10.00198459625244,1.29967916011810,1.70364129543304,0.75294333696365
666,618801586,1.56143653392792,-0.44787156581879,50.86038208007812,0.08593470603228,0.25755634903908,9.95836162567139,1.29097020626068,1.77902388572693,0.80793696641922
667,618809919,1.56210839748383,-0.44746354222298,50.86063766479492,0.08079602569342,0.30293053388596,10.02470588684082,1.38666486740112,1.85666060447693,0.79556530714035
668,618818252,1.56124925613403,-0.44743588566780,50.86086273193359,0.08041563630104,0.30147424340248,10.00539588928223,1.20324146747589,1.81237363815308,0.80517059564590
669,618826585,1.56137406826019,-0.44809642434120,50.86088180541992,0.08218826353550,0.26041638851166,9.99826431274414,1.32052910327911,1.72761595249176,0.77207702398300
670,618834918,1.56099557876587,-0.44867444038391,50.86010742187500,0.08059638738632,0.27885866165161,10.00095844268799,1.26028430461884,1.73822033405304,0.73227256536484
671,618843251,1.56082999706268,-0.44936454296112,50.86066436767578,0.06093657761812,0.31079688668251,10.01111698150635,1.28664147853851,1.72638654708862,0.83624070882797
672,618851584,1.56029367446899,-0.44952422380447,50.86130523681641,0.07831935584545,0.25586459040642,9.99660778045654,1.24197018146515,1.78906452655792,0.81021660566330
673,618859917,1.56113016605377,-0.44970259070396,50.86151504516602,0.06837250292301,0.29350638389587,10.00348281860352,1.40764307975769,1.78599107265472,0.79310643672943
674,618868250,1.56136560440063,-0.45016720890999,50.86200332641602,0.07103553414345,0.27408841252327,9.97175979614258,1.33477044105530,1.75392186641693,0.78314232826233
675,618876583,1.56128466129303,-0.45020300149918,50.86225509643555,0.09179105609655,0.27075359225273,9.99301528930664,1.29606759548187,1.80299878120422,0.79766571521759
676,618884916,1.56128323078156,-0.45021528005600,50.86281967163086,0.07402783632278,0.27430751919746,9.96812820434570,1.30633878707886,1.80883896350861,0.81941217184067
677,618893249,1.56119036674500,-0.45096543431282,50.86269760131836,0.09759273380041,0.29608121514320,9.95425796508789,1.29486358165741,1.71560299396515,0.75450563430786
678,618901582,1.56100308895111,-0.45124948024750,50.86352920532227,0.10332080721855,0.25892195105553,10.00864124298096,1.28408002853394,1.77687239646912,0.84558993577957
679,618909915,1.56142318248749,-0.45140597224236,50.86389160156250,0.09602427482605,0.27750429511070,9.99243545532227,1.35633778572083,1.78952574729919,0.81326478719711
680,618918248,1.56152856349945,-0.45159795880318,50.86447906494141,0.07011684775352,0.28502178192139,10.01871871948242,1.31873595714569,1.78609335422516,0.82527780532837
681,618926581,1.56076455116272,-0.45267787575722,50.86447525024414,0.07764000445604,0.26139375567436,10.00791931152344,1.21530568599701,1.67733538150787,0.76997667551041
682,618934914,1.56094360351562,-0.45278888940811,50.86549377441406,0.08856752514839,0.28431007266045,9.99980258941650,1.32718884944916,1.79843962192535,0.88411378860474
683,618943247,1.56141364574432,-0.45381560921669,50.86553192138672,0.08159297704697,0.29239439964294,10.00645637512207,1.36379158496857,1.68340611457825,0.77340906858444
684,618951580,1.56065952777863,-0.45501300692558,50.86501312255859,0.08425085246563,0.25528031587601,10.00063419342041,1.21428120136261,1.66340112686157,0.69925570487976
685,618959913,1.56043493747711,-0.45543637871742,50.86452865600586,0.08134488761425,0.26289471983910,10.00188922882080,1.27852165699005,1.75369131565094,0.71096152067184
686,618968246,1.56047236919403,-0.45550820231438,50.86376953125000,0.07258629798889,0.28349810838699,9.98578071594238,1.30923318862915,1.79992496967316,0.71943980455399
687,618976579,1.56024181842804,-0.45465382933617,50.86400985717773,0.09191685169935,0.27416911721230,9.98155879974365,1.27967453002930,1.90934908390045,0.79277342557907
688,618984912,1.56022369861603,-0.45404377579689,50.86402511596680,0.07256550341845,0.27220654487610,9.97868537902832,1.30326485633850,1.88112211227417,0.75775867700577
689,618993245,1.56056797504425,-0.45442727208138,50.86452865600586,0.08808581531048,0.28729864954948,9.97859954833984,1.34796190261841,1.76232326030731,0.82840269804001
690,619001578,1.56014049053192,-0.45412108302116,50.86499404907227,0.08614780008793,0.27041789889336,9.97896862030029,1.25521254539490,1.84659397602081,0.80596470832825
691,619009911,1.55997252464294,-0.45415544509888,50.86503219604492,0.09194971621037,0.26069530844688,10.01003360748291,1.28556561470032,1.80292189121246,0.77064269781113
692,619018244,1.55960428714752,-0.45419552922249,50.86548233032227,0.10289453715086,0.27190801501274,10.01738071441650,1.26143693923950,1.80463802814484,0.82758301496506
693,619026577,1.55879569053650,-0.45348399877548,50.86591720581055,0.07446396350861,0.26978197693825,10.01051902770996,1.21113073825836,1.89423668384552,0.81795221567154
694,619034910,1.55895078182220,-0.45366933941841,50.86677932739258,0.08618643134832,0.24662457406521,10.01453971862793,1.32480669021606,1.78839886188507,0.84874057769775
695,619043243,1.55880868434906,-0.45413640141487,50.86699295043945,0.08180689811707,0.30595892667770,10.02391815185547,1.28986871242523,1.75182139873505,0.79372107982635
696,619051576,1.55813765525818,-0.45460832118988,50.86743927001953,0.07738232612610,0.28351330757141,10.00405883789062,1.22406589984894,1.75256431102753,0.81213766336441
697,619059909,1.55760347843170,-0.45459577441216,50.86721801757812,0.05765727907419,0.27720537781715,10.01266002655029,1.24253368377686,1.80686664581299,0.74144244194031
698,619068242,1.55800318717957,-0.45498776435852,50.86703491210938,0.10354187339544,0.30511873960495,9.96887016296387,1.35300803184509,1.75991570949554,0.69761651754379
699,619076575,1.55807447433472,-0.45549026131630,50.86666870117188,0.09581141173840,0.29898318648338,9.99093055725098,1.31484258174896,1.74559724330902,0.72520297765732
700,619084908,1.55796456336975,-0.45619827508926,50.86647033691406,0.07584606111050,0.25347822904587,9.98447513580322,1.29237890243530,1.72338974475861,0.75081723928452
701,619093241,1.55879390239716,-0.45580297708511,50.86627960205078,0.07288256287575,0.28678151965141,9.98550128936768,1.40659308433533,1.85348439216614,0.74331223964691
702,619101574,1.55963265895844,-0.45441889762878,50.86632537841797,0.04707852378488,0.29022076725960,10.00512599945068,1.40541458129883,1.97253942489624,0.74413192272186
703,619109907,1.55957734584808,-0.45409995317459,50.86642837524414,0.08079714328051,0.26064762473106,9.98411750793457,1.29952538013458,1.84654295444489,0.77735358476639
704,619118240,1.56020843982697,-0.45416975021362,50.86646652221680,0.08169211447239,0.28841575980186,10.02926158905029,1.38172161579132,1.79905438423157,0.76718479394913
705,619126573,1.56036233901978,-0.45425897836685,50.86640548706055,0.08445955067873,0.28418207168579,10.00774955749512,1.32388448715210,1.79600620269775,0.75973099470139
706,619134906,1.56099677085876,-0.45410263538361,50.86690139770508,0.08599517494440,0.27150619029999,10.00609111785889,1.38336074352264,1.82981705665588,0.82335680723190
