sep=,
DeviceTag:,topfloor
FirmwareVersion:,3.0.0
AppVersion:,2023.6.0
StartTime: ,2025-04-03_11:56:43_000 PDT
© Movella Technologies B. V. 2005-2025

PacketCounter,SampleTimeFine,Euler_X,Euler_Y,Euler_Z,Acc_X,Acc_Y,Acc_Z,Gyr_X,Gyr_Y,Gyr_Z
0,1518873877,-1.90877580642700,0.33701518177986,-26.19486236572266,0.00000000000000,0.00000000000000,0.00000000000000,0.00000000000000,0.00000000000000,0.00000000000000
1,1518882210,-1.89749002456665,0.33804365992546,-26.19608306884766,-0.03724485263228,-0.33049711585045,9.84068775177002,1.35567176342010,0.12787905335426,-0.14100636541843
2,1518890543,-1.88548970222473,0.33910825848579,-26.19864463806152,-0.03558539226651,-0.33952400088310,9.85357761383057,1.44255518913269,0.13763809204102,-0.30329814553261
3,1518898876,-1.87337815761566,0.32669851183891,-26.19223213195801,-0.01013577450067,-0.32833692431450,9.82617378234863,1.20977306365967,0.11963128298521,-0.23116844892502
4,1518907209,-1.86327898502350,0.32726815342903,-26.19377517700195,0.00434908224270,-0.32472479343414,9.85736942291260,1.21307730674744,0.07539549469948,-0.18196351826191
5,1518915542,-1.86223423480988,0.28866463899612,-26.15034675598145,0.01522125024348,-0.31931722164154,9.86291885375977,1.31794202327728,0.22949072718620,-0.18370528519154
6,1518923875,-1.85124003887177,0.28954434394836,-26.15230369567871,0.04238785058260,-0.32663461565971,9.83187007904053,1.32124626636505,0.11307403445244,-0.23114283382893
7,1518932208,-1.84273314476013,0.22642603516579,-26.19846534729004,0.03307474404573,-0.33752119541168,9.85392093658447,1.32944297790527,0.12775102257729,-0.31638702750206
8,1518940541,-1.83159673213959,0.22763942182064,-26.20077133178711,0.00910556875169,-0.34475272893906,9.86316204071045,1.33763945102692,0.15403120219707,-0.27379056811333
9,1518948874,-1.82836115360260,0.15657283365726,-26.16281890869141,0.01622279360890,-0.34101182222366,9.85772800445557,1.38848340511322,0.07695796340704,-0.30160760879517
10,1518957207,-1.81764829158783,0.15826869010925,-26.16465759277344,-0.01316113304347,-0.33723509311676,9.84679794311523,1.28679502010345,0.20981901884079,-0.21487781405449
11,1518965540,-1.82102859020233,0.10906711965799,-26.16411590576172,-0.02627239190042,-0.33722794055939,9.84502983093262,1.28518152236938,0.09181423485279,-0.21144552528858
12,1518973873,-1.81010961532593,0.11036833375692,-26.16618156433105,-0.04653639718890,-0.32258605957031,9.84505844116211,1.31141030788422,0.16389265656471,-0.24433417618275
13,1518982206,-1.81244134902954,0.08544903993607,-26.12647438049316,-0.05590654164553,-0.33167022466660,9.85429382324219,1.34255719184875,0.12795591354370,-0.16557039320469
14,1518990539,-1.80189204216003,0.08723212033510,-26.12934684753418,-0.07072015851736,-0.34810024499893,9.84525871276855,1.26550960540771,0.22436787188053,-0.33787736296654
15,1518998872,-1.80141806602478,0.08164729177952,-26.10568428039551,-0.06553434580564,-0.33530381321907,9.84345626831055,1.29504287242889,0.16212528944016,-0.30662801861763
16,1519007205,-1.79036343097687,0.08325537294149,-26.10759925842285,-0.03461975976825,-0.33894461393356,9.83805561065674,1.32613849639893,0.19998311996460,-0.22471368312836
17,1519015538,-1.79091024398804,0.08908823132515,-26.09339332580566,-0.01658028922975,-0.34615468978882,9.84914970397949,1.26223111152649,0.13279700279236,-0.20655319094658
18,1519023871,-1.77974843978882,0.09094462543726,-26.09464073181152,0.00704548042268,-0.33709198236465,9.82538700103760,1.33922755718231,0.22803075611591,-0.14443868398666
19,1519032204,-1.78055286407471,0.09647960215807,-26.08721351623535,0.02135816216469,-0.33867278695107,9.86391925811768,1.24255931377411,0.14742273092270,-0.26234099268913
20,1519040537,-1.76895892620087,0.09741222858429,-26.08885955810547,0.02846116200089,-0.31488245725632,9.87123107910156,1.39173650741577,0.11812003701925,-0.19338746368885
21,1519048870,-1.76785516738892,0.09879084676504,-26.08971595764160,0.04846766218543,-0.32951000332832,9.83656787872314,1.39009726047516,0.19327220320702,-0.30340060591698
22,1519057203,-1.75674736499786,0.10035756975412,-26.09172058105469,0.05372511595488,-0.34589719772339,9.82026100158691,1.33433508872986,0.19506520032883,-0.23454955220222
23,1519065536,-1.75478088855743,0.09642226248980,-26.06151008605957,0.01316855475307,-0.34764248132706,9.82947349548340,1.27206695079803,0.11481580138206,-0.19174814224243
24,1519073869,-1.74391841888428,0.09676856547594,-26.06358528137207,-0.01444862969220,-0.35126185417175,9.84419441223145,1.30326497554779,0.04911529272795,-0.24894472956657
25,1519082202,-1.74205851554871,0.09054619818926,-26.05521202087402,-0.02366875670850,-0.34751373529434,9.85706806182861,1.33108234405518,0.09514408558607,-0.20317213237286
26,1519090535,-1.73038423061371,0.09146874397993,-26.05715751647949,-0.03846083581448,-0.33089765906334,9.86987209320068,1.40162372589111,0.11804319918156,-0.23109163343906
27,1519098868,-1.72880184650421,0.08737789839506,-26.05136680603027,-0.05509119480848,-0.32901647686958,9.84977245330811,1.34258294105530,0.11146033555269,-0.22617371380329
28,1519107201,-1.71810877323151,0.08832620084286,-26.05445289611816,-0.07536950707436,-0.33635529875755,9.83705425262451,1.28523254394531,0.12413936853409,-0.36718004941940
29,1519115534,-1.71623814105988,0.08724937587976,-26.03410530090332,-0.05903241410851,-0.34555384516716,9.82621097564697,1.27537119388580,0.12785345315933,-0.22294628620148
30,1519123867,-1.70478880405426,0.08758240193129,-26.03583717346191,-0.06289494782686,-0.32348731160164,9.84263420104980,1.37372982501984,0.04599035903811,-0.20624580979347
31,1519132200,-1.70209014415741,0.08922937512398,-26.03069877624512,-0.01896218582988,-0.33993169665337,9.82087516784668,1.36222910881042,0.12311481684446,-0.18521653115749
32,1519140533,-1.69099628925323,0.09047472476959,-26.03185844421387,-0.01550736371428,-0.32311537861824,9.85380649566650,1.33105659484863,0.15275049209595,-0.13450035452843
33,1519148866,-1.68750870227814,0.09297427535057,-26.02091026306152,0.01359053701162,-0.33579739928246,9.85581016540527,1.39995884895325,0.12444674223661,-0.27701792120934
34,1519157199,-1.67635631561279,0.09430292248726,-26.02373123168945,0.03170855343342,-0.32449588179588,9.87230396270752,1.33930432796478,0.17009133100510,-0.33454748988152
35,1519165532,-1.67307353019714,0.09634563326836,-26.01451492309570,0.04796696454287,-0.32263612747192,9.86140251159668,1.32288551330566,0.16714568436146,-0.24438539147377
36,1519173865,-1.66231465339661,0.09785941988230,-26.01671409606934,0.04962642490864,-0.34288582205772,9.83782672882080,1.29171288013458,0.19001919031143,-0.26088097691536
37,1519182198,-1.65903472900391,0.09798546135426,-26.04131698608398,0.03105049207807,-0.33566862344742,9.82317829132080,1.25895249843597,0.15085503458977,-0.21154795587063
38,1519190531,-1.64830529689789,0.09905006736517,-26.04332733154297,0.01251032203436,-0.33004647493362,9.84883499145508,1.28849852085114,0.13437229394913,-0.23936502635479
39,1519198864,-1.64511823654175,0.09765902906656,-26.02806282043457,-0.03343953937292,-0.33018952608109,9.83606052398682,1.25569939613342,0.12764853239059,-0.27048632502556
40,1519207197,-1.63370430469513,0.09893815219402,-26.03041648864746,-0.03360405564308,-0.33016091585159,9.84528732299805,1.37042546272278,0.16212528944016,-0.27878531813622
41,1519215530,-1.62950253486633,0.09804266691208,-26.04101562500000,-0.04661507904530,-0.34473842382431,9.83998680114746,1.35083079338074,0.15692561864853,-0.34269288182259
42,1519223863,-1.61912846565247,0.09915847331285,-26.04338264465332,-0.07243683934212,-0.35201287269592,9.83826351165771,1.24747705459595,0.14235110580921,-0.28203833103180
43,1519232196,-1.61529242992401,0.10006387531757,-26.03309249877930,-0.06712943315506,-0.35209155082703,9.83469390869141,1.30802929401398,0.26432606577873,-0.14484848082066
44,1519240529,-1.60402452945709,0.10113335400820,-26.03431320190430,-0.05470501258969,-0.33551836013794,9.83829784393311,1.35236752033234,0.13323242962360,-0.14256882667542
45,1519248862,-1.60068237781525,0.10172633826733,-26.02896881103516,-0.04393276199698,-0.32795068621635,9.85115242004395,1.28034031391144,0.08208080381155,-0.19812609255314
46,1519257195,-1.58922314643860,0.10212554782629,-26.03054428100586,-0.00560782896355,-0.32224273681641,9.86768341064453,1.37705969810486,0.05434060096741,-0.18975025415421
47,1519265528,-1.58578598499298,0.10406550019979,-26.03016853332520,0.01266066171229,-0.32048314809799,9.84031772613525,1.27373194694519,0.17833912372589,-0.29038858413696
48,1519273861,-1.57499098777771,0.10445800423622,-26.03296661376953,0.03813895955682,-0.35902979969978,9.82797050476074,1.29675900936127,0.05682517215610,-0.33570015430450
49,1519282194,-1.57108461856842,0.10661814361811,-26.03569793701172,0.04899707809091,-0.34219917654991,9.85903644561768,1.29327547550201,0.25244104862213,-0.22847895324230
50,1519290527,-1.55995917320251,0.10769694298506,-26.03700256347656,0.06695061177015,-0.32586207985878,9.83882808685303,1.33594882488251,0.13484613597393,-0.15406961739063
51,1519298860,-1.55647051334381,0.10767282545567,-26.03199958801270,0.03017069213092,-0.34048247337341,9.84085273742676,1.26548409461975,0.09716759622097,-0.13263052701950
52,1519307193,-1.54500794410706,0.10769481211901,-26.03296661376953,0.02087914943695,-0.35298565030098,9.87401294708252,1.37705957889557,0.00554548157379,-0.11731319874525
53,1519315526,-1.54088306427002,0.10716789960861,-26.03111648559570,-0.00288974866271,-0.34971681237221,9.82827091217041,1.33110773563385,0.13448753952980,-0.21966768801212
54,1519323859,-1.52949213981628,0.10752170532942,-26.03328132629395,-0.03239510208368,-0.33132687211037,9.83361530303955,1.37052810192108,0.04903845116496,-0.26180306077003
55,1519332192,-1.52560579776764,0.10727885365486,-26.03251838684082,-0.04713008180261,-0.33084759116173,9.86847019195557,1.31961965560913,0.18652285635471,-0.29702264070511
56,1519340525,-1.51460516452789,0.10849161446095,-26.03436851501465,-0.06202230229974,-0.33990308642387,9.87412738800049,1.32286000251770,0.15251995623112,-0.21982136368752
57,1519348858,-1.51101756095886,0.10801217705011,-26.03314971923828,-0.07136394083500,-0.34367260336876,9.86143016815186,1.27037632465363,0.09614302963018,-0.03588554263115
58,1519357191,-1.49990510940552,0.10916540771723,-26.03421592712402,-0.04034203290939,-0.33664855360985,9.83033847808838,1.33594882488251,0.14155705273151,-0.12953117489815
59,1519365524,-1.49636971950531,0.10958807170391,-26.03500556945801,-0.04787397757173,-0.32562601566315,9.82845687866211,1.26550960540771,0.12964645028114,-0.19016006588936
60,1519373857,-1.48580169677734,0.11129236966372,-26.03787231445312,-0.01327567640692,-0.32539713382721,9.84322738647461,1.27042770385742,0.21399414539337,-0.34312832355499
61,1519382190,-1.48148274421692,0.11249608546495,-26.03517150878906,0.01208830438554,-0.33274310827255,9.83794116973877,1.35072815418243,0.18510125577450,-0.25601428747177
62,1519390523,-1.47031688690186,0.11465200781822,-26.03669548034668,0.02655135281384,-0.35108298063278,9.82545280456543,1.34242904186249,0.26422360539436,-0.17945332825184
63,1519398856,-1.46523785591125,0.11563785374165,-26.02378845214844,0.05543462559581,-0.34506750106812,9.85480880737305,1.42938947677612,0.17247343063354,-0.18539582192898
64,1519407189,-1.45461130142212,0.11681573837996,-26.02581405639648,0.05518407002091,-0.33400195837021,9.84377670288086,1.27864968776703,0.14901080727577,-0.24272048473358
65,1519415522,-1.45072484016418,0.11694014817476,-25.99740028381348,0.04035634174943,-0.34674122929573,9.85317039489746,1.29665660858154,0.12657274305820,-0.16549356281757
66,1519423855,-1.43946158885956,0.11829613149166,-25.99948120117188,0.02186624146998,-0.34128358960152,9.85133171081543,1.35569739341736,0.17034746706486,-0.25268441438675
67,1519432188,-1.43491971492767,0.11792943626642,-25.99124908447266,-0.00213870010339,-0.34149816632271,9.83124637603760,1.37713634967804,0.12549693882465,-0.34740585088730
68,1519440521,-1.42400848865509,0.11868315935135,-25.99318885803223,-0.01146611943841,-0.34121918678284,9.84231090545654,1.31315207481384,0.09821777790785,-0.24400119483471
69,1519448854,-1.42020511627197,0.11951328068972,-25.98300170898438,-0.05557043850422,-0.35166952013969,9.88644504547119,1.28997123241425,0.27854198217392,-0.23867343366146
70,1519457187,-1.40912091732025,0.12085101753473,-25.98431396484375,-0.05959033593535,-0.35193416476250,9.86638164520264,1.33430945873260,0.16596743464470,-0.16902832686901
71,1519465520,-1.40498566627502,0.12087363004684,-25.98368263244629,-0.06715089082718,-0.34101894497871,9.85715389251709,1.33438634872437,0.15390312671661,-0.25580933690071
72,1519473853,-1.39448285102844,0.12241174280643,-25.98563385009766,-0.08200018852949,-0.33388039469719,9.84063053131104,1.26712334156036,0.19158165156841,-0.24630646407604
73,1519482186,-1.39111435413361,0.12293026596308,-25.98150062561035,-0.04567805677652,-0.31908831000328,9.84605312347412,1.24750304222107,0.16668464243412,-0.28549629449844
74,1519490519,-1.37982153892517,0.12477055937052,-25.98353385925293,-0.04775238037109,-0.32071918249130,9.86264038085938,1.36053848266602,0.22769773006439,-0.25470796227455
75,1519498852,-1.37562108039856,0.12612991034985,-25.99158859252930,0.00879075098783,-0.33912342786789,9.83928489685059,1.33589756488800,0.22318962216377,-0.19566713273525
76,1519507185,-1.36410939693451,0.12742236256599,-25.99361991882324,0.02507071383297,-0.36314985156059,9.81596755981445,1.38850915431976,0.16212530434132,-0.25911360979080
77,1519515518,-1.35962569713593,0.12856055796146,-25.99377441406250,0.05954741686583,-0.34591862559319,9.84882831573486,1.36386835575104,0.19506521522999,-0.24133734405041
78,1519523851,-1.34821963310242,0.13027143478394,-25.99526977539062,0.06663588434458,-0.35138341784477,9.84170436859131,1.37526655197144,0.21181690692902,-0.19228604435921
79,1519532184,-1.34393429756165,0.13082566857338,-25.98751449584961,0.05165066942573,-0.33295050263405,9.84333324432373,1.35223948955536,0.15905159711838,-0.01813487708569
80,1519540517,-1.33360135555267,0.13249215483665,-25.98981285095215,0.02940533682704,-0.33258575201035,9.86351966857910,1.24750280380249,0.20761616528034,-0.28746855258942
81,1519548850,-1.32955741882324,0.13241657614708,-25.99670410156250,0.01266779750586,-0.32566899061203,9.84332847595215,1.32626676559448,0.13425700366497,-0.24418048560619
82,1519557183,-1.31896090507507,0.13411299884319,-25.99884986877441,-0.02406919375062,-0.34941640496254,9.84923744201660,1.27862417697906,0.21104848384857,-0.27107542753220
83,1519565516,-1.31499207019806,0.13380280137062,-25.98782539367676,-0.04633611813188,-0.34401598572731,9.84737586975098,1.31148719787598,0.11986178904772,-0.19979101419449
84,1519573849,-1.30381345748901,0.13564728200436,-25.98925209045410,-0.07220795005560,-0.33272880315781,9.86737537384033,1.34901201725006,0.22662194073200,-0.18424318730831
85,1519582182,-1.29999387264252,0.13569627702236,-25.98235511779785,-0.05788809806108,-0.31452479958534,9.85254669189453,1.29842400550842,0.14678238332272,-0.31149473786354
86,1519590515,-1.28956842422485,0.13753044605255,-25.98448944091797,-0.06351736187935,-0.32750719785690,9.84184551239014,1.26056611537933,0.22736474871635,-0.27286842465401
87,1519598848,-1.28584277629852,0.13844338059425,-25.98855590820312,-0.04366800561547,-0.33827942609787,9.85316371917725,1.28021228313446,0.21476252377033,-0.21864309906960
88,1519607181,-1.27475452423096,0.13949680328369,-25.99050331115723,-0.03836069628596,-0.35698407888412,9.82978057861328,1.33940672874451,0.13423138856888,-0.25396513938904
89,1519615514,-1.27141165733337,0.14049759507179,-25.97684860229492,-0.01286081131548,-0.35711282491684,9.81344985961914,1.23268496990204,0.20166087150574,-0.21528762578964
90,1519623847,-1.26077628135681,0.14145900309086,-25.97870063781738,0.02150133810937,-0.34149098396301,9.86645126342773,1.28692317008972,0.12278182804585,-0.23913450539112
91,1519632180,-1.25651168823242,0.14205150306225,-25.97498703002930,0.03417619317770,-0.32910224795341,9.83887767791748,1.35405814647675,0.14470763504505,-0.18519093096256
92,1519640513,-1.24579477310181,0.14343374967575,-25.97657203674316,0.02301069535315,-0.33448123931885,9.84088802337646,1.29829597473145,0.17224290966988,-0.21008795499802
93,1519648846,-1.24229466915131,0.14358119666576,-25.97867393493652,0.03373996168375,-0.32533276081085,9.83717632293701,1.26233363151550,0.11468774825335,-0.22599442303181
94,1519657179,-1.23088920116425,0.14485061168671,-25.98028945922852,0.03358259797096,-0.32878756523132,9.85015106201172,1.38026142120361,0.15920527279377,-0.21482658386230
95,1519665512,-1.22659885883331,0.14517043530941,-25.98990821838379,0.02413369156420,-0.32089799642563,9.87389850616455,1.35579991340637,0.15374945104122,-0.26884701848030
96,1519673845,-1.21479189395905,0.14740219712257,-25.99107933044434,-0.01259607356042,-0.34487432241440,9.86520957946777,1.42921030521393,0.27293246984482,-0.16008897125721
97,1519682178,-1.21110653877258,0.14771603047848,-25.98381996154785,-0.03494896367192,-0.33571150898933,9.85777473449707,1.27862417697906,0.16911798715591,-0.18875131011009
98,1519690511,-1.20024061203003,0.14869754016399,-25.98494529724121,-0.05345327034593,-0.33789309859276,9.84321880340576,1.31799328327179,0.12362710386515,-0.15386469662189
99,1519698844,-1.19658362865448,0.14905336499214,-26.00115776062012,-0.07753681391478,-0.33163440227509,9.88344097137451,1.27871382236481,0.16851603984833,-0.25268441438675
100,1519707177,-1.18558740615845,0.15091040730476,-26.00291633605957,-0.07222225517035,-0.32307246327400,9.85224723815918,1.33428370952606,0.22946511209011,-0.23355056345463
101,1519715510,-1.18217122554779,0.15121774375439,-26.00404357910156,-0.05971174314618,-0.32829403877258,9.85980224609375,1.25247192382812,0.13766370713711,-0.21636344492435
102,1519723843,-1.17189240455627,0.15302866697311,-26.00504302978516,-0.03061404265463,-0.32094091176987,9.85798549652100,1.24896287918091,0.22206263244152,-0.13849616050720
103,1519732176,-1.16777110099792,0.15330615639687,-26.01239585876465,0.00396982766688,-0.34301459789276,9.84945774078369,1.33451437950134,0.11302281171083,-0.23729027807713
104,1519740509,-1.15632367134094,0.15454100072384,-26.01473999023438,-0.00908425822854,-0.34574696421623,9.89353179931641,1.39189016819000,0.15672069787979,-0.30324691534042
105,1519748842,-1.15152406692505,0.15546771883965,-26.01811408996582,0.03288877010345,-0.33171308040619,9.84766960144043,1.41799128055573,0.19181218743324,-0.24131171405315
106,1519757175,-1.14034903049469,0.15612483024597,-26.01997184753418,0.02347563020885,-0.32805082201958,9.84035873413086,1.35918092727661,0.08512889593840,-0.24351452291012
107,1519765508,-1.13589584827423,0.15696950256824,-26.02265930175781,0.04719445854425,-0.33867996931076,9.84807014465332,1.38200330734253,0.19414311647415,-0.32660713791847
108,1519773841,-1.12523519992828,0.15837840735912,-26.02439117431641,0.04326754808426,-0.33837237954140,9.85549449920654,1.29833447933197,0.17532944679260,-0.22981092333794
109,1519782174,-1.12107241153717,0.15902063250542,-26.01872444152832,0.01196670625359,-0.33363005518913,9.82428646087646,1.34921705722809,0.18599776923656,-0.31344139575958
110,1519790507,-1.10950422286987,0.16006667912006,-26.01947212219238,0.00080827123020,-0.34492439031601,9.80812168121338,1.40810418128967,0.13087593019009,-0.11605809628963
111,1519798840,-1.10635244846344,0.16125351190567,-26.01465415954590,-0.01779627241194,-0.32782194018364,9.83161830902100,1.23249304294586,0.26281487941742,-0.16526302695274
112,1519807173,-1.09498620033264,0.16260312497616,-26.01671218872070,-0.03284571692348,-0.32940989732742,9.84820747375488,1.38528180122375,0.17006571590900,-0.27881094813347
113,1519815506,-1.09119212627411,0.16312369704247,-26.00072097778320,-0.06969729810953,-0.33465290069580,9.85932826995850,1.31466352939606,0.18248862028122,-0.17740418016911
114,1519823839,-1.08064460754395,0.16403022408485,-26.00209426879883,-0.04604991525412,-0.34943073987961,9.84699821472168,1.28858804702759,0.11660880595446,-0.19966295361519
115,1519832172,-1.07795321941376,0.16464295983315,-25.99808502197266,-0.03901875764132,-0.32335141301155,9.86485767364502,1.18518352508545,0.18028578162193,-0.20706547796726
116,1519840505,-1.06649649143219,0.16578175127506,-25.99967956542969,-0.03730218857527,-0.33878719806671,9.83599472045898,1.40003561973572,0.14442585408688,-0.22771050035954
117,1519848838,-1.06261384487152,0.16650088131428,-26.00787162780762,-0.01907663233578,-0.35526025295258,9.82555294036865,1.33279824256897,0.18471705913544,-0.27414914965630
118,1519857171,-1.05135512351990,0.16796219348907,-26.00875282287598,0.00070820201654,-0.34179148077965,9.84738445281982,1.37690591812134,0.18302652239799,-0.14290182292461
119,1519865504,-1.04714989662170,0.16878333687782,-25.99539756774902,0.01140878442675,-0.33773577213287,9.85659599304199,1.38184952735901,0.18943008780479,-0.16098546981812
120,1519873837,-1.03581237792969,0.17039638757706,-25.99825859069824,0.02213804982603,-0.32873034477234,9.84187602996826,1.38702356815338,0.20321050286293,-0.38083240389824
121,1519882170,-1.03283667564392,0.17073632776737,-25.99601364135742,0.03845368325710,-0.34171277284622,9.82586002349854,1.24113774299622,0.14177478849888,-0.28687942028046
122,1519890503,-1.02240049839020,0.17179398238659,-25.99661254882812,0.01830412447453,-0.37506645917892,9.81571769714355,1.28027629852295,0.13403928279877,-0.11785108596087
123,1519898836,-1.01937389373779,0.17194510996342,-25.99479103088379,0.01977761089802,-0.34523913264275,9.83709716796875,1.25413691997528,0.12992820143700,-0.17850559949875
124,1519907169,-1.00812208652496,0.17336915433407,-25.99572372436523,-0.00065098685445,-0.32852289080620,9.85138797760010,1.37857103347778,0.17800614237785,-0.15921810269356
125,1519915502,-1.00413942337036,0.17345240712166,-25.99783325195312,-0.01557173952460,-0.32286503911018,9.85497951507568,1.38201606273651,0.13193891942501,-0.17180746793747
126,1519923835,-0.99379926919937,0.17482042312622,-25.99976730346680,-0.03218076750636,-0.33023959398270,9.84973526000977,1.27219510078430,0.17298574745655,-0.27901586890221
127,1519932168,-0.98981350660324,0.17471855878830,-25.99224853515625,-0.04886097460985,-0.33228537440300,9.84435176849365,1.38371932506561,0.11023085564375,-0.20265983045101
128,1519940501,-0.97959333658218,0.17559906840324,-25.99415206909180,-0.04900412634015,-0.33749258518219,9.85008716583252,1.25924694538116,0.11398334801197,-0.27665933966637
129,1519948834,-0.97587746381760,0.17621590197086,-25.98950767517090,-0.02719510905445,-0.33714926242828,9.86123847961426,1.35736238956451,0.18840548396111,-0.24302785098553
130,1519957167,-0.96500211954117,0.17781408131123,-25.99078178405762,-0.03103618510067,-0.33587604761124,9.83565998077393,1.33922743797302,0.20034173130989,-0.20219877362251
131,1519965500,-0.96217483282089,0.17876134812832,-25.98693466186523,-0.03858958929777,-0.34496730566025,9.83600330352783,1.25882446765900,0.22039771080017,-0.15670789778233
132,1519973833,-0.95216220617294,0.18029740452766,-25.98778533935547,-0.00234613241628,-0.33188477158546,9.84136772155762,1.23756456375122,0.19255499541759,-0.15309628844261
133,1519982166,-0.94916677474976,0.18084557354450,-25.97870254516602,-0.00628019589931,-0.34603309631348,9.86382007598877,1.28684628009796,0.16755551099777,-0.19041620194912
134,1519990499,-0.93902689218521,0.18297073245049,-25.98008918762207,0.01005689706653,-0.34830054640770,9.84389305114746,1.25390636920929,0.26389065384865,-0.21631219983101
135,1519998832,-0.93637412786484,0.18392239511013,-25.97637176513672,0.02444126456976,-0.35081833600998,9.81664752960205,1.25420081615448,0.22130697965622,-0.33869701623917
136,1520007165,-0.92561721801758,0.18542551994324,-25.97732925415039,0.01661613583565,-0.33325099945068,9.86022377014160,1.33105647563934,0.18763707578182,-0.17092378437519
137,1520015498,-0.92200875282288,0.18631854653358,-25.97314643859863,0.02004932984710,-0.32632696628571,9.84185314178467,1.38018453121185,0.22037206590176,-0.18111824989319
138,1520023831,-0.91071671247482,0.18863226473331,-25.97400665283203,-0.00216023833491,-0.33558276295662,9.83664512634277,1.39475905895233,0.28632870316505,-0.15737386047840
139,1520032164,-0.90704667568207,0.18921078741550,-25.96725273132324,-0.02090775966644,-0.33515360951424,9.84952163696289,1.39509212970734,0.19178655743599,-0.23644495010376
140,1520040497,-0.89694887399673,0.19093930721283,-25.96984100341797,-0.03580014035106,-0.32452446222305,9.83281135559082,1.25429069995880,0.21752890944481,-0.36820468306541
141,1520048830,-0.89418786764145,0.19042514264584,-25.96744728088379,-0.01960611902177,-0.34218481183052,9.85544300079346,1.29404389858246,0.06484243273735,-0.39223074913025
142,1520057163,-0.88367640972137,0.19174908101559,-25.96938323974609,-0.03247390687466,-0.33530381321907,9.84068107604980,1.30669736862183,0.16791410744190,-0.29197666049004
143,1520065496,-0.87972784042358,0.19173721969128,-25.96467590332031,-0.01994212530553,-0.33291476964951,9.85726165771484,1.44250404834747,0.11578916013241,-0.05494253337383
144,1520073829,-0.86896711587906,0.19232241809368,-25.96626472473145,-0.02550000511110,-0.35980224609375,9.87094306945801,1.33799803256989,0.07998044788837,-0.25296616554260
145,1520082162,-0.86602437496185,0.19260287284851,-25.96066284179688,-0.01828275620937,-0.33493182063103,9.83924198150635,1.32951962947845,0.15129046142101,-0.19174814224243
146,1520090495,-0.85598987340927,0.19341383874416,-25.96143913269043,-0.01858322508633,-0.32167762517929,9.85180950164795,1.25417530536652,0.10573555529118,-0.15678472816944
147,1520098828,-0.85334092378616,0.19288194179535,-25.95769500732422,-0.00584387267008,-0.32384496927261,9.83920001983643,1.30690228939056,0.05224022641778,-0.23787941038609
148,1520107161,-0.84288388490677,0.19373996555805,-25.95826339721680,0.02355431206524,-0.34955227375031,9.83100318908691,1.30495572090149,0.11110175400972,-0.13216945528984
149,1520115494,-0.84032881259918,0.19374302029610,-25.95718765258789,0.00681677879766,-0.34691292047501,9.86030292510986,1.30189466476440,0.11908057332039,-0.26346802711487
150,1520123827,-0.82983297109604,0.19498378038406,-25.95913124084473,-0.00251766433939,-0.33966705203056,9.85834312438965,1.31334412097931,0.15960226953030,-0.29684334993362
151,1520132160,-0.82755959033966,0.19583575427532,-25.95544624328613,-0.00099424517248,-0.33701333403587,9.88404178619385,1.28014814853668,0.22527720034122,-0.17161536216736
152,1520140493,-0.81669408082962,0.19701105356216,-25.95635032653809,0.00253210635856,-0.34544655680656,9.84595298767090,1.36066663265228,0.15006099641323,-0.17197397351265
153,1520148826,-0.81464165449142,0.19664292037487,-25.95150375366211,-0.01966316439211,-0.32762882113457,9.82897853851318,1.26256406307220,0.08333590626717,-0.23183441162109
154,1520157159,-0.80410653352737,0.19693912565708,-25.95355415344238,-0.01799655333161,-0.33414506912231,9.85677528381348,1.32350039482117,0.04786020144820,-0.31318521499634
155,1520165492,-0.80192941427231,0.19681733846664,-25.94974327087402,-0.02543563954532,-0.33877289295197,9.88447666168213,1.28885710239410,0.11372721195221,-0.28800645470619
156,1520173825,-0.79179340600967,0.19817137718201,-25.95071601867676,-0.02738124690950,-0.33554700016975,9.86984157562256,1.27702331542969,0.17274239659309,-0.18068280816078
157,1520182158,-0.78900671005249,0.19821368157864,-25.95488166809082,-0.01112975552678,-0.32308679819107,9.85498809814453,1.37214195728302,0.13256648182869,-0.14059653878212
158,1520190491,-0.77790671586990,0.19942769408226,-25.95685386657715,0.00328330253251,-0.30840912461281,9.84921550750732,1.39532268047333,0.15802703797817,-0.30324691534042
159,1520198824,-0.77614086866379,0.20045435428619,-25.95007133483887,-0.01127288024873,-0.35629025101662,9.83795547485352,1.25896525382996,0.24848367273808,-0.26062482595444
160,1520207157,-0.76533710956573,0.20164120197296,-25.95186042785645,-0.01722404547036,-0.33250704407692,9.83914279937744,1.36248505115509,0.15500453114510,-0.28027093410492
161,1520215490,-0.76281279325485,0.20257939398289,-25.95247459411621,-0.00464219506830,-0.33374449610710,9.85217571258545,1.36043608188629,0.24035115540028,-0.16849042475224
162,1520223823,-0.75231051445007,0.20323970913887,-25.95457839965820,-0.01751731149852,-0.36740577220917,9.82950115203857,1.32831585407257,0.09360722452402,-0.32033163309097
163,1520232156,-0.75000655651093,0.20322477817535,-25.95281219482422,-0.01225269958377,-0.36110416054726,9.85144042968750,1.34452962875366,0.12744362652302,-0.25693637132645
164,1520240489,-0.73917603492737,0.20400658249855,-25.95339775085449,-0.00890535581857,-0.32828682661057,9.84320449829102,1.37060487270355,0.10485187172890,-0.13685685396194
165,1520248822,-0.73723459243774,0.20401985943317,-25.95603752136230,-0.01833273656666,-0.32177063822746,9.87239646911621,1.31664848327637,0.13396243751049,-0.25381141901016
166,1520257155,-0.72683739662170,0.20594838261604,-25.95661735534668,-0.02386910282075,-0.32977461814880,9.85077285766602,1.32102870941162,0.24243874847889,-0.13588352501392
167,1520265488,-0.72493481636047,0.20669624209404,-25.95086479187012,-0.00044356417493,-0.32219976186752,9.85256767272949,1.32282137870789,0.22033363580704,-0.18631795048714
168,1520273821,-0.71414625644684,0.20770682394505,-25.95292282104492,0.00314009794965,-0.33788600564003,9.81842136383057,1.37083542346954,0.13479492068291,-0.31272420287132
169,1520282154,-0.71172434091568,0.20712611079216,-25.95008277893066,-0.01155910454690,-0.36853587627411,9.83233261108398,1.39550197124481,0.06248593330383,-0.22783859074116
170,1520290487,-0.70219761133194,0.20846500992775,-25.95017814636230,-0.01376922242343,-0.31860193610191,9.84180450439453,1.22106897830963,0.17103904485703,-0.07753429561853
171,1520298820,-0.70057803392410,0.20944371819496,-25.95206451416016,-0.01042884495109,-0.30401727557182,9.84144687652588,1.31301128864288,0.25358092784882,-0.25578373670578
172,1520307153,-0.68964582681656,0.21087568998337,-25.95337867736816,-0.00687388191000,-0.33549693226814,9.82980918884277,1.39350390434265,0.18543426692486,-0.22663475573063
173,1520315486,-0.68831729888916,0.21041896939278,-25.95183372497559,0.00580095546320,-0.35179826617241,9.82871437072754,1.28706395626068,0.08022377640009,-0.12832731008530
174,1520323819,-0.67743235826492,0.21169187128544,-25.95330810546875,-0.01484930235893,-0.30143511295319,9.85819816589355,1.39030218124390,0.16709445416927,-0.24433417618275
175,1520332152,-0.67586219310760,0.21124348044395,-25.94963836669922,-0.02014955878258,-0.37267026305199,9.86073780059814,1.33008313179016,0.08658891916275,-0.33982405066490
176,1520340485,-0.66535246372223,0.21283254027367,-25.94958877563477,-0.00183115969412,-0.36643293499947,9.82409191131592,1.34883272647858,0.20290313661098,-0.06142293289304
177,1520348818,-0.66404849290848,0.21305891871452,-25.94346618652344,0.00457781925797,-0.29131382703781,9.87296867370605,1.30998873710632,0.16531427204609,-0.23959554731846
178,1520357151,-0.65374171733856,0.21429002285004,-25.94424057006836,-0.01926253177226,-0.29809477925301,9.83841514587402,1.32788038253784,0.16176667809486,-0.16078053414822
179,1520365484,-0.65155816078186,0.21427476406097,-25.94373321533203,-0.03173716366291,-0.40190392732620,9.85676097869873,1.42833936214447,0.14401602745056,-0.35047954320908
180,1520373817,-0.64248895645142,0.21581211686134,-25.94259262084961,-0.03023511730134,-0.37952274084091,9.86163330078125,1.17974042892456,0.19492430984974,0.06787771731615
181,1520382150,-0.64040982723236,0.21617172658443,-25.94029808044434,0.01030724681914,-0.15628246963024,9.85038757324219,1.43303954601288,0.18580566346645,-0.30528324842453
182,1520390483,-0.63012945652008,0.21706885099411,-25.94468307495117,0.00632311310619,-0.44731017947197,9.85347080230713,1.33051848411560,0.12782782316208,-0.59793865680695
183,1520398816,-0.62997543811798,0.21773102879524,-25.93636131286621,-0.02811782620847,-0.48966932296753,9.80003166198730,1.20075690746307,0.21814362704754,0.16911797225475
184,1520407149,-0.62034070491791,0.21878463029861,-25.93765640258789,0.01728126779199,-0.26002013683319,9.91490650177002,1.25592994689941,0.14073741436005,-0.22776176035404
185,1520415482,-0.61870926618576,0.21881848573685,-25.93597984313965,0.04235198348761,-0.17322754859924,9.87902736663818,1.41691541671753,0.15157221257687,-0.38175454735756
186,1520423815,-0.60801148414612,0.22044137120247,-25.93822860717773,-0.02702344022691,-0.50117826461792,9.83573818206787,1.38715183734894,0.21120215952396,-0.34189879894257
187,1520432148,-0.60912382602692,0.21954357624054,-25.93140792846680,0.00854746066034,-0.39535912871361,9.86336421966553,1.07814157009125,0.04071382060647,0.25241541862488
188,1520440481,-0.59846323728561,0.22000426054001,-25.93345069885254,0.02890463918447,-0.15159019827843,9.86932086944580,1.38589656352997,0.07216810435057,-0.31971687078476
189,1520448814,-0.59677118062973,0.22033825516701,-25.93336868286133,-0.01919129118323,-0.37885031104088,9.87206649780273,1.44967603683472,0.19839507341385,-0.42189204692841
190,1520457147,-0.58675146102905,0.22138631343842,-25.93512725830078,-0.05205839127302,-0.42341253161430,9.85540199279785,1.31183302402496,0.14149303734303,-0.28507363796234
191,1520465480,-0.58754456043243,0.22103759646416,-25.92933845520020,-0.03577835485339,-0.37784171104431,9.79529476165771,1.15339612960815,0.11417546123266,0.21353305876255
192,1520473813,-0.57625561952591,0.22265867888927,-25.93370628356934,0.01197355333716,-0.20372013747692,9.89174365997314,1.46806704998016,0.21473693847656,-0.59924501180649
193,1520482146,-0.57591527700424,0.22297623753548,-25.93182182312012,-0.07041258364916,-0.53023308515549,9.88909912109375,1.31467616558075,0.19292640686035,-0.16469952464104
194,1520490479,-0.56671816110611,0.22365771234035,-25.93020248413086,0.00437038717791,-0.24029976129532,9.88600158691406,1.21927595138550,0.09629671275616,0.11891409009695
195,1520498812,-0.56543815135956,0.22347256541252,-25.93325996398926,0.01179542765021,-0.23353317379951,9.82358741760254,1.44906115531921,0.13735632598400,-0.78149032592773
196,1520507145,-0.55586636066437,0.22483624517918,-25.93225669860840,-0.04502714797854,-0.52333778142929,9.81984519958496,1.26835274696350,0.17877453565598,0.04529877007008
197,1520515478,-0.55575382709503,0.22437849640846,-25.93205833435059,0.02755990438163,-0.25320348143578,9.92360401153564,1.30523717403412,0.10369922220707,-0.19909943640232
198,1520523811,-0.54612088203430,0.22514148056507,-25.93190765380859,0.03605032712221,-0.35901549458504,9.79041099548340,1.27867531776428,0.10792557150126,-0.05983485281467
199,1520532144,-0.54636138677597,0.22567239403725,-25.92996978759766,0.01821113750339,-0.23659458756447,9.87917804718018,1.28694868087769,0.22372750937939,-0.26377534866333
200,1520540477,-0.53510606288910,0.22629857063293,-25.93380546569824,-0.02472765371203,-0.43454232811928,9.88495635986328,1.47818458080292,0.09770549088717,-0.53633642196655
201,1520548810,-0.53676950931549,0.22631016373634,-25.92485237121582,-0.00228175683878,-0.44219589233398,9.77192783355713,1.12172424793243,0.16344444453716,0.36992079019547
202,1520557143,-0.52660810947418,0.22751168906689,-25.92974090576172,0.02406931668520,-0.12910166382790,9.90650177001953,1.35199618339539,0.16687674820423,-0.66424113512039
203,1520565476,-0.52538907527924,0.22810022532940,-25.92677688598633,-0.01072902232409,-0.36058914661407,9.80194950103760,1.50379884243011,0.24183677136898,-0.46200391650200
204,1520573809,-0.51668423414230,0.22864487767220,-25.92756271362305,-0.05944012477994,-0.52997559309006,9.82876396179199,1.17899763584137,0.08416837453842,-0.17275519669056
205,1520582142,-0.51847600936890,0.22880533337593,-25.92151069641113,-0.04125021398067,-0.30026912689209,9.89131450653076,1.13982057571411,0.18850794434547,0.29893091320992
206,1520590475,-0.50747847557068,0.23010632395744,-25.92502593994141,-0.00530740944669,-0.19144584238529,9.81578159332275,1.45821833610535,0.17847998440266,-0.50188535451889
207,1520598808,-0.50779861211777,0.23075377941132,-25.92205810546875,-0.05111442133784,-0.47782418131828,9.80522346496582,1.34796190261841,0.24821476638317,-0.43959149718285
208,1520607141,-0.49868205189705,0.23178941011429,-25.92191696166992,-0.03428357467055,-0.34877976775169,9.86440658569336,1.23592519760132,0.14393919706345,-0.06390751153231
209,1520615474,-0.49907216429710,0.23203927278519,-25.91828918457031,-0.00374093675055,-0.28662872314453,9.85666084289551,1.35223948955536,0.19596169888973,-0.10570994764566
210,1520623807,-0.48852276802063,0.23384001851082,-25.92297363281250,0.01575056090951,-0.22967062890530,9.85457229614258,1.41407227516174,0.24094028770924,-0.64263552427292
211,1520632140,-0.48856776952744,0.23393976688385,-25.91742706298828,-0.00834736786783,-0.48990535736084,9.85426425933838,1.40651607513428,0.17928682267666,-0.13145226240158
212,1520640473,-0.47985899448395,0.23512595891953,-25.91636657714844,-0.01097246073186,-0.40411415696144,9.84173965454102,1.19463515281677,0.16087020933628,0.04547807201743
213,1520648806,-0.47864359617233,0.23524740338326,-25.91668128967285,0.05788795650005,-0.11025392264128,9.89236736297607,1.57728612422943,0.18722723424435,-0.25086581707001
214,1520657139,-0.46814358234406,0.23678934574127,-25.91834449768066,-0.00025750233908,-0.39998698234558,9.79978847503662,1.41496884822845,0.20733442902565,-0.28285798430443
215,1520665472,-0.46964249014854,0.23700198531151,-25.91781997680664,0.00299689080566,-0.41425687074661,9.84821891784668,1.25444424152374,0.20554140210152,-0.34061810374260
216,1520673805,-0.46047839522362,0.23757183551788,-25.91562843322754,0.01722404547036,-0.40936434268951,9.87572956085205,1.25686490535736,0.08857402205467,0.17835192382336
217,1520682138,-0.46163114905357,0.23728811740875,-25.91242980957031,0.00290405424312,-0.18440744280815,9.82416534423828,1.32487058639526,0.14774289727211,-0.21459604799747
218,1520690471,-0.45087194442749,0.23862992227077,-25.91641235351562,-0.03631469607353,-0.40183958411217,9.88828468322754,1.45510601997375,0.18676617741585,-0.56110537052155
219,1520698804,-0.45250371098518,0.23801375925541,-25.90828704833984,-0.06219397112727,-0.35494554042816,9.82583904266357,1.27487170696259,0.10960330814123,0.15829595923424
220,1520707137,-0.44321125745773,0.23892804980278,-25.91279602050781,-0.05341742932796,-0.34099033474922,9.85108089447021,1.28331160545349,0.13543526828289,-0.62767684459686
221,1520715470,-0.44422480463982,0.23879374563694,-25.90940093994141,-0.02253145538270,-0.34863671660423,9.88105201721191,1.37342250347137,0.16717128455639,-0.00665970100090
222,1520723803,-0.43455022573471,0.23980423808098,-25.91103935241699,-0.05559904873371,-0.34109762310982,9.84588146209717,1.33161997795105,0.14465638995171,-0.28339588642120
223,1520732136,-0.43596240878105,0.23917692899704,-25.90915679931641,-0.03570699319243,-0.32479628920555,9.83625316619873,1.34296703338623,0.10572276264429,-0.18905866146088
224,1520740469,-0.42606070637703,0.24008291959763,-25.91053199768066,0.01936977915466,-0.36272060871124,9.83834838867188,1.36438071727753,0.13397526741028,-0.25191602110863
225,1520748802,-0.42864552140236,0.23955266177654,-25.90615653991699,0.01207402534783,-0.41584476828575,9.87929058074951,1.21612548828125,0.11181893944740,0.03512991964817
226,1520757135,-0.41824737191200,0.23991242051125,-25.90966987609863,0.05425431206822,-0.18216145038605,9.85290527343750,1.42924869060516,0.07113073021173,-0.50945430994034
227,1520765468,-0.42040112614632,0.24060702323914,-25.90729331970215,0.00208147685044,-0.48745188117027,9.75075435638428,1.29272472858429,0.26579889655113,0.01221798919141
228,1520773801,-0.41107362508774,0.24130210280418,-25.90869140625000,0.00817569904029,-0.25909742712975,9.93880367279053,1.30381584167480,0.10901419073343,-0.25648814439774
229,1520782134,-0.41287416219711,0.24109447002411,-25.90380859375000,0.03966251388192,-0.22849756479263,9.79660511016846,1.35234189033508,0.16376459598541,-0.08862524479628
230,1520790467,-0.40224426984787,0.24202436208725,-25.90877532958984,-0.01135871466249,-0.34933054447174,9.88801097869873,1.46717059612274,0.14099355041981,-0.68633329868317
231,1520798800,-0.40549927949905,0.24257689714432,-25.90548706054688,-0.05959033593535,-0.45680916309357,9.78276443481445,1.17948424816132,0.26293009519577,0.04477368295193
232,1520807133,-0.39604857563972,0.24336777627468,-25.90802574157715,-0.00645204586908,-0.30739340186119,9.83879184722900,1.32872557640076,0.12239761650562,-0.39443358778954
233,1520815466,-0.39868611097336,0.24316583573818,-25.90297698974609,-0.08505445718765,-0.37720516324043,9.88748931884766,1.28035306930542,0.17061641812325,-0.13982810080051
234,1520823799,-0.38871565461159,0.24379424750805,-25.90354347229004,-0.00323308492079,-0.27926844358444,9.81032466888428,1.39542508125305,0.10172692686319,-0.15926928818226
235,1520832132,-0.39109706878662,0.24402448534966,-25.89923286437988,-0.06092791631818,-0.42348405718803,9.82956600189209,1.32800853252411,0.22060258686543,-0.25563007593155
236,1520840465,-0.38136741518974,0.24490641057491,-25.89925575256348,-0.05713690817356,-0.29512628912926,9.90819644927979,1.37054085731506,0.13268174231052,-0.09445248544216
237,1520848798,-0.38385769724846,0.24436077475548,-25.89444732666016,-0.00934884510934,-0.27355328202248,9.80864238739014,1.33469378948212,0.12585555016994,-0.16982237994671
238,1520857131,-0.37400260567665,0.24481047689915,-25.89802360534668,0.01784634403884,-0.31692817807198,9.89525699615479,1.39159572124481,0.08347678929567,-0.52287620306015
239,1520865464,-1.97518360614777,0.06543015688658,-25.76330566406250,0.00079396559158,-0.44939881563187,9.84465789794922,1.23775672912598,0.13232314586639,-0.08824104070663
240,1520873797,-1.96608710289001,0.06628985702991,-25.76371574401855,0.05607828870416,-0.26536333560944,9.81270599365234,1.30345726013184,0.13140101730824,-0.14051967859268
241,1520882130,-1.96548879146576,0.06780220568180,-25.76220703125000,0.04117176309228,-0.30750072002411,9.89356899261475,1.40468466281891,0.34328198432922,-0.28130832314491
242,1520890463,-1.96581423282623,0.06764957308769,-25.76195526123047,0.00468511227518,-0.36384364962578,9.86683940887451,1.28551435470581,0.13822720944881,-0.19484747946262
243,1520898796,-1.96543157100677,0.06719747185707,-25.76527976989746,0.03036392293870,-0.38940796256065,9.86469459533691,1.37430608272552,0.10693942755461,-0.21514676511288
244,1520907129,-1.96536350250244,0.06771976500750,-25.76541709899902,0.06001235172153,-0.22396981716156,9.86634540557861,1.33288788795471,0.22105084359646,-0.23766165971756
245,1520915462,-1.96436858177185,0.06817775964737,-25.76996421813965,-0.06852445751429,-0.43771106004715,9.86308288574219,1.45150744915009,0.22514910995960,-0.43090826272964
246,1520923795,-1.96426832675934,0.06678589433432,-25.76861381530762,-0.04363234341145,-0.36853593587875,9.84361362457275,1.33500111103058,-0.01426712982357,-0.06805702298880
247,1520932128,-1.96459674835205,0.06628611683846,-25.77271080017090,-0.00572942709550,-0.30177128314972,9.85178947448730,1.29258382320404,0.10741329193115,-0.31871792674065
248,1520940461,-1.96418166160583,0.06623820215464,-25.77210807800293,-0.08951783180237,-0.36525276303291,9.84166145324707,1.37393474578857,0.14783254265785,-0.15219977498055
249,1520948794,-1.96394705772400,0.06573925167322,-25.77841567993164,-0.02429122477770,-0.33482453227043,9.88841819763184,1.35831010341644,0.10833540558815,-0.35952141880989
250,1520957127,-1.96429049968719,0.06554277986288,-25.77714347839355,-0.05104268714786,-0.38613191246986,9.81574630737305,1.28199231624603,0.12817361950874,-0.06996528059244
251,1520965460,-1.96529555320740,0.06608604639769,-25.78010940551758,-0.04300289228559,-0.27065643668175,9.81398677825928,1.21155333518982,0.22699336707592,-0.24313032627106
252,1520973793,-1.96489477157593,0.06672476977110,-25.78028106689453,0.00604427000508,-0.29873847961426,9.87079620361328,1.37221848964691,0.23417814075947,-0.24282294511795
253,1520982126,-1.96444869041443,0.06706969439983,-25.78532791137695,0.02673017419875,-0.37365737557411,9.83259868621826,1.38236176967621,0.20198103785515,-0.28792962431908
254,1520990459,-1.96470904350281,0.06704405695200,-25.78194236755371,0.01698800176382,-0.33509638905525,9.83264160156250,1.29267346858978,0.13944388926029,0.18229649960995
255,1520998792,-1.96408689022064,0.06574984639883,-25.78544616699219,0.04951198026538,-0.31742170453072,9.85044479370117,1.40506875514984,0.01460011303425,-0.50627809762955
256,1521007125,-1.96452105045319,0.06546308845282,-25.78393173217773,0.02271742932498,-0.36711251735687,9.81075382232666,1.27210545539856,0.11741565912962,-0.04348016530275
257,1521015458,-1.96369647979736,0.06571169197559,-25.78832626342773,0.00969925522804,-0.39585977792740,9.86176776885986,1.42850565910339,0.19697345793247,-0.36314576864243
258,1521023791,-1.96422171592712,0.06587751209736,-25.78718757629395,0.00660922704265,-0.26124328374863,9.83685398101807,1.26054048538208,0.17206360399723,-0.08588452637196
259,1521032124,-1.96389138698578,0.06619658321142,-25.79086685180664,-0.01415547635406,-0.43848356604576,9.85311985015869,1.37125802040100,0.20821809768677,-0.42592626810074
260,1521040457,-1.96456730365753,0.06601384282112,-25.78890419006348,-0.03230939060450,-0.28550571203232,9.86929988861084,1.24401926994324,0.12695695459843,0.01194903999567
261,1521048790,-1.96413707733154,0.06580141931772,-25.79371452331543,-0.02835402637720,-0.30119904875755,9.81342029571533,1.38272047042847,0.14191566407681,-0.32581308484077
262,1521057123,-1.96552681922913,0.06605488061905,-25.79329109191895,-0.07499755918980,-0.47422632575035,9.87712478637695,1.15741765499115,0.18584407866001,-0.17182028293610
263,1521065456,-1.96582603454590,0.06603086739779,-25.79293441772461,-0.07278017699718,-0.29255843162537,9.81117534637451,1.29285275936127,0.14771728217602,0.10832259058952
264,1521073789,-1.96486997604370,0.06535676121712,-25.79416847229004,-0.05685079470277,-0.26740187406540,9.83397197723389,1.43893074989319,0.08188870549202,-0.37334024906158
265,1521082122,-1.96433079242706,0.06478907912970,-25.79648971557617,-0.02498503029346,-0.37403640151024,9.85448455810547,1.39602696895599,0.09328702837229,-0.30487340688705
266,1521090455,-1.96419143676758,0.06532844901085,-25.79641342163086,-0.02645836584270,-0.41852715611458,9.84229087829590,1.34105885028839,0.22166560590267,-0.21325132250786
267,1521098788,-1.96431243419647,0.06441988050938,-25.79970932006836,0.00909115932882,-0.33515357971191,9.85120868682861,1.31727612018585,0.04896160960197,-0.22847895324230
268,1521107121,-1.96464252471924,0.06469393521547,-25.79836654663086,0.07984003424644,-0.23589360713959,9.80813598632812,1.28337562084198,0.18442249298096,-0.05993730574846
269,1521115454,-1.96310698986053,0.06494065374136,-25.80341148376465,0.02546412125230,-0.36025294661522,9.85844898223877,1.51780986785889,0.20067472755909,-0.60736471414566
270,1521123787,-1.96315586566925,0.06485693156719,-25.80137825012207,-0.01937705092132,-0.49717265367508,9.87104511260986,1.31777560710907,0.13918775320053,0.02172087319195
271,1521132120,-1.96422302722931,0.06469865888357,-25.80438041687012,0.11559007316828,-0.24555711448193,9.85518074035645,1.20189654827118,0.14049406349659,-0.15906439721584
272,1521140453,-1.96302330493927,0.06512968242168,-25.80706405639648,0.05856060609221,-0.25223070383072,9.87914276123047,1.46838724613190,0.21843822300434,-0.54407203197479
273,1521148786,-1.96215867996216,0.06471136212349,-25.81147956848145,-0.05519849061966,-0.44306856393814,9.85569477081299,1.43516552448273,0.11447001248598,-0.25279968976974
274,1521157119,-1.96321642398834,0.06576080620289,-25.80987548828125,-0.00230321544223,-0.42475727200508,9.84243392944336,1.19759368896484,0.27688989043236,-0.02660038135946
275,1521165452,-1.96736621856689,0.06499228626490,-25.82337760925293,-0.14686031639576,-1.08383834362030,9.56165981292725,0.83572840690613,0.11673687398434,-1.53874957561493
276,1521173785,-1.97117424011230,0.06648764014244,-25.78672790527344,-0.06093342602253,0.52977919578552,10.11208534240723,0.86162453889847,0.18476828932762,4.17789936065674
277,1521182118,-1.96223008632660,0.06818296760321,-25.82479095458984,0.04397285357118,0.18779833614826,9.55540084838867,2.42949724197388,0.51450031995773,-4.55697727203369
278,1521190451,-1.96293640136719,0.06628910452127,-25.82089614868164,-0.77806478738785,-1.63664197921753,10.17677211761475,1.23776960372925,-0.08631996810436,0.23586869239807
279,1521198784,-1.97007203102112,0.06371182948351,-25.80602836608887,-0.39547002315521,0.30386319756508,9.97176551818848,0.46064642071724,-0.22203700244427,1.89501810073853
280,1521207117,-1.95944356918335,0.06274364888668,-25.82944107055664,0.61354190111160,0.41881719231606,9.78887462615967,2.60343074798584,0.13747158646584,-3.03591442108154
281,1521215450,-1.95735359191895,0.06542377918959,-25.83100128173828,0.37684753537178,-1.62162077426910,9.74122714996338,1.58354878425598,0.44832593202591,0.05184321478009
282,1521223783,-1.96596431732178,0.06463046371937,-25.80240249633789,-0.20904041826725,-0.21911597251892,9.81849861145020,0.28672575950623,-0.05503218993545,3.20359802246094
283,1521232116,-1.95964574813843,0.06380243599415,-25.81715393066406,0.13501144945621,0.84814190864563,10.03536701202393,2.10566949844360,0.10781031101942,-1.67061161994934
284,1521240449,-1.95455980300903,0.06293729692698,-25.82855796813965,0.38029056787491,-0.78458350896835,9.83029651641846,1.93491220474243,0.10088166594505,-1.59389698505402
285,1521248782,-1.96314990520477,0.06269608438015,-25.82112503051758,0.26516303420067,-1.09808301925659,9.69126510620117,0.28480464220047,0.08460381627083,1.04977369308472
286,1521257115,-1.96471118927002,0.06415893882513,-25.82354164123535,0.59533870220184,0.43110197782516,9.88730430603027,1.13815557956696,0.34211653470993,-0.50600916147232
287,1521265448,-1.95817232131958,0.06504921615124,-25.84243202209473,-0.18442949652672,-0.28227424621582,9.92014789581299,2.12742877006531,0.34275686740875,-2.11985969543457
288,1521273781,-1.95823466777802,0.06502349674702,-25.83106613159180,-0.82598012685776,-1.12098836898804,9.80175495147705,1.31586718559265,0.10713153332472,1.13946199417114
289,1521282114,-1.96164011955261,0.06416131556034,-25.82633972167969,0.12361542880535,-0.14611828327179,9.88736057281494,0.91505581140518,0.03423342481256,0.94666379690170
290,1521290447,-1.96112430095673,0.06492216140032,-25.82366371154785,0.40432876348495,0.40327727794647,9.83638191223145,1.38594770431519,0.23722623288631,0.10116341710091
291,1521298780,-1.95767652988434,0.06682728230953,-25.84906005859375,-0.59528702497482,-0.45538565516472,9.83971118927002,1.75180888175964,0.48149642348289,-2.74497509002686
292,1521307113,-1.96138191223145,0.06591189652681,-25.84854316711426,-0.74914586544037,-0.87505733966827,9.88460636138916,0.88096326589584,0.04383876547217,-0.16557043790817
293,1521315446,-1.96492981910706,0.06543563306332,-25.84204292297363,-0.16496548056602,-0.43294003605843,9.76648330688477,0.89702326059341,0.06727578490973,0.88501018285751
294,1521323779,-1.96155560016632,0.06581299751997,-25.84240341186523,0.04938862472773,0.15453520417213,9.93457889556885,1.72843575477600,0.20410703122616,-0.26405712962151
295,1521332112,-1.95823705196381,0.06516294181347,-25.84988212585449,0.37414374947548,-0.74222666025162,9.77952289581299,1.73496735095978,0.07647129893303,-0.54081892967224
296,1521340445,-1.96118783950806,0.06648886203766,-25.84044075012207,0.28549888730049,-0.53452467918396,9.85868549346924,0.96970373392105,0.27701792120934,0.91371089220047
297,1521348778,-1.96096992492676,0.06656890362501,-25.83973884582520,-0.38239803910255,0.25854662060738,9.92384624481201,1.35989809036255,0.14913886785507,0.16922043263912
298,1521357111,-1.95838499069214,0.06471178680658,-25.85217666625977,0.20442631840706,-0.30430948734283,9.77922439575195,1.63610923290253,-0.01417747884989,-1.72098195552826
299,1521365444,-1.96093213558197,0.06473681330681,-25.85873603820801,0.91544264554977,-0.74464672803879,9.82837200164795,1.02113711833954,0.16618514060974,-0.54751700162888
300,1521373777,-1.96184992790222,0.06568773835897,-25.85427856445312,0.25291022658348,-0.28301653265953,9.87028694152832,1.21457588672638,0.25132685899734,0.31500384211540
301,1521382110,-1.95934116840363,0.06637344509363,-25.85859489440918,-0.19743558764458,-0.16403084993362,9.84023284912109,1.63499522209167,0.26061207056046,-0.33495736122131
302,1521390443,-1.95699965953827,0.06652600318193,-25.85783386230469,-0.16856390237808,-0.51663553714752,9.89051532745361,1.60520553588867,0.17129518091679,-0.13232313096523
303,1521398776,-1.95984125137329,0.06689312309027,-25.85288047790527,-0.24281041324139,-0.38595309853554,9.80914402008057,0.98759520053864,0.19071079790592,0.57343870401382
304,1521407109,-1.96027326583862,0.06670833379030,-25.85782623291016,0.07502581179142,-0.02278184704483,9.88733100891113,1.27311706542969,0.15592664480209,-0.81694036722183
305,1521415442,-1.95895123481750,0.06697874516249,-25.86684608459473,0.09807562083006,-0.34570574760437,9.88129997253418,1.49141442775726,0.22327926754951,-0.96086674928665
306,1521423775,-1.95969915390015,0.06839022785425,-25.86823844909668,-0.87994253635406,-0.64387750625610,9.80749988555908,1.23627114295959,0.33260083198547,-0.38608339428902
307,1521432108,-1.96119940280914,0.06641082465649,-25.86877441406250,-0.72284483909607,-0.34763532876968,9.89019298553467,1.14619851112366,-0.08127396553755,0.16061404347420
308,1521440441,-1.95902061462402,0.06525527685881,-25.86470413208008,0.43123775720596,-0.19339141249657,9.88782501220703,1.58498311042786,0.00266388012096,0.25972831249237
309,1521448774,-1.95653593540192,0.06445947289467,-25.86559677124023,0.22055074572563,-0.32500377297401,9.83199119567871,1.63160109519958,0.03678203746676,0.02269420959055
310,1521457107,-1.95772457122803,0.06431718170643,-25.86403656005859,-0.18150338530540,-0.41078776121140,9.83624649047852,1.18194317817688,0.13439789414406,-0.03600080683827
311,1521465440,-1.95844686031342,0.06510273367167,-25.86866378784180,0.05241575464606,-0.20816922187805,9.84423446655273,1.24412167072296,0.26225131750107,-0.64481264352798
312,1521473773,-1.95897042751312,0.06501296162605,-25.87245941162109,0.02944110147655,-0.19796207547188,9.92613601684570,1.26116824150085,0.16134406626225,-0.67779105901718
313,1521482106,-1.95737171173096,0.06349694728851,-25.87821388244629,0.41285464167595,-0.51657825708389,9.75227737426758,1.52257418632507,-0.01698223873973,-0.59927064180374
314,1521490439,-1.95798194408417,0.06374603509903,-25.87376976013184,0.81224107742310,-0.53988945484161,9.77896595001221,1.24939823150635,0.17006571590900,0.30922782421112
315,1521498772,-1.95931684970856,0.06502904742956,-25.87205314636230,-0.02922651544213,-0.49210843443871,9.80111885070801,1.16972517967224,0.29189983010292,0.39051464200020
316,1521507105,-1.95928466320038,0.06609866768122,-25.86895370483398,-0.51853817701340,0.10764313489199,9.94052028656006,1.32813644409180,0.27388018369675,0.15216135978699
317,1521515438,-1.95587038993835,0.06414315104485,-25.87761306762695,0.17931877076626,-0.24155910313129,9.87768745422363,1.74600720405579,-0.03060901351273,-1.12280011177063
318,1521523771,-1.95801782608032,0.06467403471470,-25.87875175476074,0.25397598743439,-0.64306205511093,9.76743602752686,1.06784462928772,0.22400929033756,-0.35895788669586
319,1521532104,-1.96124172210693,0.06610429286957,-25.88087844848633,-0.32294389605522,-0.37425822019577,9.85294723510742,0.93901783227921,0.34205248951912,-0.28600850701332
320,1521540437,-1.95855915546417,0.06638870388269,-25.88515281677246,-0.27976334095001,-0.06421594321728,9.90946197509766,1.64661097526550,0.20885847508907,-0.73363012075424
321,1521548770,-1.95619797706604,0.06749656051397,-25.88492393493652,-0.63555872440338,-0.49107849597931,9.85634708404541,1.61560499668121,0.29239928722382,0.00336827174760
322,1521557103,-1.95719945430756,0.06673064082861,-25.87734413146973,-0.42259687185287,-0.56469547748566,9.83900833129883,1.20275485515594,0.03431026637554,0.68237596750259
323,1521565436,-1.95909225940704,0.06595446169376,-25.87624549865723,0.51300907135010,-0.05836720019579,9.86052322387695,1.10292327404022,0.04582386463881,0.17812138795853
324,1521573769,-1.95767140388489,0.06817976385355,-25.88338470458984,0.09524105489254,-0.08687688410282,9.86113643646240,1.49576890468597,0.45301336050034,-1.06989383697510
325,1521582102,-1.95844006538391,0.06777774542570,-25.89015769958496,-0.56423097848892,-0.57164806127548,9.84078884124756,1.23742365837097,0.12640625238419,-0.82602059841156
326,1521590435,-1.96140599250793,0.06569170951843,-25.88564491271973,0.02348278276622,-0.55071169137955,9.81493091583252,0.96876877546310,-0.11129384487867,0.30894610285759
327,1521598768,-1.96174025535583,0.06569579243660,-25.88639640808105,0.67818248271942,-0.13046070933342,9.83023071289062,1.28851127624512,0.14037881791592,-0.03081392124295
328,1521607101,-1.95910632610321,0.06741171330214,-25.88734817504883,0.42529055476189,-0.36186435818672,9.86175060272217,1.63942646980286,0.36726972460747,-0.33032122254372
329,1521615434,-1.95939004421234,0.06717703491449,-25.88631439208984,0.23175211250782,-0.54709231853485,9.80785655975342,1.29608023166656,0.11744125932455,0.17171783745289
330,1521623767,-1.95987331867218,0.06732852011919,-25.88275718688965,-0.02789608761668,-0.13676235079765,9.86774730682373,1.26453638076782,0.15925650298595,0.20303124189377
331,1521632100,-1.95974004268646,0.06775223463774,-25.89189147949219,-0.32848516106606,-0.13172924518585,9.82493591308594,1.35083067417145,0.24931615591049,-1.03947675228119
332,1521640433,-1.96086430549622,0.06600873172283,-25.89767074584961,0.34327208995819,-0.60632503032684,9.83712577819824,1.18956351280212,-0.02994303591549,-0.92446875572205
333,1521648766,-1.96229267120361,0.06765789538622,-25.89743041992188,0.32387357950211,-0.47647231817245,9.80675506591797,1.15427994728088,0.35475715994835,0.02243806980550
334,1521657099,-1.96137738227844,0.06928903609514,-25.89542579650879,-0.69298171997070,-0.17681112885475,9.84536647796631,1.43481981754303,0.34321793913841,0.02388527430594
335,1521665432,-1.95933413505554,0.06864883750677,-25.89905738830566,-0.63972169160843,-0.39437913894653,9.84542369842529,1.57686352729797,0.10040779411793,-0.30556496977806
336,1521673765,-1.96062397956848,0.06785371154547,-25.89380836486816,-0.11989594995975,-0.36932274699211,9.82805633544922,1.16927695274353,0.03927942737937,0.40341138839722
337,1521682098,-1.96067178249359,0.06779767572880,-25.89736175537109,-0.02879019267857,-0.21869817376137,9.90168762207031,1.32425582408905,0.15404398739338,-0.37556868791580
338,1521690431,-1.96153092384338,0.06678459048271,-25.90144348144531,0.03072861395776,-0.27037745714188,9.83048820495605,1.22281086444855,0.05208655074239,-0.71701931953430
339,1521698764,-1.96211278438568,0.06659814715385,-25.90640830993652,-0.15917935967445,-0.46836099028587,9.81095409393311,1.25941348075867,0.14137776196003,-0.55088531970978
340,1521707097,-1.96189689636230,0.06657882779837,-25.90534782409668,-0.36043176054955,-0.38669699430466,9.88668823242188,1.34943497180939,0.15035557746887,-0.09647602587938
341,1521715430,-1.96139860153198,0.06504774838686,-25.90411949157715,0.28552004694939,-0.33773577213287,9.85226154327393,1.39013576507568,-0.04888476431370,0.26951298117638
342,1521723763,-1.95974802970886,0.06445439904928,-25.90123939514160,0.92068535089493,-0.29998308420181,9.84415721893311,1.52122938632965,0.07320547848940,0.11997707933187
343,1521732096,-1.95959985256195,0.06577951461077,-25.90322685241699,0.14169067144394,-0.26250934600830,9.86851310729980,1.34874296188354,0.30637183785439,-0.13781738281250
344,1521740429,-1.96019303798676,0.06493030488491,-25.90735626220703,-0.24625125527382,-0.29863834381104,9.82935905456543,1.25394499301910,0.07310302555561,-0.72089982032776
345,1521748762,-1.96119582653046,0.06500876694918,-25.91204833984375,0.18005135655403,-0.30665668845177,9.88683128356934,1.20991396903992,0.18567757308483,-0.53618276119232
346,1521757095,-1.96124887466431,0.06499430537224,-25.91173934936523,0.11922358721495,-0.40723997354507,9.82169055938721,1.31695592403412,0.15381348133087,-0.18531899154186
347,1521765428,-1.96012198925018,0.06452611833811,-25.91530609130859,0.13787819445133,-0.45774617791176,9.83096027374268,1.46426343917847,0.11741565912962,-0.46237537264824
348,1521773761,-1.96230375766754,0.06641007959843,-25.91015815734863,-0.06929673999548,-0.37390771508217,9.71733760833740,1.06083905696869,0.36080211400986,0.40042728185654
349,1521782094,-1.95608532428741,0.06690432876348,-25.91767311096191,-0.76674616336823,-0.20188406109810,10.04699611663818,2.07782649993896,0.24382187426090,-0.65773510932922
350,1521790427,-1.95864450931549,0.06498856842518,-25.90950584411621,-0.54726350307465,-0.57029616832733,9.67758750915527,1.01621913909912,-0.10650399327278,0.74747461080551
351,1521798760,-1.95812451839447,0.06428673863411,-25.91362953186035,0.25825339555740,-0.06809506565332,9.91644382476807,1.39136517047882,0.08793366700411,-0.63552755117416
352,1521807093,-1.95872044563293,0.06473902612925,-25.91529464721680,-0.02655850537121,-0.27452611923218,9.86775493621826,1.25363755226135,0.21751609444618,-0.42072659730911
353,1521815426,-1.95645499229431,0.06344292312860,-25.92474555969238,-0.44767206907272,-0.39615705609322,9.77375316619873,1.60211908817291,0.03032725490630,-1.15430545806885
354,1521823759,-1.95865499973297,0.06308532506227,-25.92113876342773,-0.13104008138180,-0.55642682313919,10.05004501342773,1.05982732772827,0.09862760454416,0.20751373469830
355,1521832092,-1.95930278301239,0.06292673200369,-25.91089248657227,0.20804758369923,-0.39928600192070,9.74858856201172,1.24825847148895,0.08432205766439,1.09129428863525
356,1521840425,-1.95808529853821,0.06224577501416,-25.91246414184570,0.49863204360008,0.05835290625691,9.81687068939209,1.47092306613922,0.08268275856972,-0.41519394516945
357,1521848758,-1.95690166950226,0.06378421932459,-25.91770362854004,0.49260914325714,-0.43531486392021,9.92099285125732,1.47534155845642,0.34946781396866,-0.66886448860168
358,1521857091,-1.95846283435822,0.06449781358242,-25.91654586791992,-0.02903338894248,-0.56219917535782,9.78794288635254,1.13570952415466,0.23670117557049,-0.08236257731915
359,1521865424,-1.95943439006805,0.06391241401434,-25.91896629333496,-0.20655979216099,-0.18169651925564,9.85367107391357,1.21306455135345,0.09823060780764,-0.34953188896179
360,1521873757,-1.95883035659790,0.06392081826925,-25.92126464843750,0.42574435472488,-0.25642943382263,9.89022922515869,1.39698743820190,0.16624918580055,-0.49876037240028
361,1521882090,-1.95641779899597,0.06456211209297,-25.92478561401367,0.41189175844193,-0.42521789669991,9.75375175476074,1.61756467819214,0.24341209232807,-0.39393416047096
362,1521890423,-1.95719921588898,0.06589231640100,-25.91963386535645,-0.39467242360115,-0.42729651927948,9.85699653625488,1.23012375831604,0.29530653357506,0.39983826875687
363,1521898756,-1.95791733264923,0.06618858128786,-25.92060661315918,-0.49122148752213,-0.21753941476345,9.88008594512939,1.24262332916260,0.20217314362526,-0.10369922220707
364,1521907089,-1.95711171627045,0.06709662079811,-25.92352676391602,-0.33895176649094,-0.24025684595108,9.84646797180176,1.42128252983093,0.27694106101990,-0.56980144977570
365,1521915422,-1.95818328857422,0.06638544797897,-25.92710113525391,-0.29419642686844,-0.49042037129402,9.85562324523926,1.20005249977112,0.07863570004702,-0.34227019548416
366,1521923755,-1.95860755443573,0.06465840339661,-25.92832374572754,0.11625515669584,-0.40110281109810,9.91002750396729,1.27476930618286,-0.04515789449215,-0.37688788771629
367,1521932088,-1.95818710327148,0.06586179137230,-25.92659568786621,-0.16831354796886,-0.26355364918709,9.80058956146240,1.37849414348602,0.28100097179413,0.24178557097912
368,1521940421,-1.95704793930054,0.06528183817863,-25.92679023742676,-0.59344995021820,-0.30358812212944,9.84759807586670,1.46044683456421,0.08847157657146,-0.24803546071053
369,1521948754,-1.95670831203461,0.06423153728247,-25.92645072937012,0.08621313422918,-0.46406221389771,9.82498168945312,1.37052810192108,0.01130868401378,0.17759628593922
370,1521957087,-1.95799183845520,0.06430280208588,-25.92283630371094,0.72316670417786,-0.16199043393135,9.86055850982666,1.16943061351776,0.15067572891712,0.20943479239941
371,1521965420,-1.95620524883270,0.06406748294830,-25.93004798889160,0.27206465601921,-0.26704782247543,9.82774734497070,1.54511487483978,0.14399042725563,-0.94846951961517
372,1521973753,-1.95645391941071,0.06420995295048,-25.93437957763672,0.08412458747625,-0.50072759389877,9.87239646911621,1.29464578628540,0.19092850387096,-0.74288964271545
373,1521982086,-1.95905518531799,0.06517673283815,-25.93691635131836,0.17271968722343,-0.40788367390633,9.84648036956787,1.01539957523346,0.26700276136398,-0.00046105627553
374,1521990419,-1.95804178714752,0.06501597166061,-25.93609046936035,0.14432285726070,-0.21758945286274,9.84725284576416,1.44491183757782,0.13389842212200,-0.12338376790285
375,1521998752,-1.95619356632233,0.06499191373587,-25.93771362304688,0.36443018913269,-0.38073867559433,9.81177616119385,1.55142855644226,0.15558084845543,-0.13190048933029
376,1522007085,-1.95690536499023,0.06534238159657,-25.93696403503418,0.17360654473305,-0.36616832017899,9.81107425689697,1.23949837684631,0.19633309543133,-0.13149066269398
377,1522015418,-1.95718193054199,0.06727217137814,-25.93928718566895,-0.64977121353149,-0.19507944583893,9.87569522857666,1.29500436782837,0.40473052859306,-0.36363244056702
378,1522023751,-1.95734250545502,0.06703341007233,-25.94240760803223,-0.55923044681549,-0.31718567013741,9.89849853515625,1.30586481094360,0.14023792743683,-0.59825891256332
379,1522032084,-1.95701098442078,0.06671138107777,-25.94606590270996,0.03961226716638,-0.44027891755104,9.84899139404297,1.36731326580048,0.12932626903057,-0.37121427059174
380,1522040417,-1.95748865604401,0.06685310602188,-25.94362258911133,-0.18581655621529,-0.41596642136574,9.81596755981445,1.26675212383270,0.16300900280476,0.07005493342876
381,1522048750,-1.95765876770020,0.06759583204985,-25.94408035278320,-0.35298565030098,-0.28032708168030,9.86518001556396,1.30801641941071,0.24223381280899,-0.10167569667101
382,1522057083,-1.95725941658020,0.06779492646456,-25.94308280944824,-0.26138627529144,-0.30521899461746,9.86071777343750,1.37239789962769,0.17698155343533,-0.10225202888250
383,1522065416,-1.95844364166260,0.06687650084496,-25.94028282165527,-0.24062879383564,-0.36264199018478,9.84886360168457,1.18623352050781,0.02173367515206,0.29806002974510
384,1522073749,-1.96021437644958,0.06491348892450,-25.94318008422852,0.29633468389511,-0.50509077310562,9.79858493804932,1.11190116405487,-0.06552121788263,-0.57834374904633
385,1522082082,-1.96129500865936,0.06599247455597,-25.94118690490723,0.75856614112854,-0.00630880752578,9.83920764923096,1.19796502590179,0.25764080882072,0.28433081507683
386,1522090415,-1.95692157745361,0.06665078550577,-25.95178031921387,0.05760946869850,-0.24284115433693,9.86905384063721,1.85039818286896,0.27888783812523,-1.49022352695465
387,1522098748,-1.95739138126373,0.06636592000723,-25.95043945312500,-0.26356080174446,-0.89158755540848,9.84889221191406,1.27010738849640,0.11121700704098,0.12612448632717
388,1522107081,-1.96142947673798,0.06619813293219,-25.94259643554688,0.45707380771637,-0.34003901481628,9.73906803131104,0.83768790960312,0.10458292067051,0.71832555532455
389,1522115414,-1.95810365676880,0.06605253368616,-25.94775199890137,0.52284729480743,0.20481497049332,9.96873474121094,1.73254680633545,0.15166188776493,-0.61652177572250
390,1522123747,-1.95517027378082,0.06617444008589,-25.95601654052734,-0.03163243457675,-0.58300447463989,9.81595325469971,1.67745077610016,0.20578476786613,-1.21433246135712
391,1522132080,-1.95693290233612,0.06773969531059,-25.95569992065430,-0.34092596173286,-0.54023993015289,9.71805286407471,1.11302816867828,0.34408882260323,0.06079538166523
392,1522140413,-1.95886623859406,0.06951878964901,-25.94915580749512,-0.86808329820633,-0.08310887962580,9.99792194366455,1.09108948707581,0.34366619586945,0.56927645206451
393,1522148746,-1.95574569702148,0.06861840188503,-25.96248435974121,-1.15741109848022,-0.14223946630955,9.81069946289062,1.70729112625122,0.09738530963659,-1.47249829769135
394,1522157079,-1.95537459850311,0.07018668949604,-25.96322441101074,-1.61599874496460,-0.37058162689209,10.03325843811035,1.36897838115692,0.34822550415993,-0.30571869015694
395,1522165412,-1.95541870594025,0.06818747520447,-25.96098327636719,-1.86915957927704,-0.37175476551056,9.81982421875000,1.32023453712463,-0.11455965787172,0.25483602285385
396,1522173745,-1.95786201953888,0.06546255201101,-25.96122741699219,-0.95021939277649,-0.50731539726257,9.67226696014404,1.03090882301331,-0.16923324763775,-0.26441574096680
397,1522182078,-1.95745491981506,0.06536829471588,-25.96256828308105,0.18812692165375,-0.26203724741936,10.05018806457520,1.37480580806732,0.09071281552315,-0.13345016539097
398,1522190411,-1.95631492137909,0.06201915070415,-25.95541763305664,0.95572710037231,-0.63786906003952,9.74158573150635,1.46066462993622,-0.27325266599655,0.62092751264572
399,1522198744,-1.95564985275269,0.06116114929318,-25.95416641235352,1.84567666053772,-0.29124233126640,9.68308353424072,1.40556836128235,-0.01636749692261,0.10538976639509
400,1522207077,-1.95519566535950,0.06152285635471,-25.94951629638672,1.95166742801666,-0.24823947250843,9.86279869079590,1.37866055965424,0.18270634114742,0.33544400334358
401,1522215410,-1.95631837844849,0.06150903552771,-25.94945716857910,1.52658104896545,-0.11712069064379,9.86892890930176,1.19482719898224,0.11623738706112,0.09110982716084
402,1522223743,-1.95699501037598,0.06272310763597,-25.96295356750488,0.89619725942612,-0.49209904670715,9.81354045867920,1.24472355842590,0.35793331265450,-1.83598983287811
403,1522232076,-1.95645451545715,0.06369958817959,-25.96567726135254,0.23459894955158,-0.30295151472092,9.97978210449219,1.39223611354828,0.28229448199272,-0.27213844656944
404,1522240409,-1.95594847202301,0.06555254757404,-25.96476173400879,-0.22165949642658,-0.39578822255135,9.68896102905273,1.38432157039642,0.37568402290344,-0.10684978961945
405,1522248742,-1.95562815666199,0.06632069498301,-25.97295379638672,-0.15005949139595,-0.42819780111313,9.87061595916748,1.36728787422180,0.29131069779396,-0.91405677795410
406,1522257075,-1.95356369018555,0.06882866472006,-25.97078132629395,-0.69233083724976,-0.18542315065861,9.89225292205811,1.57179200649261,0.44878703355789,0.04864143207669
407,1522265408,-1.95348536968231,0.06901641190052,-25.97131347656250,-1.50118863582611,-0.46079328656197,9.76662063598633,1.33934283256531,0.18772673606873,-0.04222506657243
408,1522273741,-1.95506787300110,0.06762494146824,-25.97425460815430,-1.22048962116241,-0.22314724326134,9.93627834320068,1.13469779491425,0.00247177341953,-0.58213466405869
409,1522282074,-1.95396876335144,0.06876004487276,-25.97806549072266,-1.09676706790924,-0.01910529471934,9.92143535614014,1.45996022224426,0.29207915067673,-0.36898586153984
410,1522290407,-1.95370471477509,0.06782317906618,-25.98555374145508,-1.38812768459320,-0.85852634906769,9.76542282104492,1.35834848880768,0.07420442998409,-1.12536132335663
411,1522298740,-1.95738089084625,0.06790210306644,-25.97393798828125,-0.92792373895645,-0.42650249600410,9.85126113891602,0.88120645284653,0.08931683003902,1.22287476062775
412,1522307073,-1.95506584644318,0.06756339222193,-25.96835899353027,-0.39584571123123,-0.09840884059668,9.82864379882812,1.60179889202118,0.09411950409412,0.44349765777588
413,1522315406,-1.95380210876465,0.06483686715364,-25.96542739868164,0.27902510762215,-0.33053287863731,9.86528778076172,1.48178339004517,-0.23813556134701,0.27906709909439
414,1522323739,-1.95478522777557,0.06316538900137,-25.96718406677246,1.01286399364471,-0.29001203179359,9.90449905395508,1.20654571056366,-0.03596238419414,-0.44079536199570
415,1522332072,-1.95531177520752,0.06292027980089,-25.96854782104492,1.47650420665741,-0.24720939993858,9.81400775909424,1.26538157463074,0.07583094388247,-0.20055945217609
416,1522340405,-1.95666611194611,0.06235217675567,-25.96840286254883,1.72123861312866,-0.48780959844589,9.84348487854004,1.16197693347931,0.08797207474709,-0.20811563730240
417,1522348738,-1.95691704750061,0.06336437165737,-25.97480964660645,1.99492073059082,-0.26657214760780,9.81016731262207,1.29606759548187,0.26993563771248,-0.72016990184784
418,1522357071,-1.95460641384125,0.06559079885483,-25.98178291320801,1.19801652431488,-0.55517756938934,9.80046939849854,1.60324609279633,0.45221930742264,-1.05101609230042
419,1522365404,-1.95371782779694,0.06686881929636,-25.97822570800781,0.30850186944008,-0.37338566780090,9.84654808044434,1.43280899524689,0.29610055685043,0.50342214107513
420,1522373737,-1.95197391510010,0.06637579202652,-25.97638893127441,0.26144355535507,-0.18754038214684,9.85503005981445,1.53349876403809,0.08895824104548,-0.00616022339091
421,1522382070,-1.95239102840424,0.06932366639376,-25.98342323303223,-0.50391745567322,-0.33037540316582,9.84628295898438,1.28155708312988,0.55570083856583,-0.82716053724289
422,1522390403,-1.95522809028625,0.07068318873644,-25.98799896240234,-2.03247308731079,-0.38094609975815,9.97268676757812,0.98413729667664,0.33794137835503,-0.76550698280334
423,1522398736,-1.95549428462982,0.06795884668827,-25.99346351623535,-1.74638807773590,-0.25924047827721,9.89403438568115,1.29679751396179,-0.13576826453209,-0.60668599605560
424,1522407069,-1.95470881462097,0.06758956611156,-25.98834419250488,-0.67134457826614,-0.48692983388901,9.87636756896973,1.41829848289490,0.09153247624636,0.38868319988251
425,1522415402,-1.95315456390381,0.06726264953613,-25.98730278015137,-0.50429689884186,-0.36517408490181,9.82971572875977,1.51314795017242,0.09291563183069,0.12821204960346
426,1522423735,-1.95220041275024,0.06642103940248,-25.98456001281738,-0.57047498226166,-0.25233083963394,9.86769771575928,1.43811118602753,0.04372349753976,0.10199587792158
427,1522432068,-1.95171844959259,0.06571670621634,-25.98596000671387,-0.38640373945236,-0.16809180378914,9.83159732818604,1.38836824893951,0.04543964937329,-0.12475412338972
428,1522440401,-1.95370221138000,0.06441865116358,-25.98289299011230,0.09305133670568,-0.42478588223457,9.86917781829834,1.08559525012970,-0.01132149156183,0.13861143589020
429,1522448734,-1.95540714263916,0.06327435374260,-25.98973846435547,1.08581590652466,-0.25303897261620,9.78816509246826,1.12342739105225,0.00037140637869,-0.57048016786575
430,1522457067,-1.95549130439758,0.06267812848091,-25.99742698669434,1.17423272132874,-0.45466458797455,9.84681606292725,1.31411278247833,0.11713390052319,-1.14706957340240
431,1522465400,-1.95565772056580,0.06365583091974,-25.99428939819336,0.25842505693436,-0.57685530185699,9.85304832458496,1.30765771865845,0.23521549999714,0.34274405241013
432,1522473733,-1.95461463928223,0.06298027932644,-25.98714447021484,0.56811487674713,-0.33025386929512,9.80643939971924,1.44866418838501,0.04648983478546,0.63031506538391
433,1522482066,-1.95305716991425,0.06169473752379,-25.98696708679199,1.47694766521454,-0.25824624300003,9.83583831787109,1.51737451553345,-0.01657241024077,0.09509284794331
434,1522490399,-1.95315110683441,0.06336410343647,-25.98647689819336,1.12285327911377,-0.24210943281651,9.88431358337402,1.31257581710815,0.35524380207062,-0.15786051750183
435,1522498732,-1.95427250862122,0.06489492207766,-25.99744224548340,0.29479852318764,-0.24267856776714,9.81914997100830,1.19678664207458,0.38937479257584,-1.34948599338531
436,1522507065,-1.95501017570496,0.06590963155031,-26.00312042236328,-0.57664072513580,-0.28380334377289,9.84102439880371,1.23624539375305,0.30211988091469,-0.89929014444351
437,1522515398,-1.95571684837341,0.06585338711739,-26.00556755065918,-1.21874427795410,-0.49348893761635,9.85955715179443,1.24376332759857,0.17349801957607,-0.25878059864044
438,1522523731,-1.95619928836823,0.06598025560379,-26.00580978393555,-0.91680133342743,-0.38412198424339,9.88675212860107,1.26508700847626,0.17397187650204,-0.25049439072609
439,1522532064,-1.95514976978302,0.06720013916492,-26.00695037841797,-1.02254891395569,-0.30345937609673,9.88076591491699,1.45575940608978,0.30929189920425,-0.18804691731930
440,1522540397,-1.95399415493011,0.06638328731060,-26.00391197204590,-1.63649165630341,-0.31878072023392,9.90695095062256,1.46257281303406,0.04597755149007,0.13829125463963
441,1522548730,-1.95529830455780,0.06434156745672,-26.00134468078613,-0.90187335014343,-0.31483238935471,9.87246131896973,1.17151832580566,-0.10943681746721,0.15988406538963
442,1522557063,-1.95528852939606,0.06144494935870,-26.00150108337402,0.62919276952744,-0.16827781498432,9.85441589355469,1.32520365715027,-0.19014726579189,-0.25431093573570
443,1522565396,-1.95586562156677,0.06109765172005,-26.00437545776367,0.78646957874298,-0.51044118404388,9.86738300323486,1.26016914844513,0.09287721663713,-0.45551076531410
444,1522573729,-1.95686113834381,0.06120994687080,-26.00167274475098,0.58639013767242,-0.45482060313225,9.82026576995850,1.20435559749603,0.16075493395329,0.10081762820482
445,1522582062,-1.95674884319305,0.06006637215614,-25.99960136413574,0.97217851877213,-0.31061223149300,9.83239173889160,1.34114849567413,-0.01452327053994,0.23707252740860
446,1522590395,-1.95618844032288,0.05934728682041,-25.99686050415039,1.22159111499786,-0.32936695218086,9.82955169677734,1.39214670658112,0.06041117757559,0.10280273854733
447,1522598728,-1.95600926876068,0.05898253992200,-25.99846267700195,1.57134366035461,-0.33148419857025,9.83190441131592,1.35047209262848,0.10626064985991,-0.15701526403427
448,1522607061,-1.95705580711365,0.06044416502118,-26.00047111511230,1.44011044502258,-0.26117891073227,9.83565998077393,1.19772160053253,0.33992648124695,-0.45675301551819
449,1522615394,-1.95758259296417,0.06385193020105,-26.01043891906738,-0.01239327993244,-0.22593314945698,9.86516189575195,1.26739227771759,0.61054092645645,-0.99822503328323
450,1522623727,-1.95747566223145,0.06491861492395,-26.01593208312988,-0.96129959821701,-0.44656631350517,9.85022926330566,1.33795952796936,0.30783185362816,-0.87796628475189
451,1522632060,-1.95821499824524,0.06595066934824,-26.01782798767090,-0.56571835279465,-0.47990569472313,9.86687469482422,1.23778223991394,0.31080311536789,-0.23046405613422
452,1522640393,-1.95865070819855,0.06664478778839,-26.01438713073730,-0.64904183149338,-0.31704977154732,9.85187530517578,1.27231025695801,0.22632735967636,0.19356675446033
453,1522648726,-1.95630264282227,0.06744666397572,-26.01781654357910,-1.37805247306824,-0.23257468640804,9.88622283935547,1.61118662357330,0.27391862869263,-0.34831514954567
454,1522657059,-1.95611500740051,0.06736302375793,-26.01940727233887,-1.56902587413788,-0.44341906905174,9.85696220397949,1.34656608104706,0.15422330796719,-0.41334971785545
455,1522665392,-1.95796120166779,0.06667631864548,-26.01726722717285,-1.34221673011780,-0.26673665642738,9.96724319458008,1.10714972019196,0.05714535713196,0.32650461792946
456,1522673725,-1.95953285694122,0.06502157449722,-26.01795387268066,-0.51024806499481,-0.44981369376183,9.82192611694336,1.13582479953766,-0.03824205324054,-0.31241679191589
457,1522682058,-1.95998620986938,0.06321130692959,-26.01976776123047,0.68540692329407,-0.29466849565506,9.80327796936035,1.27361655235291,-0.09305651485920,0.09280036389828
458,1522690391,-1.95984339714050,0.06381935626268,-26.01632308959961,0.59944403171539,-0.35538184642792,9.71416187286377,1.34130215644836,0.21542851626873,0.19265747070312
459,1522698724,-1.95805537700653,0.06337533891201,-26.01837921142578,0.29431086778641,-0.36043176054955,9.99460315704346,1.54271996021271,0.08311820030212,-0.15979440510273
460,1522707057,-1.95762383937836,0.06146045029163,-26.01306343078613,1.12380456924438,-0.33952400088310,9.78164863586426,1.37535619735718,-0.09470862150192,0.40690773725510
461,1522715390,-1.95889937877655,0.06266782432795,-26.01527786254883,1.82199347019196,-0.20204630494118,9.72584056854248,1.17651295661926,0.28564992547035,-0.08215765655041
462,1522723723,-1.95879030227661,0.06371177732944,-26.02046394348145,1.37745869159698,-0.19499364495277,9.99996757507324,1.33793389797211,0.30201745033264,-0.84185022115707
463,1522732056,-1.96003890037537,0.06443196535110,-26.03185272216797,0.58519643545151,-0.57776552438736,9.71716213226318,1.18002223968506,0.29466617107391,-1.38062012195587
464,1522740389,-1.96254372596741,0.06650495529175,-26.03392791748047,-0.09979646652937,-0.57335042953491,9.89477825164795,1.02331423759460,0.41356739401817,-0.46288764476776
465,1522748722,-1.96195054054260,0.06567988544703,-26.02939796447754,-0.07273726165295,-0.22160223126411,9.88009357452393,1.39956164360046,0.05653062090278,0.58087956905365
466,1522757055,-1.95884001255035,0.06520882248878,-26.02783203125000,0.60426729917526,-0.47771531343460,9.77730083465576,1.69796752929688,0.09318458288908,-0.03785783797503
467,1522765388,-1.95828187465668,0.06793139129877,-26.03050041198730,-0.02490619942546,-0.28768733143806,9.94598484039307,1.39692354202271,0.50631660223007,-0.17799331247807
468,1522773721,-1.95769619941711,0.06911982595921,-26.03073501586914,-1.45731306076050,-0.15355007350445,9.87166023254395,1.39391374588013,0.30126181244850,-0.24745911359787
469,1522782054,-1.95885133743286,0.06714808195829,-26.03853607177734,-0.92073577642441,-0.36837139725685,9.80746364593506,1.19264996051788,-0.03361867740750,-0.79292702674866
470,1522790387,-1.96008396148682,0.06548196822405,-26.03514480590820,0.53905254602432,-0.33834376931190,9.94124317169189,1.17610335350037,-0.05682518705726,0.17627716064453
471,1522798720,-1.96028113365173,0.06614287942648,-26.03603553771973,0.28920373320580,-0.29793736338615,9.78224945068359,1.30473780632019,0.24205452203751,-0.05656903609633
472,1522807053,-1.95946323871613,0.06822843104601,-26.03874015808105,-0.88740289211273,-0.43790414929390,9.87003803253174,1.42251193523407,0.41784495115280,-0.53829592466354
473,1522815386,-1.95956790447235,0.06723498553038,-26.03602409362793,-0.92250943183899,-0.21165980398655,9.85457992553711,1.31608498096466,0.03821643814445,0.25478476285934
474,1522823719,-1.95985233783722,0.06335468590260,-26.02910995483398,0.66373378038406,-0.35044637322426,9.86757564544678,1.28929245471954,-0.33712172508240,0.59030556678772
475,1522832052,-1.96252548694611,0.06096550077200,-26.03245353698730,2.49630641937256,-0.45591506361961,9.78646278381348,1.00876545906067,-0.12303797155619,-0.34339722990990
476,1522840385,-1.96126425266266,0.06388778984547,-26.04303169250488,1.70582211017609,-0.37717866897583,9.75764751434326,1.47581541538239,0.55190992355347,-1.47818470001221
477,1522848718,-1.96326899528503,0.06601443141699,-26.03891372680664,-0.52282273769379,-0.44638031721115,9.99764347076416,1.08886110782623,0.41418215632439,0.46922716498375
478,1522857051,-1.96246063709259,0.06245783343911,-26.03376197814941,0.41293343901634,-0.40937867760658,9.71291828155518,1.42138516902924,-0.29147717356682,0.37901383638382
479,1522865384,-1.96508646011353,0.06508056819439,-26.03667259216309,2.01473426818848,-0.05767334625125,9.63654041290283,1.01520740985870,0.50894206762314,-0.30534732341766
480,1522873717,-1.96669769287109,0.06493886560202,-26.02029228210449,1.73569977283478,-0.66833764314651,10.03087997436523,1.12883234024048,0.07324390858412,1.74073076248169
481,1522882050,-1.96212017536163,0.06703250110149,-26.04647636413574,1.13874256610870,0.35680726170540,10.01488018035889,1.88075065612793,0.55923551321030,-3.16682839393616
482,1522890383,-1.95776402950287,0.06796672195196,-26.05230903625488,-0.31661489605904,-1.02804660797119,9.74340724945068,1.84745216369629,0.29307806491852,-0.92097258567810
483,1522898716,-1.96300280094147,0.07282393425703,-26.03882026672363,-0.45591124892235,-0.42914113402367,9.95434188842773,0.69578504562378,0.74714159965515,1.60670399665833
484,1522907049,-1.96689152717590,0.06635020673275,-26.02494239807129,1.54486298561096,-0.51351499557495,9.52821636199951,0.85566920042038,-0.67704826593399,1.41347038745880
485,1522915382,-1.96328735351562,0.06855492293835,-26.06800079345703,1.01042783260345,0.58756893873215,10.22955322265625,1.77055823802948,0.64937210083008,-4.98041868209839
486,1522923715,-1.96743559837341,0.06984163075686,-26.02671051025391,-1.54793250560760,-0.96510338783264,9.76437950134277,0.82079535722733,0.14104479551315,4.73444557189941
487,1522932048,-1.96364593505859,0.06678120046854,-26.06543922424316,-0.85169541835785,-0.27870172262192,9.88838672637939,1.78665685653687,0.02137507870793,-4.60282707214355
488,1522940381,-1.96676027774811,0.06655722111464,-26.05398941040039,-0.14737002551556,-0.12985986471176,10.26367187500000,0.94803398847580,0.08163256943226,1.14864480495453
489,1522948714,-1.96294713020325,0.06720387190580,-26.05273056030273,-0.23342500627041,-0.66064822673798,9.30178070068359,1.78705406188965,0.28257626295090,0.22642984986305
490,1522957047,-1.96294879913330,0.06676895171404,-26.04996490478516,1.33936274051666,-0.15519525110722,9.77308082580566,1.32474243640900,0.09438845515251,0.10801522433758
491,1522965380,-1.96211612224579,0.06765367835760,-26.04717826843262,0.26419025659561,-0.87146663665771,10.18916797637939,1.43041396141052,0.30664080381393,0.27411070466042
492,1522973713,-1.96171700954437,0.06707695126534,-26.04183959960938,-0.93984800577164,0.44088700413704,9.57863044738770,1.37082266807556,0.06508576869965,0.41492497920990
493,1522982046,-1.96184957027435,0.06192350387573,-26.06238555908203,0.97033464908600,-0.99643009901047,9.91256332397461,1.31964540481567,-0.31465810537338,-2.47224736213684
494,1522990379,-1.97276914119720,0.06441230326891,-26.04126358032227,2.82445144653320,-0.42230275273323,9.83236885070801,0.01176974084228,0.36888343095779,2.31950974464417
495,1522998712,-1.96019256114960,0.06430730968714,-26.05212783813477,1.58726906776428,0.93046587705612,10.03166961669922,2.84164333343506,0.25260761380196,-1.32708632946014
496,1523007045,-1.95777881145477,0.06711646914482,-26.06435203552246,-0.04541066288948,-1.36917579174042,9.50147056579590,1.61694967746735,0.54271435737610,-1.67792451381683
497,1523015378,-1.96760618686676,0.06652095913887,-26.04789543151855,0.24115619063377,-0.76382583379745,10.14594173431396,0.14195409417152,0.10724680870771,1.99634778499603
498,1523023711,-1.97192454338074,0.06649393588305,-26.03717613220215,0.08391715586185,0.08654224872589,9.83186149597168,0.80543965101242,0.11019244790077,1.06286275386810
499,1523032044,-1.97639513015747,0.06831228733063,-26.04946708679199,1.12999701499939,-0.27064770460129,9.77471446990967,0.79816514253616,0.52309387922287,-1.66860079765320
500,1523040377,-1.96424925327301,0.07074978947639,-26.11536598205566,0.77278542518616,0.17006883025169,9.71871185302734,2.79215645790100,0.72121995687485,-8.11698436737061
501,1523048710,-1.97705638408661,0.07100933790207,-26.03512001037598,-2.03007745742798,-1.91948592662811,10.14823055267334,-0.21848946809769,-0.04625931754708,9.63060855865479
502,1523057043,-1.96061992645264,0.07127620279789,-26.08543968200684,-0.37579697370529,1.17479622364044,8.81003284454346,3.30458164215088,0.39521482586861,-6.25668621063232
503,1523065376,-1.97096014022827,0.07287962734699,-26.03786277770996,-0.13064567744732,-2.56678009033203,10.35811805725098,0.08907350897789,0.24076102674007,5.72689485549927
504,1523073709,-1.96208775043488,0.07861839234829,-26.05619239807129,-0.44791513681412,3.26880359649658,9.64544010162354,2.39167833328247,0.92119038105011,-2.39772295951843
505,1523082042,-1.95922124385834,0.07126275449991,-26.08444786071777,-2.88539147377014,-3.38572478294373,10.26728153228760,1.68915629386902,-0.52472037076950,-3.45214557647705
506,1523090375,-1.97230696678162,0.07464494556189,-26.05179977416992,-1.30978298187256,1.20073115825653,10.28948497772217,-0.25041753053665,0.42770648002625,3.70671248435974
507,1523098708,-1.96008646488190,0.07961961627007,-26.10527610778809,-1.63443541526794,-0.26231876015663,9.01969051361084,2.81292986869812,1.04357516765594,-6.59019708633423
508,1523107041,-1.96950042247772,0.07600268721581,-26.07558441162109,-2.50320386886597,-1.63747954368591,10.36992931365967,0.19012166559696,-0.39924907684326,3.32325506210327
509,1523115374,-1.96602797508240,0.07417251169682,-26.06666946411133,-1.58050513267517,1.44694662094116,9.93383979797363,1.74204969406128,-0.05851572006941,1.08348214626312
510,1523123707,-1.95073091983795,0.07687905430794,-26.08379936218262,-3.14488554000854,-0.64249294996262,9.68649578094482,3.16379308700562,0.55252456665039,-2.26697492599487
511,1523132040,-1.96379578113556,0.07562409341335,-26.06030654907227,-3.06939053535461,-1.52257680892944,9.67029190063477,-0.24721579253674,-0.06958106905222,2.70701479911804
512,1523140373,-1.96936357021332,0.07234878093004,-26.04990577697754,-0.31663489341736,1.51056599617004,10.11464214324951,0.65439242124557,-0.27772232890129,1.01073765754700
513,1523148706,-1.96906709671021,0.07670381665230,-26.05868911743164,-0.97368627786636,-0.28362709283829,10.30509471893311,1.37110435962677,0.69363349676132,-1.03080642223358
514,1523157039,-1.97080028057098,0.06944944709539,-26.10173416137695,-1.56299936771393,-1.10894262790680,9.44686222076416,1.12218523025513,-0.53458189964294,-5.41616868972778
515,1523165372,-1.98270916938782,0.06353093683720,-26.08181381225586,1.58958220481873,-1.09278059005737,9.96832275390625,-0.10874523222446,-0.66385692358017,2.37474679946899
516,1523173705,-1.98433458805084,0.05429372191429,-26.04629325866699,6.01808547973633,-0.74424117803574,10.00074100494385,1.12452900409698,-1.09943974018097,3.99765205383301
517,1523182038,-1.96901512145996,0.04989502206445,-26.07942199707031,8.11625099182129,-1.21179640293121,9.22741794586182,3.17355275154114,-0.26382663846016,-3.92732858657837
518,1523190371,-1.95831942558289,0.04919175058603,-26.03584671020508,9.31025028228760,0.75233006477356,10.21762752532959,2.60282897949219,-0.10635030269623,5.00073051452637
519,1523198704,-1.95580077171326,0.05519265681505,-26.01596641540527,5.91642618179321,-0.04450115561485,9.39052867889404,1.63823533058167,0.84985464811325,2.46670222282410
520,1523207037,-1.95483732223511,0.07287162542343,-26.04670524597168,-0.82050001621246,-0.22661834955215,9.86901569366455,1.44492471218109,2.40292263031006,-3.83897233009338
521,1523215370,-1.96881783008575,0.08144473284483,-26.08985900878906,-3.88427615165710,0.66731840372086,9.85573196411133,-0.34078457951546,1.50726962089539,-5.09639978408813
522,1523223703,-1.97216761112213,0.08740127086639,-26.11982154846191,-5.92255258560181,-0.06926979869604,9.82844448089600,0.92774748802185,0.99475431442261,-3.79212284088135
523,1523232036,-1.97101008892059,0.10350032150745,-26.15348815917969,-8.61553096771240,-1.51225233078003,9.92173671722412,1.46848976612091,2.34408688545227,-3.95059895515442
524,1523240369,-1.96964895725250,0.10574623197317,-26.13251876831055,-10.56502819061279,-0.81242585182190,10.12581539154053,1.48401188850403,0.33862015604973,2.30038881301880
525,1523248702,-1.96070611476898,0.09897664934397,-26.10107421875000,-10.91755390167236,0.15230906009674,10.11785221099854,2.39545631408691,-0.75359648466110,3.74235534667969
526,1523257035,-1.95892691612244,0.08329456299543,-26.09043693542480,-8.44435405731201,0.03013997897506,10.24741458892822,1.53554773330688,-1.76667773723602,0.98804342746735
527,1523265368,-1.95922458171844,0.07010438293219,-26.08381271362305,-3.70587849617004,0.28169050812721,10.25266742706299,1.29195630550385,-1.54716384410858,0.79473292827606
528,1523273701,-1.96444499492645,0.06033757701516,-26.09275436401367,0.75570178031921,-0.18316550552845,9.56469726562500,0.69947350025177,-0.97838693857193,-1.33434796333313
529,1523282034,-1.97238063812256,0.05895159021020,-26.11592483520508,2.03743529319763,-1.14923572540283,9.37340068817139,0.37332749366760,-0.07904554158449,-2.69238901138306
530,1523290367,-1.97438633441925,0.05129373818636,-26.09487342834473,3.96093082427979,-0.88650220632553,9.79143619537354,1.08030605316162,-0.84753668308258,2.26944708824158
531,1523298700,-1.96927762031555,0.04021748900414,-26.05787849426270,8.76502704620361,-0.89937311410904,9.59280204772949,1.93661558628082,-1.46696579456329,4.35019350051880
532,1523307033,-1.96115732192993,0.04337915405631,-26.02732467651367,9.79538249969482,0.20361451804638,9.81154060363770,2.29728937149048,0.41057053208351,3.45448923110962
533,1523315366,-1.94806885719299,0.05370789766312,-26.04316520690918,6.16762256622314,0.32985329627991,9.98139667510986,2.90391159057617,1.39167249202728,-1.89167511463165
534,1523323699,-1.95500636100769,0.06026911735535,-26.05330467224121,2.09957122802734,0.07180107384920,9.53155136108398,0.49453404545784,0.98463678359985,-1.41233038902283
535,1523332032,-1.96133601665497,0.06921919435263,-26.10397911071777,-1.35534989833832,0.67551738023758,10.15047168731689,0.57343876361847,1.45979380607605,-6.08883714675903
536,1523340365,-1.96745014190674,0.06966684758663,-26.13887786865234,-3.29115748405457,-1.20660507678986,9.81748294830322,0.59407097101212,0.35391184687614,-4.40771055221558
537,1523348698,-1.96936237812042,0.07536665350199,-26.15970420837402,-4.16028928756714,-0.76016753911972,9.13094043731689,1.09265208244324,0.95428407192230,-2.57911038398743
538,1523357031,-1.96734142303467,0.08839292824268,-26.14552116394043,-8.57046604156494,-1.17063128948212,10.59471130371094,1.56392824649811,1.66034018993378,1.53057861328125
539,1523365364,-1.95895397663116,0.09186138957739,-26.11613082885742,-11.36752700805664,0.39477366209030,9.66566848754883,2.32697653770447,0.43293184041977,3.57615733146667
540,1523373697,-1.95318114757538,0.07677652686834,-26.10984802246094,-9.25585556030273,-1.17522609233856,10.02138042449951,2.01631402969360,-1.67798840999603,0.46870198845863
541,1523382030,-1.96250462532043,0.06646039336920,-26.08433914184570,-4.49526691436768,-0.02653558738530,10.59423542022705,0.20273669064045,-1.31066775321960,2.98572325706482
542,1523390363,-1.96547341346741,0.06085456535220,-26.09566688537598,-0.77094590663910,1.02752876281738,9.95765304565430,0.96955007314682,-0.46829223632812,-1.60446286201477
543,1523398696,-1.96375346183777,0.04728668928146,-26.11543655395508,2.38911366462708,-0.57038271427155,9.68237781524658,1.53798103332520,-1.58669936656952,-2.45648193359375
544,1523407029,-1.97069108486176,0.03524596616626,-26.08850860595703,5.21251583099365,-1.26905786991119,9.45041561126709,0.48856589198112,-1.39936971664429,2.95629262924194
545,1523415362,-1.96788251399994,0.03462636470795,-26.05842781066895,8.79777717590332,-0.25655099749565,9.76115417480469,1.65811181068420,-0.22865827381611,3.60581827163696
546,1523423695,-1.96723639965057,0.02703162096441,-26.04160499572754,12.41757774353027,-0.40480667352676,9.48561859130859,1.40007412433624,-0.82412523031235,1.76256680488586
547,1523432028,-1.96882295608521,0.03278848528862,-26.04349517822266,12.42645549774170,0.15625385940075,9.67398452758789,1.13658046722412,0.74803805351257,-0.31365907192230
548,1523440361,-1.97399687767029,0.03743923082948,-26.06437301635742,8.24978542327881,-0.63078248500824,10.01584339141846,0.70551848411560,0.80123883485794,-2.70774483680725
549,1523448694,-1.97563433647156,0.03854620456696,-26.11077880859375,5.04790830612183,-0.15656875073910,9.73863601684570,1.13102209568024,0.50436985492706,-5.58376216888428
550,1523457027,-1.97922468185425,0.04956938698888,-26.13574981689453,4.28530120849609,-1.40770387649536,9.50947570800781,0.89657503366470,1.58106422424316,-3.17336034774780
551,1523465360,-1.97628235816956,0.05894099920988,-26.12735176086426,2.29634189605713,-0.88594847917557,9.75060939788818,1.67696404457092,1.33760094642639,1.05881571769714
552,1523473693,-1.96474957466125,0.07326505333185,-26.11649894714355,-3.73756814002991,-0.26860672235489,9.87504863739014,2.70629787445068,1.83062410354614,1.13752818107605
553,1523482026,-1.95789313316345,0.08625142276287,-26.11138534545898,-9.08562755584717,0.04411246255040,10.10329723358154,2.15684700012207,1.82122337818146,0.56476831436157
554,1523490359,-1.95605993270874,0.09161204099655,-26.10404586791992,-11.11388397216797,0.44546324014664,10.08451938629150,1.54172062873840,0.76947724819183,0.67964804172516
555,1523498692,-1.96161460876465,0.08777812868357,-26.11576652526855,-9.26466941833496,0.16164709627628,10.10635185241699,0.66794240474701,-0.19757537543774,-1.43138742446899
556,1523507025,-1.96611309051514,0.07673551887274,-26.15024375915527,-6.07765054702759,-0.61496621370316,9.89540100097656,0.79036557674408,-1.02492809295654,-4.40359926223755
557,1523515358,-1.96823573112488,0.07352470606565,-26.13263893127441,-5.74704313278198,-0.49601465463638,10.62838363647461,1.06680738925934,-0.34866100549698,2.05505585670471
558,1523523691,-1.96604859828949,0.07039076834917,-26.12121009826660,-5.70403528213501,-0.07054243236780,9.15981101989746,1.58429169654846,-0.26560679078102,1.13450562953949
559,1523532024,-1.96301496028900,0.06379584968090,-26.11229705810547,-1.68151259422302,0.26265719532967,10.36128807067871,1.69020640850067,-0.77727675437927,0.97577440738678
560,1523540357,-1.96536791324615,0.05333093181252,-26.09088325500488,0.74803280830383,-1.03533172607422,9.49199867248535,1.03850364685059,-1.18572139739990,2.30064511299133
561,1523548690,-1.96788299083710,0.04586515575647,-26.08918762207031,3.22748422622681,0.21503591537476,10.13592147827148,1.02047109603882,-0.88688004016876,0.06944018602371
562,1523557023,-1.97062468528748,0.04161404818296,-26.10130691528320,7.10843324661255,-0.99538558721542,9.06959819793701,0.99680358171463,-0.30331093072891,-1.69301116466522
563,1523565356,-1.97743546962738,0.03871445357800,-26.09482574462891,8.13122272491455,-0.95077019929886,9.74365997314453,0.50611162185669,-0.33776211738586,0.67829048633575
564,1523573689,-1.97408652305603,0.03881434351206,-26.09207916259766,7.29009199142456,-0.49469891190529,10.01792144775391,1.72511863708496,0.15762999653816,0.10722118616104
565,1523582022,-1.97174048423767,0.03893352672458,-26.08051681518555,7.55629444122314,-0.61784106492996,9.35178089141846,1.61000835895538,0.08055676519871,1.29938447475433
566,1523590355,-1.97020840644836,0.04269037023187,-26.07383537292480,5.88606119155884,0.02745676785707,9.98501396179199,1.50819182395935,0.58113574981689,0.59325134754181
567,1523598688,-1.95943510532379,0.05300766974688,-26.09428977966309,2.72444701194763,0.53082114458084,10.05123519897461,2.62545895576477,1.50701344013214,-2.40101456642151
568,1523607021,-1.96070802211761,0.05638311058283,-26.10921478271484,0.09670598804951,-0.69572329521179,9.66074943542480,1.17454075813293,0.62288707494736,-1.99876844882965
569,1523615354,-1.96377992630005,0.07099366933107,-26.11824226379395,-3.59427905082703,0.63777756690979,10.03263473510742,0.95674294233322,2.01545619964600,-1.00647294521332
570,1523623687,-1.96046435832977,0.07625398784876,-26.15750122070312,-7.69197607040405,-0.53478467464447,9.77850627899170,1.72962677478790,0.94987827539444,-4.90939044952393
571,1523632020,-1.97019970417023,0.08455412089825,-26.15534210205078,-9.20515727996826,-1.12554979324341,9.81781196594238,0.15281452238560,1.19767034053802,0.22363787889481
572,1523640353,-1.96589863300323,0.08786265552044,-26.16349792480469,-8.69788837432861,-0.17681050300598,10.04983043670654,1.84140729904175,0.58725756406784,-1.18748867511749
573,1523648686,-1.96702623367310,0.07711864262819,-26.14104080200195,-8.27832317352295,-0.50144267082214,10.31230926513672,1.18860280513763,-1.25723612308502,2.76082992553711
574,1523657019,-1.96619784832001,0.06834054738283,-26.12943458557129,-5.05578613281250,-0.58419215679169,9.78417015075684,1.42156445980072,-0.94328254461288,1.13253331184387
575,1523665352,-1.97132003307343,0.06357098370790,-26.12181663513184,-0.98086243867874,-0.01614379510283,9.69866180419922,0.71135854721069,-0.55979913473129,0.97346895933151
576,1523673685,-1.97338080406189,0.05059100314975,-26.11063575744629,1.46567690372467,-0.59162443876266,10.07446098327637,1.07531106472015,-1.44619238376617,1.06468129158020
577,1523682018,-1.97217655181885,0.03600772097707,-26.09534645080566,6.96911621093750,-0.27134561538696,9.73392391204834,1.47020590305328,-1.79180562496185,1.69079577922821
578,1523690351,-1.97446858882904,0.03089612349868,-26.08690643310547,11.13241386413574,-0.51723664999008,9.31828784942627,1.04878759384155,-0.49107608199120,0.76644182205200
579,1523698684,-1.97432494163513,0.03233254700899,-26.08065223693848,10.75276851654053,-0.47818902134895,9.98431682586670,1.34338963031769,0.20742407441139,0.70124089717865
580,1523707017,-1.97098040580750,0.03301644697785,-26.08389282226562,10.31904602050781,-0.15645675361156,9.70194625854492,1.72563099861145,0.25230020284653,-0.60917055606842
581,1523715350,-1.97019541263580,0.03999663516879,-26.09419822692871,8.36497211456299,-0.23061142861843,9.73249053955078,1.42417716979980,1.04813456535339,-1.32905864715576
582,1523723683,-1.96928417682648,0.05068638548255,-26.10616874694824,3.44419455528259,-0.32481580972672,9.70897960662842,1.43514001369476,1.48859703540802,-1.61491358280182
583,1523732016,-1.96566379070282,0.06073551625013,-26.12744712829590,0.33484339714050,0.27341386675835,9.58146476745605,1.76497459411621,1.55045545101166,-2.66714644432068
584,1523740349,-1.97849369049072,0.07178597897291,-26.11463165283203,-3.37928390502930,-0.92680454254150,10.19074726104736,-0.21798993647099,1.42953038215637,1.35934734344482
585,1523748682,-1.97817945480347,0.08073464781046,-26.19380187988281,-9.07193088531494,0.30489805340767,10.00465583801270,1.37579178810120,1.67207157611847,-9.53696060180664
586,1523757015,-1.98102021217346,0.07903181761503,-26.18738555908203,-10.16492652893066,-1.48588871955872,10.32439899444580,0.98222905397415,-0.07452461868525,0.53971749544144
587,1523765348,-1.98064196109772,0.07110332697630,-26.15036392211914,-4.51698398590088,-0.71758830547333,9.90653705596924,1.36367642879486,-0.89028686285019,4.27017498016357
588,1523773681,-1.96689295768738,0.06903370469809,-26.12994766235352,-1.56804966926575,-0.19561886787415,9.69806957244873,2.97182750701904,-0.17525258660316,2.21746277809143
589,1523782014,-1.96809768676758,0.07011793553829,-26.11642456054688,-2.94402027130127,0.14228552579880,10.07832527160645,1.18327522277832,0.21159921586514,1.72670698165894
590,1523790347,-1.96973586082458,0.06084850803018,-26.09807777404785,-1.64756798744202,-0.15062260627747,9.73128986358643,1.12620663642883,-1.02975630760193,1.93848538398743
591,1523798680,-1.97127676010132,0.05250295624137,-26.11819458007812,3.09904956817627,0.21755017340183,9.91881179809570,1.14573752880096,-0.79601359367371,-2.50187063217163
592,1523807013,-1.97959434986115,0.04998472332954,-26.12442779541016,5.99353170394897,-0.88211721181870,9.45289707183838,0.32624849677086,-0.11885004490614,-0.98123013973236
593,1523815346,-1.97836410999298,0.04668387025595,-26.12291526794434,6.92048263549805,-0.63659584522247,9.96909618377686,1.47187077999115,-0.27034544944763,0.05320077016950
594,1523823679,-1.97076892852783,0.05622313544154,-26.13041305541992,3.26578760147095,-0.32131311297417,9.64268779754639,2.23602032661438,1.33191466331482,-1.08303391933441
595,1523832012,-1.96786820888519,0.06209316477180,-26.11636161804199,-2.00712180137634,-0.23621240258217,9.78681278228760,1.67568314075470,0.83540821075439,1.62337887287140
596,1523840345,-1.96851086616516,0.06177265197039,-26.12011146545410,-1.66281402111053,0.16332806646824,9.84161853790283,1.24805355072021,0.13383437693119,-0.67417943477631
597,1523848678,-1.96922850608826,0.06450154632330,-26.14431190490723,-0.20311120152473,-0.11740934103727,9.80748558044434,1.24439084529877,0.62268209457397,-2.98345661163330
598,1523857011,-1.98033010959625,0.07123297452927,-26.15698623657227,-3.82903027534485,-0.80726009607315,9.88097190856934,-0.00636513764039,1.01568138599396,-1.71424555778503
599,1523865344,-1.97992420196533,0.07328978180885,-26.18184089660645,-7.04437398910522,-0.14497312903404,10.11454582214355,1.37819969654083,0.54033237695694,-3.18294024467468
600,1523873677,-1.97315478324890,0.07267273217440,-26.17985153198242,-6.89736223220825,-0.47233796119690,10.14922809600830,2.13563799858093,0.07479356229305,0.01224360335618
601,1523882010,-1.97054505348206,0.06547172367573,-26.14308929443359,-3.84002900123596,-0.91583508253098,9.88516712188721,1.63457250595093,-0.87448287010193,4.22035551071167
602,1523890343,-1.96850049495697,0.06084557250142,-26.11578941345215,1.60085833072662,-0.26391011476517,9.54494094848633,1.56541407108307,-0.51091444492340,3.03106093406677
603,1523898676,-1.96843361854553,0.06071572005749,-26.10661697387695,3.19157743453979,0.35207003355026,9.83958530426025,1.33670437335968,0.04100839048624,0.90507906675339
604,1523907009,-1.96987783908844,0.06047714501619,-26.11556434631348,0.19924770295620,-0.04253552109003,9.96507358551025,1.15194916725159,0.16659499704838,-1.29756605625153
605,1523915342,-1.97765183448792,0.05451631173491,-26.13607215881348,1.83601260185242,-0.40052953362465,9.74767112731934,0.39458730816841,-0.52287620306015,-2.43003535270691
606,1523923675,-1.98410761356354,0.04626058414578,-26.13883209228516,7.12712764739990,-0.65354800224304,9.80109596252441,0.55068045854568,-0.82225525379181,-0.58691173791885
607,1523932008,-1.98118257522583,0.04834232106805,-26.14170074462891,7.27899503707886,-0.79348176717758,9.96381664276123,1.67563199996948,0.38239490985870,-0.39698219299316
608,1523940341,-1.96615850925446,0.05343738198280,-26.15889930725098,3.80190491676331,0.09167194366455,9.97813796997070,3.12911152839661,0.84040302038193,-2.26479768753052
609,1523948674,-1.95476841926575,0.05535140633583,-26.12692451477051,0.20639999210835,-0.79458022117615,9.90987586975098,2.69026327133179,0.27847796678543,3.84669423103333
610,1523957007,-1.95642638206482,0.07497069239616,-26.13295745849609,-3.00143694877625,0.37755578756332,8.97760105133057,1.12761545181274,2.53481054306030,-0.86654233932495
611,1523965340,-1.96350800991058,0.08504124730825,-26.16702270507812,-6.42334699630737,-0.80089104175568,10.31550025939941,0.48257222771645,1.55027592182159,-4.18115282058716
612,1523973673,-1.96487784385681,0.09742252528667,-26.18449783325195,-8.07399559020996,0.20352995395660,9.40091896057129,1.16347551345825,1.71325945854187,-2.26930594444275
613,1523982006,-1.97987723350525,0.09917917847633,-26.18967628479004,-10.28259086608887,-0.80593949556351,10.21155643463135,-0.47187823057175,0.39330655336380,-0.70681202411652
614,1523990339,-1.97080290317535,0.09632720053196,-26.18693161010742,-11.37885761260986,0.47323125600815,10.12232875823975,2.41224622726440,-0.19626909494400,0.09351758658886
615,1523998672,-1.96615004539490,0.08024569600821,-26.17378807067871,-8.95564556121826,-1.06312692165375,9.43941879272461,1.88287675380707,-1.89892411231995,1.43424332141876
616,1524007005,-1.97932136058807,0.07046531140804,-26.13345527648926,-4.69734430313110,0.06747405976057,10.71756267547607,-0.26243063807487,-1.18326234817505,4.57362604141235
617,1524015338,-1.97031939029694,0.06377226114273,-26.13980865478516,-0.21879118680954,0.70218318700790,9.25084972381592,2.40666246414185,-0.77791714668274,-0.85619431734085
618,1524023671,-1.97595310211182,0.04735109210014,-26.13759994506836,3.85356497764587,-1.39975082874298,9.64809513092041,0.64893662929535,-1.82145369052887,-0.02604967728257
619,1524032004,-1.98527133464813,0.03912775963545,-26.13392066955566,7.20489501953125,0.07594209164381,10.52297782897949,0.20160962641239,-1.02088093757629,0.33513662219048
620,1524040337,-1.98456180095673,0.03249916806817,-26.13369560241699,9.95772266387939,-1.15979766845703,9.76522541046143,1.40878283977509,-0.63992041349411,-0.22302314639091
621,1524048670,-1.98058092594147,0.02995347790420,-26.13928413391113,11.71915435791016,-0.67250615358353,9.70487499237061,1.80103909969330,-0.25484880805016,-0.74110943078995
622,1524057003,-1.97469496726990,0.03593565523624,-26.12155914306641,11.12310409545898,-0.71201568841934,9.77192115783691,2.02857041358948,0.80136692523956,1.92823946475983
623,1524065336,-1.97179710865021,0.03967100009322,-26.10528945922852,8.24888801574707,0.00334640918300,9.59532642364502,1.67504274845123,0.49704417586327,1.95072877407074
624,1524073669,-1.96962547302246,0.04815476015210,-26.12470626831055,3.95782804489136,-0.34887409210205,9.58768367767334,1.58673775196075,1.25459814071655,-2.51536917686462
625,1524082002,-1.96502542495728,0.05590804293752,-26.15849494934082,1.77163565158844,-0.62999606132507,9.44020366668701,1.88210856914520,1.26639354228973,-4.13348436355591
626,1524090335,-1.96603715419769,0.05740169808269,-26.12442016601562,-0.13104656338692,1.32444489002228,11.42246913909912,1.19913029670715,0.19597449898720,3.86946535110474
627,1524098668,-1.95152723789215,0.07148952782154,-26.19431114196777,-3.72175455093384,-0.34731537103653,8.39327335357666,3.07903623580933,2.19337272644043,-8.30568599700928
628,1524107001,-1.96066367626190,0.10732965916395,-26.20201683044434,-10.30452156066895,-1.73131465911865,10.42971515655518,0.22952915728092,4.48612833023071,-1.00109398365021
629,1524115334,-1.96733975410461,0.11128137260675,-26.20640182495117,-14.35441780090332,0.57725590467453,9.44630146026611,0.52281212806702,0.69768053293228,-0.60853016376495
630,1524123667,-1.97054886817932,0.09707753360271,-26.20738220214844,-11.66277599334717,-0.87347042560577,10.30591678619385,0.93918430805206,-1.54361617565155,-0.39960765838623
631,1524132000,-1.97480916976929,0.07661332190037,-26.18263626098633,-5.29851961135864,-0.20692469179630,9.62602424621582,0.80861574411392,-2.44911813735962,2.73442196846008
632,1524140333,-1.97373068332672,0.07162226736546,-26.16396141052246,-4.10041379928589,-0.45712324976921,10.42075634002686,1.45088005065918,-0.51820152997971,1.99523365497589
633,1524148666,-1.96912753582001,0.06485799700022,-26.16961479187012,-2.64390134811401,0.25337320566177,9.60649776458740,1.87803566455841,-0.74789720773697,-0.83403789997101
634,1524156999,-1.96977961063385,0.04617723450065,-26.14883041381836,1.43901395797729,-0.85886162519455,10.46323490142822,1.24341750144958,-2.16856503486633,2.19196391105652
635,1524165332,-1.97015547752380,0.03570986166596,-26.12113761901855,7.65265893936157,0.02115434035659,9.42793560028076,1.27592182159424,-1.35638892650604,3.16064286231995
636,1524173665,-1.97630095481873,0.03281057998538,-26.11963272094727,13.08380126953125,-1.16932535171509,9.27653598785400,0.58705264329910,-0.19626908004284,-0.05449428036809
637,1524181998,-1.97281992435455,0.03149877861142,-26.13084983825684,13.36636638641357,0.30301833152771,10.03271198272705,1.74292051792145,-0.06425330787897,-1.35218811035156
638,1524190331,-1.96968185901642,0.03621710464358,-26.12622642517090,6.52973365783691,-1.00905668735504,9.89846229553223,1.70032405853271,0.70408409833908,0.35106867551804
639,1524198664,-1.96910190582275,0.04182607680559,-26.13642692565918,2.80666112899780,0.65314126014709,9.75941562652588,1.39507937431335,0.87126827239990,-1.33028817176819
640,1524206997,-1.97166132926941,0.04530390352011,-26.15357017517090,3.20113635063171,-0.95373541116714,9.73135948181152,1.01967716217041,0.64366018772125,-2.26497721672058
641,1524215330,-1.97124934196472,0.05645282939076,-26.16635513305664,1.15090918540955,-0.74145817756653,9.75857734680176,1.37315356731415,1.58224260807037,-1.59793138504028
642,1524223663,-1.96848809719086,0.07208276540041,-26.19513702392578,-4.01523351669312,0.42687237262726,9.46799755096436,1.65949535369873,2.15008497238159,-3.61054444313049
643,1524231996,-1.96126902103424,0.07901039719582,-26.20019531250000,-8.55839824676514,-0.45711427927017,10.39686775207520,2.19557547569275,1.06188941001892,-0.78739446401596
644,1524240329,-1.95983016490936,0.08762314170599,-26.19607925415039,-9.55522823333740,-0.86170411109924,9.72109222412109,1.49628114700317,1.17351615428925,0.30591079592705
645,1524248662,-1.96783089637756,0.08054082095623,-26.17659759521484,-8.07928371429443,-0.80723929405212,10.07138729095459,0.36139124631882,-0.77048891782761,2.16993546485901
646,1524256995,-1.96005177497864,0.07241625338793,-26.17543601989746,-5.90461015701294,1.30606806278229,10.47235393524170,2.25833010673523,-0.82123070955276,-0.11730039119720
647,1524265328,-1.95457971096039,0.07465935498476,-26.18964385986328,-5.86666679382324,-0.77372914552689,9.60529518127441,1.98712682723999,0.42048332095146,-1.85466253757477
648,1524273661,-1.97322547435760,0.06732716411352,-26.16857528686523,-5.06445169448853,-0.64767163991928,9.82247066497803,-0.91682314872742,-0.80824434757233,2.27303290367126
649,1524281994,-1.97052180767059,0.05273419246078,-26.16271018981934,0.58296680450439,-0.05672464519739,9.65374374389648,1.64735376834869,-1.72543883323669,0.49840179085732
650,1524290327,-1.96914017200470,0.03947404772043,-26.15645790100098,7.63249254226685,-0.76291984319687,9.82899188995361,1.49031281471252,-1.45930695533752,0.47230085730553
651,1524298660,-1.97126471996307,0.03128203004599,-26.12733459472656,9.55646610260010,-0.08708422631025,9.87782573699951,1.06678175926208,-1.06720435619354,3.29788422584534
652,1524306993,-1.96795427799225,0.02988602593541,-26.13935661315918,9.21697998046875,-0.57128584384918,9.65993785858154,1.72314643859863,0.03872872516513,-1.67072689533234
653,1524315326,-1.97134649753571,0.03064420446754,-26.14065551757812,8.75301265716553,-0.50687193870544,9.88676643371582,0.91678470373154,0.19666609168053,-0.31314682960510
654,1524323659,-1.97162544727325,0.03556720167398,-26.14686965942383,8.03557205200195,-0.28000655770302,9.66020107269287,1.29149532318115,0.77311444282532,-0.94822609424591
655,1524331992,-1.96845066547394,0.04236652329564,-26.16051864624023,6.73761415481567,-1.08237659931183,9.63924980163574,1.70864892005920,1.03881096839905,-1.77520751953125
656,1524340325,-1.96642601490021,0.05535989254713,-26.16327667236328,2.40547919273376,-0.10012507438660,9.81035041809082,1.56728374958038,1.72611761093140,-0.50079667568207
657,1524348658,-1.95803809165955,0.06748500466347,-26.17491340637207,-5.02824211120605,0.24623197317123,9.77306365966797,2.33688926696777,1.72237813472748,-1.48871231079102
658,1524356991,-1.95526158809662,0.07569456100464,-26.18925857543945,-8.97272300720215,-0.00678554177284,10.10867309570312,1.66067337989807,1.20025753974915,-1.91060435771942
659,1524365324,-1.96050870418549,0.07939745485783,-26.18789863586426,-7.22540855407715,-0.59040969610214,10.06764888763428,0.69575947523117,0.64868050813675,0.03278622031212
660,1524373657,-1.96266424655914,0.08393913507462,-26.18935585021973,-7.00769042968750,0.41864901781082,9.95798873901367,1.06629502773285,0.70843845605850,-0.38053786754608
661,1524381990,-1.96012663841248,0.07965203374624,-26.20957565307617,-8.34612751007080,-1.00785100460052,9.83211040496826,1.63376545906067,-0.28357520699501,-2.47290086746216
662,1524390323,-1.96575605869293,0.07183266431093,-26.19739151000977,-7.69184684753418,0.00731757283211,10.25186920166016,0.64552998542786,-0.83063119649887,1.20494472980499
663,1524398656,-1.96422600746155,0.06704392284155,-26.19853591918945,-5.44493007659912,-0.25851804018021,10.04059600830078,1.50862717628479,-0.47564348578453,-0.24547404050827
664,1524406989,-1.97040760517120,0.05341924354434,-26.18212318420410,0.05073602125049,-1.32958531379700,9.52528476715088,0.58080273866653,-1.54588294029236,1.68918192386627
665,1524415322,-1.97256422042847,0.04400406032801,-26.15610694885254,6.16490602493286,-0.34699630737305,9.50948238372803,1.06227362155914,-1.18584942817688,2.91323518753052
666,1524423655,-1.96710646152496,0.04152923449874,-26.15463447570801,7.76293992996216,-0.38232114911079,9.85537815093994,1.97995471954346,-0.14680798351765,-0.05644096061587
667,1524431988,-1.96831071376801,0.03496958315372,-26.13104820251465,7.10785150527954,-0.54099446535110,9.84453487396240,1.18053448200226,-0.80960202217102,2.60740113258362
668,1524440321,-1.96644282341003,0.02944550663233,-26.13617324829102,8.94044876098633,0.41641682386398,9.78788089752197,1.54907214641571,-0.48468539118767,-0.86095845699310
669,1524448654,-1.96822834014893,0.02883631177247,-26.13166236877441,9.84898567199707,-0.95074146986008,10.13516235351562,1.11337387561798,0.03373394533992,0.46587169170380
670,1524456987,-1.96616959571838,0.03562546521425,-26.14279937744141,8.22809028625488,0.37725594639778,9.65688323974609,1.57262432575226,1.01628315448761,-1.53150081634521
671,1524465320,-1.96154010295868,0.04637469351292,-26.17123985290527,4.30879354476929,-0.70608884096146,9.50942325592041,1.88477241992950,1.59773921966553,-3.48098754882812
672,1524473653,-1.96457719802856,0.05900473892689,-26.17039871215820,-0.84149640798569,-0.58145236968994,10.00054073333740,0.95986783504486,1.66838300228119,-0.07193757593632
673,1524481986,-1.96489667892456,0.06494943052530,-26.17526626586914,-4.31901645660400,0.32890585064888,9.62358283996582,1.28775572776794,0.96875613927841,-0.70238077640533
674,1524490319,-1.96494507789612,0.06938602030277,-26.20112419128418,-5.47748470306396,-0.60427320003510,9.99012088775635,1.32282149791718,0.79583424329758,-3.30642628669739
675,1524498652,-1.96823275089264,0.07438758760691,-26.21242141723633,-6.56141853332520,-0.40646281838417,10.31054973602295,0.93176895380020,0.86435234546661,-1.48858404159546
676,1524506985,-1.96644067764282,0.07416243106127,-26.21166801452637,-8.50729846954346,-0.30372402071953,10.02146244049072,1.53908252716064,0.12686729431152,-0.13430823385715
677,1524515318,-1.96774315834045,0.07202050089836,-26.20335578918457,-7.21583843231201,-0.83480125665665,9.85695362091064,1.16844451427460,-0.11320211738348,0.75423669815063
678,1524523651,-1.97084748744965,0.06259491294622,-26.17880058288574,-2.85097575187683,-0.34581699967384,9.92211723327637,0.94898188114166,-1.07499110698700,2.68375706672668
679,1524531984,-1.96885836124420,0.05505554378033,-26.15902328491211,1.18287634849548,-0.00942692533135,9.68421077728271,1.56349301338196,-0.86362230777740,2.17185664176941
680,1524540317,-1.96557664871216,0.04636324942112,-26.15988349914551,4.64928531646729,-0.22702227532864,9.85602378845215,1.71781861782074,-0.88255119323730,-0.36255666613579
681,1524548650,-1.96939241886139,0.04418308660388,-26.14338684082031,5.12937593460083,-0.60000246763229,9.69342613220215,0.86737489700317,-0.21261094510555,1.83938407897949
682,1524556983,-1.97495305538177,0.04199899733067,-26.13984489440918,5.24075222015381,-0.41460737586021,9.82032394409180,0.65699225664139,-0.11982338130474,0.19355396926403
683,1524565316,-1.97320282459259,0.03913122788072,-26.15949440002441,7.13385343551636,0.27552697062492,9.71254539489746,1.53844213485718,-0.11267703026533,-2.52763843536377
684,1524573649,-1.97830140590668,0.03782007098198,-26.15753555297852,7.21676063537598,-1.82026290893555,9.83534622192383,0.71146094799042,-0.00987428799272,0.00599373085424
685,1524581982,-1.97949576377869,0.05047758296132,-26.15874671936035,3.99183082580566,0.79225516319275,9.45409297943115,1.18235313892365,1.71461701393127,-0.23118127882481
686,1524590315,-1.96656155586243,0.05494746565819,-26.18190574645996,0.28721138834953,-0.55481874942780,10.05940532684326,2.87809228897095,0.78835493326187,-2.98284173011780
687,1524598648,-1.96866333484650,0.06477870047092,-26.17766380310059,-2.64560389518738,-0.37375199794769,9.74162483215332,1.07438910007477,1.39341425895691,0.33946543931961
688,1524606981,-1.96662580966949,0.07252428680658,-26.19495391845703,-5.39507484436035,0.18828418850899,10.01210117340088,1.57074177265167,1.15645706653595,-2.26487469673157
689,1524615314,-1.97179770469666,0.07390668988228,-26.21023941040039,-6.27136325836182,-1.26300120353699,9.83392906188965,0.70884829759598,0.44978594779968,-1.97317981719971
690,1524623647,-1.97583734989166,0.07851822674274,-26.20581817626953,-6.93796443939209,-0.01683063991368,9.90826797485352,0.83891743421555,0.69194293022156,0.32688882946968
