sep=,
DeviceTag:,Xsens DOT
FirmwareVersion:,3.0.0
AppVersion:,2023.6.0
StartTime: ,2025-03-06_12:43:39_000 PST
© Movella Technologies B. V. 2005-2025

PacketCounter,SampleTimeFine,Euler_X,Euler_Y,Euler_Z,Acc_X,Acc_Y,Acc_Z,Gyr_X,Gyr_Y,Gyr_Z
0,2042652963,3.23363161087036,0.35730075836182,15.68623352050781,0.00000000000000,0.00000000000000,0.00000000000000,0.00000000000000,0.00000000000000,0.00000000000000
1,2042661296,3.23369240760803,0.35734286904335,15.68600273132324,-0.07751535624266,0.54182785749435,9.83573818206787,1.29923081398010,0.08014693856239,-0.36417034268379
2,2042669629,3.23344469070435,0.35712078213692,15.68664932250977,-0.06340995430946,0.56166267395020,9.87193202972412,1.26119375228882,0.05522428825498,-0.24921369552612
3,2042677962,3.23285460472107,0.35739946365356,15.68591880798340,-0.08312318474054,0.54812949895859,9.88768959045410,1.22138917446136,0.10465975850821,-0.45212966203690
4,2042686295,3.23281812667847,0.35735049843788,15.68620204925537,-0.07406768947840,0.56224924325943,9.84206867218018,1.28670549392700,0.07407636940479,-0.29424354434013
5,2042694628,3.23320794105530,0.35752913355827,15.68547534942627,-0.06271612644196,0.55830085277557,9.85141754150391,1.33862543106079,0.09446528553963,-0.40594717860222
6,2042702961,3.23281812667847,0.35776135325432,15.68613052368164,-0.04893975332379,0.56248527765274,9.88046550750732,1.24362230300903,0.10852751135826,-0.25154459476471
7,2042711294,3.23335790634155,0.35840392112732,15.68575477600098,-0.05952595919371,0.55692750215530,9.85658168792725,1.35601758956909,0.15657980740070,-0.32682481408119
8,2042719627,3.23358821868896,0.35874417424202,15.68551445007324,-0.04387538135052,0.53661352396011,9.82634830474854,1.31951737403870,0.11575072258711,-0.35825350880623
9,2042727960,3.23303055763245,0.35839116573334,15.68547153472900,-0.04124329239130,0.55515360832214,9.85003662109375,1.22423231601715,0.03614168241620,-0.32526236772537
10,2042736293,3.23299360275269,0.35877186059952,15.68474960327148,-0.05429723113775,0.54700648784637,9.86531543731689,1.28721773624420,0.11654476076365,-0.41747361421585
11,2042744626,3.23312282562256,0.35910895466805,15.68500328063965,-0.03080729395151,0.57472378015518,9.83666801452637,1.30660760402679,0.11959285289049,-0.31811594963074
12,2042752959,3.23274970054626,0.35893848538399,15.68460273742676,-0.03859674185514,0.53655618429184,9.81138324737549,1.24677276611328,0.05317515134811,-0.37433922290802
13,2042761292,3.23363518714905,0.35923731327057,15.68482971191406,-0.04107162356377,0.55216372013092,9.86939239501953,1.39710283279419,0.11667283624411,-0.27884936332703
14,2042769625,3.23449778556824,0.35905745625496,15.68566608428955,-0.05840307101607,0.56004607677460,9.84618759155273,1.39420843124390,0.06175591796637,-0.22739039361477
15,2042777958,3.23478841781616,0.35899382829666,15.68543720245361,-0.03912620246410,0.56270694732666,9.86262512207031,1.32586967945099,0.07059282809496,-0.33484208583832
16,2042786291,3.23506665229797,0.35911265015602,15.68460750579834,-0.07430373132229,0.57457357645035,9.85374927520752,1.32533180713654,0.08608944714069,-0.42887192964554
17,2042794624,3.23439025878906,0.35946732759476,15.68424224853516,-0.07543420046568,0.55835795402527,9.87210941314697,1.20991396903992,0.11662161350250,-0.39016878604889
18,2042802957,3.23456716537476,0.35863426327705,15.68452548980713,-0.09579074382782,0.56743508577347,9.83861541748047,1.31206345558167,-0.02137507870793,-0.28814730048180
19,2042811290,3.23512244224548,0.35876077413559,15.68436145782471,-0.08413872867823,0.52402448654175,9.85063934326172,1.35873270034790,0.09151966124773,-0.35715204477310
20,2042819623,3.23519921302795,0.35861951112747,15.68552494049072,-0.08428195118904,0.57357215881348,9.82423686981201,1.29971742630005,0.06890229135752,-0.18845674395561
21,2042827956,3.23529171943665,0.35755798220634,15.68575668334961,-0.04739473760128,0.54760020971298,9.87207508087158,1.30202269554138,-0.04809072241187,-0.29311648011208
22,2042836289,3.23538017272949,0.35741552710533,15.68649291992188,-0.05398965999484,0.57468086481094,9.85641765594482,1.30099809169769,0.06441979110241,-0.23853257298470
23,2042844622,3.23574137687683,0.35772442817688,15.68574523925781,-0.04359674826264,0.55915910005569,9.83441352844238,1.33542382717133,0.11178053170443,-0.38420075178146
24,2042852955,3.23596668243408,0.35754102468491,15.68575477600098,-0.04109308123589,0.54164189100266,9.84046649932861,1.31823670864105,0.05617201700807,-0.32528796792030
25,2042861288,3.23599863052368,0.35740044713020,15.68528747558594,-0.02482036501169,0.56991708278656,9.88041496276855,1.29518377780914,0.06278049200773,-0.28940242528915
26,2042869621,3.23540854454041,0.35792028903961,15.68539428710938,-0.02417660877109,0.53848034143448,9.86486434936523,1.22031354904175,0.14077584445477,-0.31990897655487
27,2042877954,3.23569512367249,0.35834759473801,15.68537044525146,-0.02602204307914,0.58651882410049,9.86930656433105,1.32571601867676,0.12909574806690,-0.31196859478951
28,2042886287,3.23570823669434,0.35850277543068,15.68516063690186,-0.04635042324662,0.53662770986557,9.86502170562744,1.29298090934753,0.09451652318239,-0.35346361994743
29,2042894620,3.23610997200012,0.35881474614143,15.68606281280518,-0.03669420257211,0.54830110073090,9.85401248931885,1.33859992027283,0.11859390884638,-0.26896226406097
30,2042902953,3.23697662353516,0.35963153839111,15.68617153167725,-0.07407469302416,0.55188482999802,9.84129714965820,1.39546346664429,0.17561118304729,-0.32013952732086
31,2042911286,3.23683309555054,0.35975363850594,15.68655967712402,-0.09857332706451,0.57595407962799,9.85274791717529,1.27305316925049,0.09671935439110,-0.25799939036369
32,2042919619,3.23733830451965,0.36049798130989,15.68692779541016,-0.07566276937723,0.56131219863892,9.86564445495605,1.35158646106720,0.16897711157799,-0.28935122489929
33,2042927952,3.23796629905701,0.36089485883713,15.68773269653320,-0.09620583057404,0.55421650409698,9.85424137115479,1.36621201038361,0.13355261087418,-0.18689423799515
34,2042936285,3.23813033103943,0.36066550016403,15.68810844421387,-0.09416002780199,0.56375849246979,9.84608840942383,1.31070601940155,0.05281655117869,-0.28077045083046
35,2042944618,3.23845958709717,0.36094981431961,15.68745231628418,-0.08776558190584,0.56737774610519,9.86321163177490,1.33140242099762,0.10540258884430,-0.44319033622742
36,2042952951,3.23890566825867,0.36117234826088,15.68758010864258,-0.07730077207088,0.55443829298019,9.82498073577881,1.34426069259644,0.10366079956293,-0.31555458903313
37,2042961284,3.23926210403442,0.36102354526520,15.68834018707275,-0.06580615788698,0.55123382806778,9.86206054687500,1.33398938179016,0.05975800752640,-0.33148661255836
38,2042969617,3.23919010162354,0.36110258102417,15.68848705291748,-0.05423987284303,0.55758565664291,9.84483814239502,1.28250479698181,0.08875331282616,-0.31130260229111
39,2042977950,3.23898220062256,0.36086004972458,15.68827533721924,-0.03679422289133,0.55944532155991,9.86301231384277,1.26670074462891,0.04679720848799,-0.35761311650276
40,2042986283,3.23834848403931,0.36144849658012,15.68802928924561,-0.04281691834331,0.56241375207901,9.83194732666016,1.21549785137177,0.14610359072685,-0.36130157113075
41,2042994616,3.23780798912048,0.36189609766006,15.68824958801270,-0.00770361209288,0.57113307714462,9.84622478485107,1.22607648372650,0.13109365105629,-0.33000099658966
42,2043002949,3.23746848106384,0.36190015077591,15.68919372558594,-0.04831030219793,0.55214941501617,9.85568046569824,1.24969279766083,0.08401469141245,-0.21609449386597
43,2043011282,3.23816657066345,0.36192297935486,15.68927097320557,-0.05269499495625,0.57449489831924,9.82294178009033,1.37512576580048,0.08024939149618,-0.33484208583832
44,2043019615,3.23720622062683,0.36183604598045,15.68972873687744,-0.05500514805317,0.57344347238541,9.86600303649902,1.17589831352234,0.06995247304440,-0.27362406253815
45,2043027948,3.23619627952576,0.36159294843674,15.68972682952881,-0.06265890598297,0.56249958276749,9.87023639678955,1.16936671733856,0.05110039934516,-0.28281956911087
46,2043036281,3.23574209213257,0.36175033450127,15.68920421600342,-0.08561953157187,0.55690604448318,9.85108852386475,1.23737239837646,0.09262106567621,-0.39173126220703
47,2043044614,3.23634195327759,0.36199459433556,15.68912029266357,-0.07129238545895,0.54828685522079,9.87523651123047,1.36306142807007,0.10699065029621,-0.32726025581360
48,2043052947,3.23557472229004,0.36259263753891,15.68939876556396,-0.10511102527380,0.56805020570755,9.85166740417480,1.19877171516418,0.15002256631851,-0.29849547147751
49,2043061280,3.23587322235107,0.36242479085922,15.68902683258057,-0.08976116776466,0.56411606073380,9.84978580474854,1.32743203639984,0.05883589759469,-0.31570824980736
50,2043069613,3.23552489280701,0.36262682080269,15.69015693664551,-0.06701498478651,0.56043952703476,9.83211898803711,1.24856591224670,0.10980822145939,-0.19355396926403
51,2043077946,3.23514866828918,0.36317247152328,15.69012928009033,-0.04959781467915,0.56229931116104,9.85029411315918,1.24610698223114,0.14098076522350,-0.35704967379570
52,2043086279,3.23501372337341,0.36344438791275,15.68998336791992,-0.04528464749455,0.56664109230042,9.83848476409912,1.27533268928528,0.10847628116608,-0.34787970781326
53,2043094612,3.23546028137207,0.36318302154541,15.69013690948486,-0.03236661478877,0.55558276176453,9.86984348297119,1.34413254261017,0.04769370332360,-0.30920222401619
54,2043102945,3.23621869087219,0.36297979950905,15.69049167633057,-0.03301050513983,0.52591985464096,9.85574340820312,1.38247704505920,0.05583903193474,-0.28394660353661
55,2043111278,3.23674440383911,0.36238425970078,15.69125366210938,-0.03949799761176,0.57096135616302,9.84396457672119,1.35425007343292,0.00701830117032,-0.32116407155991
56,2043119611,3.23605895042419,0.36197331547737,15.69156074523926,-0.03469844162464,0.55854403972626,9.85834121704102,1.20850527286530,0.02953321114182,-0.28940245509148
57,2043127944,3.23569583892822,0.36220362782478,15.69194698333740,-0.05885359272361,0.55006790161133,9.87558650970459,1.24813044071198,0.10468537360430,-0.35845836997032
58,2043136277,3.23519921302795,0.36149707436562,15.69253444671631,-0.04585687443614,0.55482459068298,9.84374237060547,1.23102009296417,-0.00372687121853,-0.25420847535133
59,2043144610,3.23586225509644,0.36058965325356,15.69299507141113,-0.04630734398961,0.55406641960144,9.84407997131348,1.37082266807556,-0.03272218629718,-0.33830001950264
60,2043152943,3.23547387123108,0.36091807484627,15.69370174407959,-0.06903208792210,0.55982440710068,9.85114574432373,1.24380171298981,0.12243603914976,-0.24644736945629
61,2043161276,3.23634290695190,0.36077019572258,15.69355487823486,-0.09137024730444,0.55679881572723,9.84743499755859,1.39566850662231,0.05870782956481,-0.35095345973969
62,2043169609,3.23685884475708,0.36108878254890,15.69343185424805,-0.09907402843237,0.57129758596420,9.84279823303223,1.35348176956177,0.11395773291588,-0.34536954760551
63,2043177942,3.23650574684143,0.36055785417557,15.69290924072266,-0.09101992845535,0.55355852842331,9.87595844268799,1.24959051609039,0.01180816162378,-0.38865759968758
64,2043186275,3.23659634590149,0.36115354299545,15.69338130950928,-0.08210021257401,0.58017432689667,9.85093212127686,1.30133104324341,0.15114960074425,-0.27559635043144
65,2043194608,3.23669743537903,0.36188158392906,15.69288921356201,-0.07536967098713,0.55804330110550,9.88095760345459,1.30417442321777,0.16280406713486,-0.37633717060089
66,2043202941,3.23708009719849,0.36280557513237,15.69333839416504,-0.07049115002155,0.55274313688278,9.85983085632324,1.33652508258820,0.19008323550224,-0.27992513775826
67,2043211274,3.23786091804504,0.36285290122032,15.69345283508301,-0.07534089684486,0.54997491836548,9.87440681457520,1.38498723506927,0.08496241271496,-0.32108721137047
68,2043219607,3.23806142807007,0.36274349689484,15.69418048858643,-0.05284509435296,0.56898725032806,9.86412906646729,1.31431746482849,0.06874860078096,-0.24029992520809
69,2043227940,3.23791360855103,0.36245611310005,15.69404983520508,-0.02757420949638,0.57389402389526,9.85276222229004,1.27410328388214,0.04267331957817,-0.34296181797981
70,2043236273,3.23825478553772,0.36293894052505,15.69429302215576,-0.05323159322143,0.53884506225586,9.81449317932129,1.33158159255981,0.13603720068932,-0.30413064360619
71,2043244606,3.23792982101440,0.36304941773415,15.69304943084717,-0.06062749773264,0.54868745803833,9.86081600189209,1.25245916843414,0.09005964547396,-0.34757235646248
72,2043252939,3.23768234252930,0.36388424038887,15.69343566894531,-0.03887570276856,0.54486781358719,9.84995841979980,1.26132166385651,0.18047787249088,-0.28727641701698
73,2043261272,3.23706126213074,0.36389404535294,15.69293212890625,-0.03419058769941,0.56963098049164,9.82581710815430,1.21608698368073,0.08014693856239,-0.31460684537888
74,2043269605,3.23672509193420,0.36417913436890,15.69278144836426,-0.04484832659364,0.57638323307037,9.85190391540527,1.25110161304474,0.10947523266077,-0.34813585877419
75,2043277938,3.23770785331726,0.36490541696548,15.69179248809814,-0.08525492995977,0.53875923156738,9.86152362823486,1.40983307361603,0.16047318279743,-0.41875433921814
76,2043286271,3.23837351799011,0.36446580290794,15.69250297546387,-0.08199303597212,0.57485252618790,9.83862113952637,1.37059211730957,0.02953321114182,-0.24119645357132
77,2043294604,3.23822522163391,0.36445993185043,15.69395828247070,-0.09883798658848,0.57307863235474,9.83120346069336,1.27297616004944,0.08224729448557,-0.22926020622253
78,2043302937,3.23836302757263,0.36454722285271,15.69468879699707,-0.07345969974995,0.57014596462250,9.85941410064697,1.30706882476807,0.09241615980864,-0.24099151790142
79,2043311270,3.23805046081543,0.36447545886040,15.69498920440674,-0.05885359272361,0.56242805719376,9.85696125030518,1.25327885150909,0.07230898737907,-0.26120114326477
80,2043319603,3.23781704902649,0.36363023519516,15.69534111022949,-0.07697889953852,0.56365835666656,9.83603191375732,1.26298666000366,-0.02170806564391,-0.27979710698128
81,2043327936,3.23764491081238,0.36358103156090,15.69547748565674,-0.06112117692828,0.55239254236221,9.86044311523438,1.27026116847992,0.07289811968803,-0.30669206380844
82,2043336269,3.23814058303833,0.36344623565674,15.69512271881104,-0.06406085938215,0.56498157978058,9.86583805084229,1.35086917877197,0.05832361802459,-0.37152168154716
83,2043344602,3.23807334899902,0.36321669816971,15.69472503662109,-0.03206631541252,0.56603300571442,9.85394096374512,1.28278636932373,0.05373866111040,-0.26816821098328
84,2043352935,3.23838663101196,0.36249354481697,15.69466114044189,-0.04223038628697,0.56235653162003,9.84304904937744,1.32917392253876,-0.00964375957847,-0.33030837774277
85,2043361268,3.23859667778015,0.36291489005089,15.69406032562256,-0.06251584738493,0.56817179918289,9.86824131011963,1.31664848327637,0.12443394958973,-0.40266856551170
86,2043369601,3.23830080032349,0.36294901371002,15.69352054595947,-0.04564212262630,0.56185585260391,9.85327720642090,1.25609660148621,0.07807219028473,-0.39288395643234
87,2043377934,3.23830914497375,0.36279514431953,15.69477462768555,-0.04137215390801,0.56583988666534,9.85476398468018,1.29185390472412,0.06349768489599,-0.25320953130722
88,2043386267,3.23892784118652,0.36241194605827,15.69409847259521,-0.03449816256762,0.54649150371552,9.83942890167236,1.36582791805267,0.02622897922993,-0.40656194090843
89,2043394600,3.23918414115906,0.36229541897774,15.69337749481201,-0.03853236511350,0.59153294563293,9.84549522399902,1.32228350639343,0.06380505859852,-0.35128641128540
90,2043402933,3.23895239830017,0.36192741990089,15.69368457794189,-0.07576291263103,0.56548947095871,9.84768390655518,1.26308894157410,0.03506588563323,-0.28899258375168
91,2043411266,3.23938488960266,0.36208868026733,15.69342517852783,-0.06780179589987,0.55626231431961,9.85321998596191,1.34356904029846,0.09121229499578,-0.43340566754341
92,2043419599,3.23851847648621,0.36258345842361,15.69371032714844,-0.07989725470543,0.56126213073730,9.84399318695068,1.18711757659912,0.13721546530724,-0.29849550127983
93,2043427932,3.23820328712463,0.36273866891861,15.69360637664795,-0.08076990395784,0.54887342453003,9.83151817321777,1.25302278995514,0.09761585295200,-0.33430421352386
94,2043436265,3.23751783370972,0.36327984929085,15.69389533996582,-0.07966836541891,0.57456642389297,9.86211109161377,1.20888948440552,0.14297866821289,-0.29744532704353
95,2043444598,3.23809170722961,0.36329984664917,15.69489765167236,-0.06080631911755,0.55395907163620,9.88212490081787,1.35968029499054,0.08526978641748,-0.24849647283554
96,2043452931,3.23836016654968,0.36357620358467,15.69525718688965,-0.05971205979586,0.56068265438080,9.84261798858643,1.32307767868042,0.11229281872511,-0.28694346547127
97,2043461264,3.23828959465027,0.36423930525780,15.69686412811279,-0.04328912124038,0.56545364856720,9.82210350036621,1.28260731697083,0.16014018654823,-0.27536585927010
98,2043469597,3.23852467536926,0.36472615599632,15.69705867767334,-0.03881834447384,0.57279258966446,9.83498859405518,1.31915867328644,0.13695931434631,-0.30830571055412
99,2043477930,3.23817014694214,0.36448585987091,15.69691848754883,-0.05785934627056,0.54858011007309,9.87240409851074,1.24884748458862,0.04940985515714,-0.33397120237350
100,2043486263,3.23838186264038,0.36417099833488,15.69729804992676,-0.05386090651155,0.54819387197495,9.86401367187500,1.31634116172791,0.04154628887773,-0.28005322813988
101,2043494596,3.23818898200989,0.36373507976532,15.69779682159424,-0.04231622070074,0.56688427925110,9.84220504760742,1.26800692081451,0.02827811427414,-0.28602135181427
102,2043502929,3.23792886734009,0.36303180456161,15.69714450836182,-0.05341742932796,0.55428808927536,9.89253234863281,1.26086056232452,-0.01194903999567,-0.40100359916687
103,2043511262,3.23778510093689,0.36307132244110,15.69699764251709,-0.06497626751661,0.55564004182816,9.84929466247559,1.27448749542236,0.08053115010262,-0.36465704441071
104,2043519595,3.23753476142883,0.36231589317322,15.69692230224609,-0.07365997880697,0.55318659543991,9.86185359954834,1.26155233383179,-0.01335782371461,-0.33207574486732
105,2043527928,3.23794865608215,0.36209109425545,15.69624137878418,-0.06208648532629,0.56646233797073,9.84748458862305,1.34075140953064,0.04546526446939,-0.40940511226654
106,2043536261,3.23787760734558,0.36170706152916,15.69623374938965,-0.07839515805244,0.54203528165817,9.84874248504639,1.28319633007050,0.03117252700031,-0.32731151580811
107,2043544594,3.23719668388367,0.36235499382019,15.69629096984863,-0.08122052997351,0.56637638807297,9.83769798278809,1.20911991596222,0.15650296211243,-0.32395604252815
108,2043552927,3.23710012435913,0.36190271377563,15.69660663604736,-0.07901745289564,0.54013979434967,9.84013748168945,1.27948224544525,0.02456405386329,-0.28927439451218
109,2043561260,3.23626971244812,0.36180362105370,15.69669342041016,-0.06657866388559,0.54486066102982,9.83090305328369,1.19142043590546,0.06600788235664,-0.31611806154251
110,2043569593,3.23644948005676,0.36171215772629,15.69667434692383,-0.07157835364342,0.55511075258255,9.86612510681152,1.31275510787964,0.06677629798651,-0.33051326870918
111,2043577926,3.23700523376465,0.36128601431847,15.69703865051270,-0.06396072357893,0.54263609647751,9.86031532287598,1.35811793804169,0.03027602843940,-0.28159007430077
112,2043586259,3.23720431327820,0.36132428050041,15.69708633422852,-0.06122132390738,0.57872927188873,9.85982036590576,1.31482994556427,0.08127396553755,-0.32244479656219
113,2043594592,3.23686575889587,0.36077868938446,15.69626712799072,-0.05988378822803,0.55163437128067,9.87054443359375,1.25130653381348,0.00681338645518,-0.42380028963089
114,2043602925,3.23663425445557,0.36139380931854,15.69531250000000,-0.04879650473595,0.55599772930145,9.86556720733643,1.26401138305664,0.14410568773746,-0.44603350758553
115,2043611258,3.23711729049683,0.36119234561920,15.69522857666016,-0.03560701012611,0.57712703943253,9.88151550292969,1.34943473339081,0.05386673286557,-0.33596912026405
116,2043619591,3.23716449737549,0.36080086231232,15.69589138031006,-0.04071386903524,0.54487502574921,9.87953662872314,1.29656708240509,0.03496342897415,-0.24660104513168
117,2043627924,3.23712301254272,0.36127582192421,15.69534492492676,-0.04669375717640,0.54636991024017,9.84993648529053,1.28619325160980,0.13099119067192,-0.39721274375916
118,2043636257,3.23709988594055,0.36105033755302,15.69568252563477,-0.05910393968225,0.55080467462540,9.86736869812012,1.28821671009064,0.05240671709180,-0.28737890720367
119,2043644590,3.23755717277527,0.36055099964142,15.69518089294434,-0.03198734670877,0.56058984994888,9.84828567504883,1.34648907184601,0.01567591167986,-0.36183947324753
120,2043652923,3.23720979690552,0.36155927181244,15.69521999359131,-0.06703644245863,0.53649896383286,9.86325550079346,1.24956476688385,0.19746012985706,-0.33156347274780
121,2043661256,3.23633503913879,0.36057785153389,15.69492435455322,-0.09069110453129,0.56699150800705,9.81607437133789,1.18604147434235,-0.03569343686104,-0.25636005401611
122,2043669589,3.23608016967773,0.36136838793755,15.69474029541016,-0.07773710042238,0.54247158765793,9.83784866333008,1.26098871231079,0.17100062966347,-0.35597380995750
123,2043677922,3.23659777641296,0.36122018098831,15.69445991516113,-0.09315862506628,0.56066131591797,9.86953544616699,1.35302066802979,0.05776010081172,-0.36053314805031
124,2043686255,3.23675942420959,0.36051061749458,15.69452857971191,-0.07672139257193,0.58001691102982,9.84142494201660,1.31098771095276,-0.00700549362227,-0.31581068038940
125,2043694588,3.23670959472656,0.36002114415169,15.69472312927246,-0.07589166611433,0.56084012985229,9.82189083099365,1.28491246700287,0.02064507268369,-0.30072391033173
126,2043702921,3.23661994934082,0.36067381501198,15.69350051879883,-0.07028363645077,0.56819331645966,9.82796478271484,1.28150594234467,0.14702571928501,-0.47861483693123
127,2043711254,3.23679256439209,0.36077409982681,15.69353294372559,-0.05280943959951,0.54539710283279,9.85535144805908,1.31180739402771,0.08931683748960,-0.32485252618790
128,2043719587,3.23697257041931,0.36034590005875,15.69471931457520,-0.04912564530969,0.57305008172989,9.84660530090332,1.31185865402222,0.03375956043601,-0.18312899768353
129,2043727920,3.23702359199524,0.35994318127632,15.69470977783203,-0.04270962625742,0.55091196298599,9.84521579742432,1.29738664627075,0.03112129680812,-0.32720905542374
130,2043736253,3.23762130737305,0.36042186617851,15.69463920593262,-0.04855349659920,0.55446690320969,9.84180450439453,1.36308693885803,0.13327085971832,-0.34032347798347
131,2043744586,3.23137950897217,0.35876235365868,15.69711208343506,-0.04918280988932,0.55496770143509,9.84066104888916,1.29615712165833,0.11946478486061,-0.32154828310013
132,2043752919,3.23098230361938,0.35927265882492,15.69738388061523,-0.02813928388059,0.54933118820190,9.85551643371582,1.24375033378601,0.14098073542118,-0.29908460378647
133,2043761252,3.23076558113098,0.35896456241608,15.69726562500000,-0.05314562469721,0.56350809335709,9.83495903015137,1.26543295383453,0.03910013288260,-0.34074619412422
134,2043769585,3.23093914985657,0.36000543832779,15.69789600372314,-0.05611405149102,0.53734302520752,9.83972263336182,1.31198680400848,0.20698863267899,-0.25953626632690
135,2043777918,3.23100256919861,0.35957539081573,15.69735240936279,-0.04870370775461,0.54674899578094,9.85840606689453,1.29920518398285,0.02210508286953,-0.39232042431831
136,2043786251,3.23009848594666,0.35881203413010,15.69727706909180,-0.07597749680281,0.57326459884644,9.84426498413086,1.18368506431580,-0.01358835119754,-0.33033397793770
137,2043794584,3.23001742362976,0.35872679948807,15.69596290588379,-0.07785154134035,0.55429524183273,9.83180427551270,1.28270971775055,0.05886151641607,-0.48570996522903
138,2043802917,3.23058557510376,0.35815304517746,15.69600677490234,-0.09076242148876,0.55301487445831,9.82499504089355,1.35991096496582,0.00753058446571,-0.31947353482246
139,2043811250,3.23133563995361,0.35855588316917,15.69611644744873,-0.08710005134344,0.55328679084778,9.85508823394775,1.38129889965057,0.13168278336525,-0.25482320785522
140,2043819583,3.23175668716431,0.35903432965279,15.69642734527588,-0.08195713907480,0.55528241395950,9.85276317596436,1.34175050258636,0.13685685396194,-0.29498630762100
141,2043827916,3.23157429695129,0.35886666178703,15.69585704803467,-0.07446109503508,0.56159114837646,9.87592315673828,1.27079904079437,0.05532675236464,-0.37741297483444
142,2043836249,3.23190665245056,0.35826489329338,15.69447040557861,-0.06496927142143,0.56240659952164,9.85050868988037,1.33224761486053,-0.00452091265470,-0.48996192216873
143,2043844582,3.23175716400146,0.35824474692345,15.69372558593750,-0.07124231755733,0.55083328485489,9.86552333831787,1.27369332313538,0.07786726951599,-0.28025814890862
144,2043852915,3.23214054107666,0.35767397284508,15.69329166412354,-0.05446174740791,0.55878722667694,9.85636043548584,1.33795952796936,0.00601934501901,-0.37784835696220
145,2043861248,3.23176407814026,0.35722246766090,15.69204044342041,-0.03331057727337,0.54172056913376,9.84518718719482,1.24733626842499,0.01329378783703,-0.49874755740166
146,2043869581,3.23132538795471,0.35730364918709,15.69263839721680,-0.01942712068558,0.56244236230850,9.85172462463379,1.23903727531433,0.09185263514519,-0.25723096728325
147,2043877914,3.23179006576538,0.35798913240433,15.69111347198486,-0.04851058125496,0.57141917943954,9.84990119934082,1.34715509414673,0.15891070663929,-0.35564085841179
148,2043886247,3.23203110694885,0.35874110460281,15.69159507751465,-0.04951913282275,0.55793607234955,9.85238265991211,1.32008075714111,0.16948938369751,-0.27521210908890
149,2043894580,3.23197603225708,0.35937017202377,15.69022560119629,-0.05755177512765,0.53961044549942,9.85147476196289,1.28521990776062,0.15153379738331,-0.36975425481796
150,2043902913,3.23189330101013,0.35967811942101,15.69000720977783,-0.06590645015240,0.53872346878052,9.86510658264160,1.28191542625427,0.11331737786531,-0.35733139514923
151,2043911246,3.23217177391052,0.35928377509117,15.68995189666748,-0.07853821665049,0.55243551731110,9.85316276550293,1.32497298717499,0.02948198467493,-0.32669672369957
152,2043919579,3.23267650604248,0.35927033424377,15.69119167327881,-0.09137748926878,0.55224961042404,9.84484481811523,1.35133016109467,0.08555154502392,-0.17990157008171
153,2043927912,3.23353409767151,0.35929501056671,15.69092559814453,-0.08298728615046,0.55943816900253,9.87305450439453,1.39436209201813,0.07937851548195,-0.34603554010391
154,2043936245,3.23373246192932,0.35881194472313,15.68989372253418,-0.08512598276138,0.54164904356003,9.87247562408447,1.31664848327637,0.01206430420280,-0.44949135184288
155,2043944578,3.23353719711304,0.35869240760803,15.68961429595947,-0.07085606455803,0.55655556917191,9.84799098968506,1.26731562614441,0.06764720380306,-0.25689795613289
156,2043952911,3.23330116271973,0.35860720276833,15.68938827514648,-0.08042656630278,0.56165552139282,9.85688209533691,1.26393437385559,0.06649455428123,-0.35594820976257
157,2043961244,3.23364806175232,0.35817676782608,15.68906211853027,-0.08067691326141,0.56860095262527,9.86260414123535,1.33314406871796,0.02341140992939,-0.35459065437317
158,2043969577,3.23263120651245,0.35808858275414,15.68844985961914,-0.03228078037500,0.57201999425888,9.85698223114014,1.17008388042450,0.06198645383120,-0.40067067742348
159,2043977910,3.23219561576843,0.35785961151123,15.68857097625732,-0.04821757972240,0.56547510623932,9.84884166717529,1.23901164531708,0.05171514302492,-0.31639981269836
160,2043986243,3.23256325721741,0.35791131854057,15.68740272521973,-0.03161556646228,0.55219233036041,9.84049510955811,1.33713996410370,0.07604866474867,-0.46801054477692
161,2043994576,3.23240351676941,0.35821402072906,15.68758010864258,-0.04693695530295,0.52970379590988,9.83223342895508,1.27190053462982,0.11280509829521,-0.34139937162399
162,2044002909,3.23237228393555,0.35771784186363,15.68822097778320,-0.02414799854159,0.55107647180557,9.86372756958008,1.28788387775421,0.02320649847388,-0.24929057061672
163,2044011242,3.23214197158813,0.35840088129044,15.68768501281738,-0.04037041589618,0.55998903512955,9.83054637908936,1.26298666000366,0.16331635415554,-0.27331668138504
164,2044019575,3.23218488693237,0.35751974582672,15.68716239929199,-0.07014095038176,0.56426626443863,9.84549331665039,1.29728424549103,-0.03223551437259,-0.38455930352211
165,2044027908,3.23156166076660,0.35775539278984,15.68713855743408,-0.05889650806785,0.55618363618851,9.84518718719482,1.21647119522095,0.10366079956293,-0.35794609785080
166,2044036241,3.23126125335693,0.35812166333199,15.68757724761963,-0.07510507851839,0.56637632846832,9.88219451904297,1.25591731071472,0.12433151155710,-0.27856761217117
167,2044044574,3.23135232925415,0.35763794183731,15.68738746643066,-0.08652079105377,0.53498971462250,9.84552383422852,1.30202281475067,0.01923629082739,-0.33550804853439
168,2044052907,3.23096823692322,0.35828754305840,15.68709373474121,-0.07863835245371,0.53316575288773,9.85403537750244,1.24605560302734,0.15340365469456,-0.36757707595825
169,2044061240,3.23140621185303,0.35877969861031,15.68936157226562,-0.05586358904839,0.56606173515320,9.86898612976074,1.34374833106995,0.14087828993797,-0.25899830460548
170,2044069573,3.23125123977661,0.35845082998276,15.68986988067627,-0.07094166427851,0.55646264553070,9.85857200622559,1.27315545082092,0.04203295707703,-0.26514571905136
171,2044077906,3.23134279251099,0.35842591524124,15.68955802917480,-0.08119907230139,0.55455273389816,9.85809135437012,1.30235576629639,0.07310302555561,-0.35843276977539
172,2044086239,3.23153042793274,0.35844349861145,15.68977832794189,-0.04826724901795,0.54698514938354,9.85149002075195,1.31395888328552,0.08027501404285,-0.30287551879883
173,2044094572,3.23188495635986,0.35828340053558,15.68974208831787,-0.02826103381813,0.53827279806137,9.84850502014160,1.33396387100220,0.05799063295126,-0.33299785852432
174,2044102905,3.23220300674438,0.35842648148537,15.69047260284424,-0.04685101285577,0.56185591220856,9.84782791137695,1.32981419563293,0.10081762075424,-0.24181114137173
175,2044111238,3.23196315765381,0.35839477181435,15.69024276733398,-0.05713690817356,0.57257795333862,9.82930088043213,1.26238465309143,0.07665059715509,-0.27796566486359
176,2044119571,3.23167705535889,0.35761296749115,15.69032573699951,-0.02986311912537,0.56164836883545,9.85608100891113,1.25717234611511,-0.01540696248412,-0.31347987055779
177,2044127904,3.23170423507690,0.35741350054741,15.69114589691162,-0.05486960709095,0.55131959915161,9.84080123901367,1.29477405548096,0.05273970589042,-0.33499577641487
178,2044136237,3.23213577270508,0.35750314593315,15.69062995910645,-0.03373978659511,0.53750759363174,9.86776256561279,1.34392774105072,0.08519294112921,-0.39050182700157
179,2044144570,3.23253536224365,0.35756263136864,15.69073772430420,-0.06609942018986,0.56432354450226,9.85812664031982,1.33926582336426,0.08752383291721,-0.28581643104553
180,2044152903,3.23269128799438,0.35768949985504,15.69138336181641,-0.07875280082226,0.55274307727814,9.83970832824707,1.30991196632385,0.09566916525364,-0.25121161341667
181,2044161236,3.23289942741394,0.35761848092079,15.69144439697266,-0.09428147226572,0.56266415119171,9.85406494140625,1.31723749637604,0.07010614871979,-0.32695287466049
182,2044169569,3.23292708396912,0.35713562369347,15.69112396240234,-0.07210065424442,0.53734302520752,9.87746810913086,1.29541432857513,0.01662363857031,-0.36353003978729
183,2044177902,3.23257231712341,0.35726401209831,15.69169044494629,-0.07471144199371,0.55641967058182,9.84697532653809,1.24833559989929,0.09533619135618,-0.29398739337921
184,2044186235,3.23192167282104,0.35633787512779,15.69042682647705,-0.08625613152981,0.55634099245071,9.83442211151123,1.21457576751709,-0.04163593798876,-0.47390174865723
185,2044194568,3.23232531547546,0.35606428980827,15.69062137603760,-0.07059140503407,0.55455988645554,9.82969474792480,1.33977806568146,0.04782177507877,-0.28612381219864
186,2044202901,3.23260140419006,0.35607713460922,15.69091510772705,-0.05424728989601,0.55306488275528,9.87401962280273,1.32492184638977,0.08099221438169,-0.29262983798981
187,2044211234,3.23220443725586,0.35671785473824,15.69139003753662,-0.05818837881088,0.56568259000778,9.84347820281982,1.24316132068634,0.15711770951748,-0.27961778640747
188,2044219567,3.23160481452942,0.35656461119652,15.69079589843750,-0.02658711746335,0.57684814929962,9.84324169158936,1.22036457061768,0.05473760887980,-0.39731517434120
189,2044227900,3.23147988319397,0.35620179772377,15.69065189361572,-0.01894788071513,0.54232138395309,9.86927795410156,1.27615249156952,0.03739678487182,-0.29578039050102
190,2044236233,3.23138165473938,0.35615459084511,15.69146156311035,-0.04948356747627,0.55409491062164,9.88044261932373,1.27935409545898,0.07589498162270,-0.23200093209743
191,2044244566,3.23084425926208,0.35580530762672,15.69213771820068,-0.03778152540326,0.55135536193848,9.81933593750000,1.22612774372101,0.04123891517520,-0.25113475322723
192,2044252899,3.23072457313538,0.35609596967697,15.69164276123047,-0.05857463181019,0.56323629617691,9.83287048339844,1.27794539928436,0.10793839395046,-0.38965657353401
193,2044261232,3.23093318939209,0.35549575090408,15.69112014770508,-0.06125694885850,0.55867278575897,9.86617374420166,1.31659722328186,0.00379090709612,-0.37487715482712
194,2044269565,3.23015689849854,0.35607093572617,15.69083976745605,-0.04961927235126,0.57221311330795,9.88080120086670,1.19905352592468,0.14443866908550,-0.36685988306999
195,2044277898,3.22942900657654,0.35630649328232,15.69060420989990,-0.07496179640293,0.57210582494736,9.86382007598877,1.20399713516235,0.10389134287834,-0.35523098707199
196,2044286231,3.22879028320312,0.35577741265297,15.69118118286133,-0.07092043757439,0.55698472261429,9.86324119567871,1.21526730060577,0.01782750710845,-0.25482317805290
197,2044294564,3.22851681709290,0.35597458481789,15.69130134582520,-0.06188666447997,0.57506704330444,9.86553573608398,1.25806891918182,0.10225202888250,-0.31442758440971
198,2044302897,3.22839355468750,0.35599786043167,15.69180011749268,-0.09955326467752,0.55667001008987,9.86699676513672,1.27653670310974,0.08424521982670,-0.26885983347893
199,2044311230,3.22902202606201,0.35612386465073,15.69076824188232,-0.07126355171204,0.56858670711517,9.85389328002930,1.36764633655548,0.08457820117474,-0.48109936714172
200,2044319563,3.22876977920532,0.35633093118668,15.69048118591309,-0.09853041172028,0.53539746999741,9.85621738433838,1.26162922382355,0.09992113709450,-0.36368373036385
201,2044327896,3.22772192955017,0.35642194747925,15.69051074981689,-0.05476241931319,0.54170620441437,9.85483551025391,1.16580629348755,0.08888139575720,-0.32067739963531
202,2044336229,3.22861218452454,0.35636818408966,15.69081401824951,-0.06684331595898,0.55802905559540,9.87147426605225,1.39840936660767,0.07353848218918,-0.29024770855904
203,2044344562,3.22925758361816,0.35596731305122,15.68927574157715,-0.05048491805792,0.57088261842728,9.85217475891113,1.36851727962494,0.02973812632263,-0.32185563445091
204,2044352895,3.22877311706543,0.35589495301247,15.68954944610596,-0.04494131356478,0.55626231431961,9.84734725952148,1.23345339298248,0.07000370323658,-0.29601091146469
205,2044361228,3.22851419448853,0.35633850097656,15.69005107879639,-0.03944077715278,0.56158399581909,9.85636043548584,1.26063024997711,0.12960803508759,-0.37003606557846
206,2044369561,3.22842001914978,0.35657215118408,15.68982791900635,-0.05602836981416,0.53907394409180,9.88173675537109,1.28017389774323,0.10238010436296,-0.35648608207703
207,2044377894,3.22879457473755,0.35755142569542,15.69031620025635,-0.04519153013825,0.56003189086914,9.86590290069580,1.33621776103973,0.19779312610626,-0.28919750452042
208,2044386227,3.22817134857178,0.35652074217796,15.69085407257080,-0.04469811543822,0.54369473457336,9.85549449920654,1.21698343753815,-0.04196892306209,-0.25753831863403
209,2044394560,3.22773861885071,0.35645624995232,15.69007015228271,-0.06766589730978,0.56540364027023,9.82242679595947,1.24003636837006,0.06546998769045,-0.40640828013420
210,2044402893,3.22779130935669,0.35729953646660,15.68958187103271,-0.06592757999897,0.54762172698975,9.87998008728027,1.29823184013367,0.17509891092777,-0.39157760143280
211,2044411226,3.22821068763733,0.35743770003319,15.68878746032715,-0.08430340886116,0.54264324903488,9.83741188049316,1.34280073642731,0.09175018966198,-0.38975897431374
212,2044419559,3.22790527343750,0.35695847868919,15.68806362152100,-0.07144974917173,0.54515391588211,9.86437129974365,1.25540494918823,0.01526608318090,-0.41188967227936
213,2044427892,3.22834110260010,0.35704773664474,15.68792724609375,-0.08837337791920,0.55224955081940,9.85677528381348,1.34372282028198,0.08929122239351,-0.30410501360893
214,2044436225,3.22874283790588,0.35726597905159,15.68789672851562,-0.08976817876101,0.54872322082520,9.85515117645264,1.34000861644745,0.10360956937075,-0.33228063583374
215,2044444558,3.22923350334167,0.35756760835648,15.68717765808105,-0.07879555970430,0.55834382772446,9.84257793426514,1.35053610801697,0.11390649527311,-0.34160423278809
216,2044452891,3.22927260398865,0.35783240199089,15.68662452697754,-0.05416115373373,0.53742891550064,9.83574676513672,1.29649019241333,0.10407064110041,-0.39616256952286
217,2044461224,3.22925353050232,0.35753211379051,15.68604850769043,-0.07674285024405,0.55442398786545,9.87259006500244,1.29021453857422,0.03749924153090,-0.41844692826271
218,2044469557,3.22868180274963,0.35778054594994,15.68611049652100,-0.04760932177305,0.55378741025925,9.88413429260254,1.22290027141571,0.10683695971966,-0.32193252444267
219,2044477890,3.22874307632446,0.35853800177574,15.68617153167725,-0.05628572031856,0.54061901569366,9.86940002441406,1.29894912242889,0.16738902032375,-0.35594820976257
220,2044486223,3.22885990142822,0.35902330279350,15.68584918975830,-0.06273059546947,0.55969560146332,9.88326072692871,1.30624914169312,0.13306595385075,-0.37034338712692
221,2044494556,3.22896528244019,0.35955795645714,15.68581962585449,-0.03519913926721,0.55157715082169,9.83645343780518,1.30463540554047,0.13952073454857,-0.39070668816566
222,2044502889,3.22768211364746,0.35944288969040,15.68504428863525,-0.06275904178619,0.55299341678619,9.85817718505859,1.13819408416748,0.05870782583952,-0.42013749480247
223,2044511222,3.22749543190002,0.35929599404335,15.68547534942627,-0.07222225517035,0.54762881994247,9.86882019042969,1.26890349388123,0.06285732984543,-0.28023251891136
224,2044519555,3.22784185409546,0.35926660895348,15.68595695495605,-0.04910438507795,0.56668388843536,9.83394908905029,1.33278524875641,0.07635603100061,-0.26944893598557
225,2044527888,3.22797060012817,0.35973450541496,15.68613624572754,-0.06656435877085,0.54453879594803,9.86618804931641,1.30663347244263,0.13765090703964,-0.27913114428520
226,2044536221,3.22801780700684,0.36023983359337,15.68658161163330,-0.07144974917173,0.56383717060089,9.86244010925293,1.29669499397278,0.14049406349659,-0.27938726544380
227,2044544554,3.22746515274048,0.36017420887947,15.68613243103027,-0.06796631217003,0.55362290143967,9.86518669128418,1.22599983215332,0.06933774799109,-0.35266962647438
228,2044552887,3.22682571411133,0.35917031764984,15.68622112274170,-0.07039112597704,0.56089735031128,9.82453727722168,1.21475505828857,-0.04255805164576,-0.31058540940285
229,2044561220,3.22705578804016,0.35923996567726,15.68576145172119,-0.08436778187752,0.56791424751282,9.83910751342773,1.31941473484039,0.08322064578533,-0.37057387828827
230,2044569553,3.22696208953857,0.35910168290138,15.68522930145264,-0.07517638057470,0.57369375228882,9.83279895782471,1.28083980083466,0.05750396475196,-0.39075794816017
231,2044577886,3.22696399688721,0.35942074656487,15.68450164794922,-0.06305962055922,0.56851506233215,9.82128810882568,1.29190516471863,0.11534089595079,-0.35274642705917
232,2044586219,3.22675657272339,0.35946619510651,15.68459224700928,-0.06082075834274,0.55656266212463,9.86052131652832,1.26662385463715,0.08299012482166,-0.31683528423309
233,2044594552,3.22665643692017,0.36006584763527,15.68477535247803,-0.04327453300357,0.55915927886963,9.86538791656494,1.28022503852844,0.14623165130615,-0.39280712604523
234,2044602885,3.22637891769409,0.36133354902267,15.68498706817627,-0.04898982122540,0.54290080070496,9.86406326293945,1.25819671154022,0.23052811622620,-0.31086716055870
235,2044611218,3.22690677642822,0.36151632666588,15.68462276458740,-0.03219494596124,0.55746394395828,9.86156749725342,1.35501861572266,0.09917831420898,-0.34595865011215
236,2044619551,3.22717571258545,0.36164885759354,15.68557071685791,-0.04210887849331,0.55815058946609,9.86060047149658,1.32338500022888,0.09892216324806,-0.21553094685078
237,2044627884,3.22585225105286,0.36199453473091,15.68612861633301,-0.06918229907751,0.57139772176743,9.86817646026611,1.13214921951294,0.12179568409920,-0.28118023276329
238,2044636217,3.22592115402222,0.36155876517296,15.68655776977539,-0.05456188693643,0.56141948699951,9.86906337738037,1.29994821548462,0.02768898941576,-0.27280443906784
239,2044644550,3.22637295722961,0.36133575439453,15.68659019470215,-0.06052020564675,0.53549760580063,9.87888431549072,1.34600245952606,0.05002460256219,-0.34001618623734
240,2044652883,3.22642111778259,0.36177805066109,15.68690967559814,-0.05934011191130,0.57882940769196,9.82719707489014,1.29702806472778,0.13280981779099,-0.29375687241554
241,2044661216,3.22606825828552,0.36141216754913,15.68669795989990,-0.08114900439978,0.56842213869095,9.86742591857910,1.24871957302094,0.03826766833663,-0.26591417193413
242,2044669549,3.22604703903198,0.36182358860970,15.68663978576660,-0.07504047453403,0.58036023378372,9.85651016235352,1.28926682472229,0.12517675757408,-0.33909401297569
243,2044677882,3.22662758827209,0.36172753572464,15.68636322021484,-0.09787950664759,0.55135542154312,9.85761165618896,1.36093533039093,0.07141248136759,-0.25789692997932
244,2044686215,3.22567105293274,0.36188793182373,15.68578243255615,-0.08111324161291,0.55935233831406,9.84834194183350,1.17746078968048,0.09223686903715,-0.39874964952469
245,2044694548,3.22586345672607,0.36174836754799,15.68533706665039,-0.05919707566500,0.56207031011581,9.85779666900635,1.31493222713470,0.06139731779695,-0.33194768428802
246,2044702881,3.22560358047485,0.36202159523964,15.68529033660889,-0.07094904780388,0.54596221446991,9.85216140747070,1.26050198078156,0.10901418328285,-0.33778771758080
247,2044711214,3.22598433494568,0.36235713958740,15.68653678894043,-0.06102090328932,0.56972396373749,9.86911392211914,1.33619225025177,0.12394728511572,-0.22874791920185
248,2044719547,3.22582507133484,0.36296370625496,15.68666362762451,-0.03921188414097,0.53639167547226,9.85846996307373,1.27287387847900,0.15120083093643,-0.31673285365105
249,2044727880,3.22545146942139,0.36255523562431,15.68703079223633,-0.04181551933289,0.57177680730820,9.86334800720215,1.24595320224762,0.03086515143514,-0.28007885813713
250,2044736213,3.22543191909790,0.36221528053284,15.68627452850342,-0.05614266544580,0.55091196298599,9.85899257659912,1.28980469703674,0.03119813650846,-0.41591107845306
251,2044744546,3.22488808631897,0.36203798651695,15.68659019470215,-0.04263809695840,0.57131904363632,9.84932899475098,1.22651207447052,0.05886150896549,-0.29672810435295
252,2044752879,3.22497057914734,0.36214315891266,15.68590545654297,-0.05682933703065,0.55030399560928,9.83165454864502,1.30250930786133,0.08555154502392,-0.41201773285866
253,2044761212,3.22479844093323,0.36359342932701,15.68557739257812,-0.04590694606304,0.56775689125061,9.85090923309326,1.27003061771393,0.25265881419182,-0.31476050615311
254,2044769545,3.22453737258911,0.36332976818085,15.68561840057373,-0.06247293204069,0.55249989032745,9.85253334045410,1.26078391075134,0.04572141170502,-0.32267534732819
255,2044777878,3.22469139099121,0.36295917630196,15.68603801727295,-0.07741534709930,0.54951709508896,9.87569332122803,1.30942523479462,0.03650028631091,-0.27685144543648
256,2044786211,3.22475314140320,0.36297437548637,15.68548679351807,-0.07610625028610,0.57104724645615,9.84246253967285,1.29948699474335,0.07517778873444,-0.39413905143738
257,2044794544,3.22467589378357,0.36225649714470,15.68500328063965,-0.07099196314812,0.55277168750763,9.83984375000000,1.28304255008698,-0.01527888979763,-0.44198641180992
258,2044802877,3.22408652305603,0.36179447174072,15.68462467193604,-0.08625581860542,0.56777131557465,9.83314323425293,1.22149157524109,0.01987664587796,-0.37049707770348
259,2044811210,3.22365665435791,0.36158421635628,15.68553256988525,-0.08550508320332,0.55920213460922,9.85478687286377,1.23903739452362,0.05589026585221,-0.26335278153419
260,2044819543,3.22316932678223,0.36119416356087,15.68642425537109,-0.08407451957464,0.55900895595551,9.84012985229492,1.23258256912231,0.03673081099987,-0.22075627744198
261,2044827876,3.22301721572876,0.36060091853142,15.68572902679443,-0.05435463041067,0.55059719085693,9.85306167602539,1.27348852157593,0.00266388058662,-0.40149033069611
262,2044836209,3.22289133071899,0.36028468608856,15.68491458892822,-0.06275904178619,0.55443829298019,9.84329223632812,1.27740752696991,0.03465605899692,-0.42295503616333
263,2044844542,3.22305083274841,0.35958194732666,15.68406105041504,-0.04498442262411,0.56104034185410,9.82875633239746,1.31162798404694,-0.01261501014233,-0.43340560793877
264,2044852875,3.22296571731567,0.35984516143799,15.68420410156250,-0.05148616433144,0.55309355258942,9.86615943908691,1.28150570392609,0.10919348150492,-0.31245523691177
265,2044861208,3.22199535369873,0.36005577445030,15.68384933471680,-0.03779562190175,0.57317161560059,9.82979488372803,1.17482244968414,0.10204710811377,-0.35735699534416
266,2044869541,3.22244286537170,0.36084020137787,15.68399238586426,-0.02522092498839,0.55780732631683,9.86675357818604,1.34561812877655,0.17210201919079,-0.31624615192413
267,2044877874,3.22272896766663,0.36018374562263,15.68443298339844,-0.04074974730611,0.57492405176163,9.85698986053467,1.32504999637604,0.00358599284664,-0.24242590367794
268,2044886207,3.22298049926758,0.35991504788399,15.68373680114746,-0.06003362312913,0.53954619169235,9.84954452514648,1.32274460792542,0.04070101305842,-0.40879034996033
269,2044894540,3.22313046455383,0.36005309224129,15.68345165252686,-0.06191517040133,0.54483914375305,9.84509277343750,1.31014251708984,0.09308212250471,-0.36657810211182
270,2044902873,3.22353053092957,0.36030179262161,15.68353557586670,-0.04933315888047,0.55413073301315,9.84556674957275,1.33957326412201,0.10668329149485,-0.32026758790016
271,2044911206,3.22354340553284,0.36015099287033,15.68339538574219,-0.06614933907986,0.55675590038300,9.86133956909180,1.29323720932007,0.05927134305239,-0.33996495604515
272,2044919539,3.22395157814026,0.35969594120979,15.68342971801758,-0.08977533131838,0.58167636394501,9.86343383789062,1.34034144878387,0.02251490950584,-0.32162511348724
273,2044927872,3.22422695159912,0.35990321636200,15.68200492858887,-0.08263679593801,0.54564028978348,9.87321186065674,1.32458901405334,0.10010043531656,-0.38379091024399
274,2044936205,3.22447538375854,0.36033591628075,15.68198490142822,-0.08531896024942,0.56809318065643,9.86701202392578,1.32187390327454,0.12986417114735,-0.33330526947975
275,2044944538,3.22455000877380,0.36056011915207,15.68252754211426,-0.08076978474855,0.54654163122177,9.83582592010498,1.30005049705505,0.10714434087276,-0.26714366674423
276,2044952871,3.22432231903076,0.36007496714592,15.68249320983887,-0.06607080996037,0.56915169954300,9.86278343200684,1.26447224617004,0.01936436071992,-0.32856661081314
277,2044961204,3.22446393966675,0.35995197296143,15.68183231353760,-0.04177993908525,0.55392324924469,9.85791110992432,1.30952775478363,0.05852852389216,-0.40617775917053
278,2044969537,3.22530269622803,0.35899624228477,15.68216228485107,-0.05163637176156,0.55553984642029,9.85542297363281,1.39200556278229,-0.03446394950151,-0.28361359238625
279,2044977870,3.22556614875793,0.35832533240318,15.68113422393799,-0.04803849384189,0.54974603652954,9.86553764343262,1.32382059097290,-0.00943884626031,-0.43755516409874
280,2044986203,3.22518444061279,0.35754436254501,15.68202018737793,-0.05602125078440,0.55204921960831,9.86130905151367,1.24500548839569,-0.01077078562230,-0.21622258424759
281,2044994536,3.22536635398865,0.35792234539986,15.68310832977295,-0.03929787874222,0.56309318542480,9.86077213287354,1.31354916095734,0.12133464217186,-0.36483633518219
282,2045002869,3.22491836547852,0.35851484537125,15.68336486816406,-0.04793835431337,0.54883050918579,9.84771251678467,1.23801290988922,0.14992012083530,-0.30021166801453
283,2045011202,3.22439479827881,0.35845535993576,15.68254852294922,-0.05687225610018,0.57325029373169,9.83409309387207,1.22861230373383,0.06600788235664,-0.41826760768890
284,2045019535,3.22416448593140,0.35810798406601,15.68268680572510,-0.04481256008148,0.56187009811401,9.87583732604980,1.26416504383087,0.03609046339989,-0.30968895554543
285,2045027868,3.22416424751282,0.35818916559219,15.68177509307861,-0.07712195068598,0.56890136003494,9.85061645507812,1.29164898395538,0.08293888717890,-0.42372339963913
286,2045036201,3.22410440444946,0.35811063647270,15.68182945251465,-0.06290925294161,0.53654187917709,9.85195350646973,1.28483545780182,0.06836438924074,-0.32131776213646
287,2045044534,3.22422122955322,0.35726970434189,15.68199157714844,-0.10458886623383,0.56196308135986,9.87414169311523,1.30522441864014,-0.02342421747744,-0.32198372483253
288,2045052867,3.22474074363708,0.35726413130760,15.68204498291016,-0.07496179640293,0.54694211483002,9.83641052246094,1.35432708263397,0.07758551836014,-0.32083112001419
289,2045061200,3.22455787658691,0.35722047090530,15.68323135375977,-0.08637773245573,0.55164873600006,9.84694004058838,1.26903164386749,0.07955781370401,-0.21563342213631
290,2045069533,3.22582101821899,0.35784274339676,15.68209362030029,-0.06718665361404,0.56232076883316,9.85271167755127,1.44402801990509,0.14333726465702,-0.46936804056168
291,2045077866,3.22557401657104,0.35788339376450,15.68116474151611,-0.06174315884709,0.53965342044830,9.86036586761475,1.26255118846893,0.07773920148611,-0.42433822154999
292,2045086199,3.22508406639099,0.35821455717087,15.68186855316162,-0.03544233739376,0.56820756196976,9.83624649047852,1.23255681991577,0.12169323116541,-0.24470558762550
293,2045094532,3.22482728958130,0.35823407769203,15.68210792541504,-0.03270295634866,0.54789340496063,9.84786319732666,1.26091182231903,0.07840517163277,-0.36896020174026
294,2045102865,3.22518754005432,0.35785752534866,15.68222236633301,-0.05403243377805,0.57062524557114,9.84186935424805,1.33475780487061,0.03206902369857,-0.31127700209618
295,2045111198,3.22542977333069,0.35806399583817,15.68307399749756,-0.03875410184264,0.55733519792557,9.88220310211182,1.32061874866486,0.10658081620932,-0.27293246984482
296,2045119531,3.22515273094177,0.35787248611450,15.68365478515625,-0.05312416329980,0.54157036542892,9.87040138244629,1.25765883922577,0.05732465907931,-0.25787129998207
297,2045127864,3.22499513626099,0.35855048894882,15.68460273742676,-0.05202978104353,0.55996030569077,9.85493659973145,1.27202856540680,0.16590338945389,-0.21724712848663
298,2045136197,3.22491765022278,0.35895067453384,15.68442630767822,-0.05721559002995,0.54609811306000,9.88397026062012,1.28250479698181,0.12430588155985,-0.35228532552719
299,2045144530,3.22530150413513,0.35870838165283,15.68411254882812,-0.06238726526499,0.56155532598495,9.86872577667236,1.33829247951508,0.04636176675558,-0.36573284864426
300,2045152863,3.22434568405151,0.35888859629631,15.68386173248291,-0.07044119387865,0.56083297729492,9.86907100677490,1.17692279815674,0.09715478867292,-0.36022579669952
301,2045161196,3.22432947158813,0.35884886980057,15.68375396728516,-0.04441901296377,0.58750599622726,9.83059692382812,1.28985595703125,0.07389706373215,-0.32472446560860
302,2045169529,3.22405648231506,0.35827690362930,15.68320369720459,-0.07162124663591,0.54628413915634,9.85912799835205,1.25927257537842,0.00420073466375,-0.39103969931602
303,2045177862,3.22462749481201,0.35783472657204,15.68478679656982,-0.07775140553713,0.56020349264145,9.86703205108643,1.35870707035065,0.03434868901968,-0.16143371164799
304,2045186195,3.22482037544250,0.35688856244087,15.68436527252197,-0.05882481113076,0.56732779741287,9.83082580566406,1.31552147865295,-0.03899767249823,-0.37147042155266
305,2045194528,3.22521114349365,0.35720989108086,15.68469142913818,-0.06089930608869,0.56297880411148,9.86829853057861,1.33790826797485,0.11779986321926,-0.31122574210167
306,2045202861,3.22572255134583,0.35730126500130,15.68353557586670,-0.06508350372314,0.57315021753311,9.85388660430908,1.35417330265045,0.07986517995596,-0.46626868844032
307,2045211194,3.22540426254272,0.35713884234428,15.68355083465576,-0.06910333037376,0.54479634761810,9.85354995727539,1.25376558303833,0.05937379598618,-0.32605639100075
308,2045219527,3.22570610046387,0.35755237936974,15.68362426757812,-0.04812432825565,0.56018918752670,9.85143184661865,1.32766258716583,0.12566342949867,-0.32229107618332
309,2045227860,3.22637534141541,0.35729935765266,15.68393802642822,-0.05967617034912,0.54978895187378,9.85419273376465,1.37164235115051,0.05263725668192,-0.26140609383583
310,2045236193,3.22656273841858,0.35686936974525,15.68396854400635,-0.04980524629354,0.56287151575089,9.85700416564941,1.31413817405701,0.02569107525051,-0.32257285714149
311,2045244526,3.22655797004700,0.35670855641365,15.68457984924316,-0.05309555307031,0.54777902364731,9.85669612884521,1.29044520854950,0.06078256666660,-0.26988434791565
312,2045252859,3.22688436508179,0.35666644573212,15.68553638458252,-0.03741652145982,0.57835739850998,9.86450672149658,1.33004462718964,0.07917360216379,-0.21394288539886
313,2045261192,3.22678732872009,0.35687670111656,15.68550872802734,-0.04467665776610,0.56551092863083,9.88977146148682,1.28027641773224,0.10132991522551,-0.37285360693932
314,2045269525,3.22681283950806,0.35704758763313,15.68569850921631,-0.05879623442888,0.56345814466476,9.87396430969238,1.29485070705414,0.09892217069864,-0.30684575438499
315,2045277858,3.22741794586182,0.35683614015579,15.68597030639648,-0.07298045605421,0.54931688308716,9.84584522247314,1.36408591270447,0.05204812064767,-0.33169153332710
316,2045286191,3.22776269912720,0.35692411661148,15.68612003326416,-0.07384595274925,0.57144778966904,9.83925724029541,1.33345139026642,0.08903507888317,-0.31117451190948
317,2045294524,3.22799825668335,0.35682761669159,15.68556022644043,-0.06879588216543,0.56659108400345,9.86099624633789,1.31956839561462,0.06472717225552,-0.35735696554184
318,2045302857,3.22700500488281,0.35638213157654,15.68551635742188,-0.05548460409045,0.54266470670700,9.85706138610840,1.17244029045105,0.02310403808951,-0.33041077852249
319,2045311190,3.22736191749573,0.35579958558083,15.68545818328857,-0.07202897220850,0.54788637161255,9.85493755340576,1.33465540409088,0.00671092933044,-0.33576416969299
320,2045319523,3.22767543792725,0.35637608170509,15.68625831604004,-0.07288747280836,0.55684167146683,9.83756256103516,1.32914817333221,0.15330119431019,-0.23663711547852
321,2045327856,3.22745299339294,0.35671731829643,15.68531131744385,-0.04597132280469,0.57568943500519,9.87917804718018,1.26447224617004,0.11718511581421,-0.33975997567177
322,2045336189,3.22799253463745,0.35784518718719,15.68620967864990,-0.07907477766275,0.55705618858337,9.84162425994873,1.35583829879761,0.21841257810593,-0.22836369276047
323,2045344522,3.22836661338806,0.35729795694351,15.68603134155273,-0.03349676355720,0.57722014188766,9.83589553833008,1.33678126335144,0.01047622133046,-0.35517972707748
324,2045352855,3.22834062576294,0.35649958252907,15.68542385101318,-0.04567805677652,0.55481028556824,9.85051631927490,1.28898513317108,-0.02206666208804,-0.39582955837250
325,2045361188,3.22812747955322,0.35622093081474,15.68471336364746,-0.05363201722503,0.56103324890137,9.84014415740967,1.26631641387939,0.04231470823288,-0.36058437824249
326,2045369521,3.22786188125610,0.35735681653023,15.68436145782471,-0.04933299869299,0.54710674285889,9.86914348602295,1.25988721847534,0.21180410683155,-0.37843745946884
327,2045377854,3.22757887840271,0.35651424527168,15.68537235260010,-0.07129953801632,0.57830017805099,9.84669685363770,1.25763320922852,-0.02073472179472,-0.26714366674423
328,2045386187,3.22740626335144,0.35731652379036,15.68525314331055,-0.04648647457361,0.55155563354492,9.86292552947998,1.27079892158508,0.17256309092045,-0.34916043281555
329,2045394520,3.22734475135803,0.35735386610031,15.68567943572998,-0.06167896464467,0.54574763774872,9.86004352569580,1.28411841392517,0.08240098506212,-0.31125137209892
330,2045402853,3.22712898254395,0.35773506760597,15.68577861785889,-0.07242968678474,0.57487398386002,9.88432788848877,1.26593220233917,0.12497185170650,-0.32029318809509
331,2045411186,3.22753930091858,0.35766837000847,15.68491840362549,-0.07112071663141,0.55139118432999,9.87427806854248,1.34167361259460,0.06347207725048,-0.44267794489861
332,2045419519,3.22723889350891,0.35763487219810,15.68517780303955,-0.05762330442667,0.56433069705963,9.83104610443115,1.25525116920471,0.07446057349443,-0.29693299531937
333,2045427852,3.22740411758423,0.35772138834000,15.68445014953613,-0.08451799303293,0.55215656757355,9.86339092254639,1.31188428401947,0.08562838286161,-0.39037370681763
334,2045436185,3.22779965400696,0.35743618011475,15.68461132049561,-0.07156419008970,0.57299995422363,9.84941482543945,1.33913779258728,0.04410770907998,-0.30717867612839
335,2045444518,3.22765541076660,0.35788232088089,15.68435859680176,-0.06114250048995,0.55808627605438,9.85361385345459,1.27433383464813,0.12853223085403,-0.37610667943954
336,2045452851,3.22727346420288,0.35775342583656,15.68422031402588,-0.06653574854136,0.54958868026733,9.85771942138672,1.24631178379059,0.06021906435490,-0.34406319260597
337,2045461184,3.22763061523438,0.35821241140366,15.68370056152344,-0.04655086249113,0.56532484292984,9.86231040954590,1.33357954025269,0.13114489614964,-0.35494926571846
338,2045469517,3.22733426094055,0.35882470011711,15.68444347381592,-0.04686542600393,0.54393792152405,9.83611011505127,1.25568664073944,0.15657980740070,-0.24332241714001
339,2045477850,3.22738218307495,0.35927432775497,15.68474102020264,-0.05479792878032,0.53392398357391,9.86765480041504,1.29723298549652,0.13270735740662,-0.30010917782784
340,2045486183,3.22795581817627,0.35902532935143,15.68456268310547,-0.05203676968813,0.54792213439941,9.85797786712646,1.36088442802429,0.04700212553144,-0.34821274876595
341,2045494516,3.22749471664429,0.35863476991653,15.68507575988770,-0.04141496121883,0.54886627197266,9.85500812530518,1.23583555221558,0.03127497807145,-0.31240400671959
342,2045502849,3.22786593437195,0.35845932364464,15.68532466888428,-0.02894755452871,0.56642645597458,9.85643196105957,1.33655083179474,0.05878466367722,-0.29749652743340
343,2045511182,3.22760844230652,0.35892003774643,15.68590831756592,-0.04791712388396,0.54990333318710,9.86838245391846,1.26034832000732,0.13601160049438,-0.26855245232582
344,2045519515,3.22725343704224,0.35880598425865,15.68576049804688,-0.05640732124448,0.55498194694519,9.81147575378418,1.24897575378418,0.06185838207603,-0.34506216645241
345,2045527848,3.22686624526978,0.35851117968559,15.68560504913330,-0.06875312328339,0.54401659965515,9.85332775115967,1.24510800838470,0.04157190397382,-0.33899158239365
346,2045536181,3.22719526290894,0.35849115252495,15.68600273132324,-0.06505510956049,0.55096918344498,9.86093807220459,1.33089005947113,0.07850763201714,-0.28087288141251
347,2045544514,3.22669196128845,0.35835027694702,15.68584060668945,-0.09024742245674,0.54837268590927,9.84704017639160,1.23140430450439,0.06029590219259,-0.33304905891418
348,2045552847,3.22665095329285,0.35781243443489,15.68551635742188,-0.08452514559031,0.55285036563873,9.87487888336182,1.28724324703217,0.01134710479528,-0.36303052306175
349,2045561180,3.22647476196289,0.35770013928413,15.68507194519043,-0.07709351181984,0.55262857675552,9.84724617004395,1.27013289928436,0.05978361889720,-0.39267903566360
350,2045569513,3.22642636299133,0.35655599832535,15.68540287017822,-0.07303767651320,0.53898102045059,9.85893535614014,1.28578329086304,-0.05726061761379,-0.28174376487732
351,2045577846,3.22640347480774,0.35651612281799,15.68584060668945,-0.06719368696213,0.56345099210739,9.85601806640625,1.28847289085388,0.07761112600565,-0.26775839924812
352,2045586179,3.22600460052490,0.35680729150772,15.68584346771240,-0.08003316074610,0.54886627197266,9.86929988861084,1.24398088455200,0.11083280295134,-0.32869467139244
353,2045594512,3.22575354576111,0.35714653134346,15.68570518493652,-0.05899664759636,0.57086837291718,9.84298419952393,1.26032280921936,0.12215429544449,-0.27421319484711
354,2045602845,3.22628617286682,0.35690909624100,15.68568992614746,-0.05204408615828,0.54322981834412,9.85435771942139,1.35588943958282,0.04856458678842,-0.32846412062645
355,2045611178,3.22621726989746,0.35675752162933,15.68622493743896,-0.04159378260374,0.54652011394501,9.86164569854736,1.28304255008698,0.06421488523483,-0.26112431287766
356,2045619511,3.22614884376526,0.35660520195961,15.68607902526855,-0.04629335179925,0.53619134426117,9.85805416107178,1.28335011005402,0.05806747451425,-0.34542077779770
357,2045627844,3.22570109367371,0.35619857907295,15.68588161468506,-0.04403290152550,0.53485381603241,9.85153198242188,1.23849928379059,0.02704863250256,-0.35151693224907
358,2045636177,3.22531366348267,0.35640782117844,15.68614768981934,-0.07009071111679,0.56578272581100,9.85505104064941,1.24503111839294,0.10494151711464,-0.29762458801270
359,2045644510,3.22577261924744,0.35589015483856,15.68666648864746,-0.05298814177513,0.54593366384506,9.86057472229004,1.34620726108551,0.01849347539246,-0.25784566998482
360,2045652843,3.22574186325073,0.35537967085838,15.68610668182373,-0.07250820100307,0.57129764556885,9.84946632385254,1.28856253623962,0.01261501107365,-0.39164164662361
361,2045661176,3.22648644447327,0.35603269934654,15.68606281280518,-0.07016953825951,0.53492528200150,9.86610794067383,1.38065850734711,0.15622121095657,-0.33000099658966
362,2045669509,3.22590970993042,0.35571867227554,15.68664646148682,-0.08277270197868,0.54579055309296,9.84343528747559,1.22238826751709,0.04380034655333,-0.25656497478485
363,2045677842,3.22569298744202,0.35558599233627,15.68661880493164,-0.08064804226160,0.54276496171951,9.85332870483398,1.26522803306580,0.06276768445969,-0.30211991071701
364,2045686175,3.22559976577759,0.35543209314346,15.68719577789307,-0.08039080351591,0.55400198698044,9.84187602996826,1.27984082698822,0.06395874172449,-0.25917762517929
365,2045694508,3.22561454772949,0.35582113265991,15.68775653839111,-0.06580615788698,0.57877230644226,9.83472251892090,1.29331398010254,0.12527921795845,-0.30886924266815
366,2045702841,3.22504472732544,0.35575607419014,15.68803501129150,-0.05960464105010,0.55446690320969,9.86568737030029,1.22284901142120,0.07043914496899,-0.29496070742607
367,2045711174,3.22421503067017,0.35602277517319,15.68767929077148,-0.06709339469671,0.55069029331207,9.85987377166748,1.19208645820618,0.10883487761021,-0.34967270493507
368,2045719507,3.22475552558899,0.35567584633827,15.68791866302490,-0.04265226423740,0.54621261358261,9.85575294494629,1.35681152343750,0.03749924153090,-0.29716351628304
369,2045727840,3.22482466697693,0.35575681924820,15.68783473968506,-0.04664354771376,0.54767179489136,9.88581657409668,1.29941010475159,0.08844594657421,-0.32649183273315
370,2045736173,3.22494435310364,0.35564672946930,15.68806362152100,-0.04250934720039,0.53830868005753,9.84583854675293,1.30609536170959,0.06485524028540,-0.30113375186920
371,2045744506,3.23060894012451,0.35720393061638,15.69104862213135,-0.02193760126829,0.55960273742676,9.86252689361572,1.38240015506744,0.05215058103204,-0.35699841380119
372,2045752839,3.23041152954102,0.35739013552666,15.69153690338135,-0.05243033915758,0.55206358432770,9.85852718353271,1.26785337924957,0.10127867758274,-0.27026858925819
373,2045761172,3.23049783706665,0.35776847600937,15.69111824035645,-0.05594953894615,0.55449551343918,9.87623023986816,1.30186903476715,0.12492061406374,-0.32280337810516
374,2045769505,3.23009538650513,0.35806745290756,15.69104862213135,-0.03714471310377,0.54196375608444,9.83857822418213,1.24326372146606,0.11234403401613,-0.34001612663269
375,2045777838,3.23020243644714,0.35835799574852,15.69166851043701,-0.07428942620754,0.54986047744751,9.83377838134766,1.30425119400024,0.11290753632784,-0.31780859827995
376,2045786171,3.23051142692566,0.35828745365143,15.69142913818359,-0.07344539463520,0.55568289756775,9.85142421722412,1.32845664024353,0.06641770899296,-0.35615310072899
377,2045794504,3.23059797286987,0.35844537615776,15.69092845916748,-0.08612039685249,0.56880116462708,9.83896350860596,1.30184340476990,0.09490073472261,-0.38476419448853
378,2045802837,3.23101711273193,0.35845121741295,15.69071578979492,-0.09218600392342,0.54551148414612,9.85972785949707,1.34180164337158,0.07520339637995,-0.35587134957314
379,2045811170,3.23085737228394,0.35819911956787,15.69170761108398,-0.07624930888414,0.56259256601334,9.86060142517090,1.27149057388306,0.05507060140371,-0.19608978927135
380,2045819503,3.23093962669373,0.35818800330162,15.69217491149902,-0.07119236141443,0.55654120445251,9.85325431823730,1.30089569091797,0.07884061336517,-0.27083209156990
381,2045827836,3.23098778724670,0.35836496949196,15.69187831878662,-0.06042721867561,0.55595469474792,9.83853530883789,1.29738640785217,0.09595090895891,-0.38089647889137
382,2045836169,3.23068475723267,0.35831880569458,15.69119167327881,-0.07207919657230,0.56312185525894,9.85924243927002,1.25573778152466,0.06780087202787,-0.41001987457275
383,2045844502,3.23026227951050,0.35783630609512,15.69194984436035,-0.03704457357526,0.54197806119919,9.85960769653320,1.23965215682983,0.02679248899221,-0.20492666959763
384,2045852835,3.23027849197388,0.35776013135910,15.69180488586426,-0.01987059786916,0.56104040145874,9.83575248718262,1.29318583011627,0.06572612375021,-0.34652212262154
385,2045861168,3.23024582862854,0.35805606842041,15.69124507904053,-0.04103586077690,0.56741356849670,9.84075927734375,1.28793489933014,0.10998751968145,-0.39019444584846
386,2045869501,3.23016762733459,0.35761237144470,15.69097137451172,-0.04018451645970,0.55015385150909,9.86320686340332,1.28217160701752,0.02241245470941,-0.35876581072807
387,2045877834,3.23054671287537,0.35780283808708,15.69154357910156,-0.05042754113674,0.56193447113037,9.84123897552490,1.33637130260468,0.10576117038727,-0.23494656383991
388,2045886167,3.23120212554932,0.35809201002121,15.69128704071045,-0.06323096156120,0.53665643930435,9.87159729003906,1.37023353576660,0.10991068184376,-0.36199316382408
389,2045894500,3.23109054565430,0.35840186476707,15.69111824035645,-0.06202929466963,0.53973215818405,9.86568164825439,1.27768921852112,0.11249770969152,-0.37175217270851
390,2045902833,3.23090744018555,0.35865786671638,15.69029331207275,-0.08032660931349,0.53064787387848,9.84130191802979,1.27021002769470,0.10271309316158,-0.42943549156189
391,2045911166,3.23040246963501,0.35875734686852,15.69147205352783,-0.08791559189558,0.55589747428894,9.82140445709229,1.22999560832977,0.09853795915842,-0.18189947307110
392,2045919499,3.23065161705017,0.35817751288414,15.69220829010010,-0.09124176949263,0.57701975107193,9.82712554931641,1.32061874866486,0.01160324830562,-0.23594552278519
393,2045927832,3.23096752166748,0.35780259966850,15.69185447692871,-0.09024742245674,0.56081151962280,9.84804821014404,1.32994222640991,0.02858548611403,-0.40991738438606
394,2045936165,3.23074579238892,0.35859480500221,15.69193649291992,-0.07896751910448,0.56320762634277,9.86343288421631,1.26454925537109,0.17238380014896,-0.32472449541092
395,2045944498,3.23104929924011,0.35819256305695,15.69113349914551,-0.07962562888861,0.54435986280441,9.86103725433350,1.32817494869232,0.02543493360281,-0.38673651218414
396,2045952831,3.23104953765869,0.35833820700645,15.69095611572266,-0.07034090161324,0.56772118806839,9.88973617553711,1.29185390472412,0.09431160986423,-0.35008257627487
397,2045961164,3.23165225982666,0.35868325829506,15.69079589843750,-0.06592775136232,0.53804397583008,9.86741161346436,1.36444461345673,0.11416263878345,-0.39826291799545
398,2045969497,3.23193168640137,0.35852631926537,15.69094562530518,-0.04270233213902,0.54649156332016,9.86486625671387,1.32490897178650,0.06002695858479,-0.30949679017067
399,2045977830,3.23199510574341,0.35878559947014,15.69124507904053,-0.05321715027094,0.55726367235184,9.82704734802246,1.29807817935944,0.11444441229105,-0.23261570930481
400,2045986163,3.23145532608032,0.35851681232452,15.69180488586426,-0.02891200967133,0.54363030195236,9.85174560546875,1.22617900371552,0.04787300154567,-0.26004850864410
401,2045994496,3.23091340065002,0.35802483558655,15.69201183319092,-0.05047761276364,0.55624800920486,9.84341335296631,1.22628140449524,0.01941559091210,-0.33351016044617
402,2046002829,3.23088049888611,0.35762974619865,15.69264698028564,-0.04692265018821,0.53719282150269,9.84312057495117,1.28679502010345,0.03338815271854,-0.25068652629852
403,2046011162,3.23054814338684,0.35762450098991,15.69391727447510,-0.05318854004145,0.57435184717178,9.84591007232666,1.25081992149353,0.08427082747221,-0.19350272417068
404,2046019495,3.23040103912354,0.35806527733803,15.69404029846191,-0.06261599063873,0.55027538537979,9.85545158386230,1.27341175079346,0.13104243576527,-0.31622055172920
405,2046027828,3.23032903671265,0.35755679011345,15.69409465789795,-0.08667800575495,0.55290770530701,9.84291362762451,1.28286325931549,0.01703346520662,-0.32913005352020
406,2046036161,3.23014664649963,0.35692375898361,15.69346141815186,-0.08594856411219,0.56167697906494,9.83852767944336,1.27008187770844,-0.00395739963278,-0.40000471472740
407,2046044494,3.23023509979248,0.35671004652977,15.69345569610596,-0.08407451957464,0.53378808498383,9.88464260101318,1.30179238319397,0.05391796678305,-0.30356708168983
408,2046052827,3.22923302650452,0.35741877555847,15.69373989105225,-0.08333800733089,0.57241326570511,9.81894969940186,1.17069852352142,0.16444338858128,-0.29805999994278
409,2046061160,3.22907042503357,0.35771936178207,15.69280338287354,-0.08248642086983,0.52907443046570,9.85106086730957,1.27225899696350,0.11083278805017,-0.38225403428078
410,2046069493,3.22928500175476,0.35794496536255,15.69269657135010,-0.08172123134136,0.56194162368774,9.85758304595947,1.31731450557709,0.10317413508892,-0.34301301836967
411,2046077826,3.22913312911987,0.35729038715363,15.69322204589844,-0.06177910417318,0.53763628005981,9.86253261566162,1.27295053005219,0.00012807117309,-0.31460684537888
412,2046086159,3.22797346115112,0.35767972469330,15.69280719757080,-0.05415417253971,0.57646906375885,9.85329914093018,1.15269172191620,0.12000268697739,-0.38084524869919
413,2046094492,3.22747015953064,0.35756236314774,15.69246196746826,-0.02451279200613,0.55621224641800,9.85445022583008,1.23114824295044,0.06126924604177,-0.37959018349648
414,2046102825,3.22658753395081,0.35666745901108,15.69258213043213,-0.03690892085433,0.53769344091415,9.84591579437256,1.18570852279663,-0.02826531045139,-0.30799838900566
415,2046111158,3.22649717330933,0.35622289776802,15.69359302520752,-0.04610722512007,0.57440906763077,9.83978652954102,1.28009700775146,0.02310403808951,-0.31340298056602
416,2046119491,3.22743773460388,0.35554000735283,15.69287014007568,-0.04987677559257,0.53263646364212,9.82952308654785,1.40479969978333,-0.00876006670296,-0.41067299246788
417,2046127824,3.22728323936462,0.35505294799805,15.69255447387695,-0.04258070886135,0.56489586830139,9.85927963256836,1.27346289157867,0.01659802347422,-0.37162411212921
418,2046136157,3.22712230682373,0.35493901371956,15.69224071502686,-0.06360323727131,0.54525399208069,9.87383365631104,1.27225911617279,0.06126925349236,-0.36552795767784
419,2046144490,3.22703385353088,0.35501283407211,15.69275760650635,-0.07134257256985,0.56151241064072,9.85040760040283,1.28035306930542,0.08949613571167,-0.27011489868164
420,2046152823,3.22695755958557,0.35527241230011,15.69226074218750,-0.07648517936468,0.57269245386124,9.84103965759277,1.28253042697906,0.10524889081717,-0.39088603854179
421,2046161156,3.22710514068604,0.35565897822380,15.69123840332031,-0.08200734108686,0.56869393587112,9.85243320465088,1.30952775478363,0.11628863960505,-0.45725250244141
422,2046169489,3.22735524177551,0.35580882430077,15.69081974029541,-0.08161376416683,0.55626952648163,9.83252048492432,1.32189929485321,0.09277475625277,-0.38035857677460
423,2046177822,3.22751212120056,0.35600143671036,15.69122219085693,-0.08368110656738,0.54538279771805,9.86764717102051,1.30922043323517,0.10450607538223,-0.26148292422295
424,2046186155,3.22770214080811,0.35649383068085,15.69122219085693,-0.08173568546772,0.55460989475250,9.82672500610352,1.31431746482849,0.13613964617252,-0.33151221275330
425,2046194488,3.22714495658875,0.35584792494774,15.69060802459717,-0.06904639303684,0.57355785369873,9.86108779907227,1.22407877445221,0.00076842709677,-0.32805433869362
426,2046202821,3.22684526443481,0.35520613193512,15.69023895263672,-0.04981223866343,0.57307147979736,9.85303401947021,1.25578916072845,-0.00316335842945,-0.36801254749298
427,2046211154,3.22634434700012,0.35466080904007,15.69029712677002,-0.04787425324321,0.57494544982910,9.83784770965576,1.23117375373840,0.01283273100853,-0.32477569580078
428,2046219487,3.22643327713013,0.35418894886971,15.69018459320068,-0.03360390290618,0.56169849634171,9.82395935058594,1.30215084552765,0.01949243247509,-0.33891475200653
429,2046227820,3.22591066360474,0.35427162051201,15.68972682952881,-0.04011314362288,0.54249304533005,9.84957218170166,1.22915041446686,0.08488558232784,-0.38973340392113
430,2046236153,3.22545194625854,0.35430508852005,15.68969726562500,-0.02537828683853,0.53963190317154,9.84005832672119,1.23660409450531,0.08099221438169,-0.33117926120758
431,2046244486,3.22516942024231,0.35371190309525,15.68918704986572,-0.05633579194546,0.56080436706543,9.85005092620850,1.25755655765533,0.00189545343164,-0.40423107147217
432,2046252819,3.22506093978882,0.35383141040802,15.68969631195068,-0.05593523010612,0.54787200689316,9.84503746032715,1.27774047851562,0.09446529299021,-0.26837313175201
433,2046261152,3.22501945495605,0.35447025299072,15.68990421295166,-0.04836037009954,0.55683451890945,9.85153198242188,1.28691029548645,0.15340363979340,-0.35149130225182
434,2046269485,3.22520494461060,0.35397934913635,15.69057750701904,-0.05215842276812,0.54405963420868,9.84445190429688,1.31295990943909,0.02351386658847,-0.24357855319977
435,2046277818,3.22590088844299,0.35334184765816,15.69023895263672,-0.07607048749924,0.55609774589539,9.84862041473389,1.37474155426025,-0.00126790453214,-0.36601459980011
436,2046286151,3.22494482994080,0.35338425636292,15.69012260437012,-0.07918196916580,0.53427445888519,9.85956478118896,1.17674362659454,0.08053115755320,-0.34296181797981
437,2046294484,3.22455501556396,0.35327553749084,15.68999958038330,-0.09271515160799,0.57333612442017,9.89366912841797,1.24441635608673,0.06585420668125,-0.32346940040588
438,2046302817,3.22489476203918,0.35384330153465,15.68976402282715,-0.07815911620855,0.55722790956497,9.82405090332031,1.33245241641998,0.14413128793240,-0.36060997843742
439,2046311150,3.22438549995422,0.35403198003769,15.68900966644287,-0.07798744738102,0.56430208683014,9.85091686248779,1.23040521144867,0.09710355103016,-0.39134708046913
440,2046319483,3.22463488578796,0.35424131155014,15.68786907196045,-0.06740818172693,0.54706382751465,9.81301498413086,1.32207858562469,0.09308212995529,-0.46580764651299
441,2046327816,3.22432065010071,0.35497567057610,15.68797969818115,-0.05936170369387,0.53919547796249,9.84995746612549,1.25340700149536,0.16787569224834,-0.31176364421844
442,2046336149,3.22455811500549,0.35561144351959,15.68863773345947,-0.06124252825975,0.55775016546249,9.87327098846436,1.31913304328918,0.15663105249405,-0.25533550977707
443,2046344482,3.22431063652039,0.35540971159935,15.68913555145264,-0.04466950520873,0.56280714273453,9.83623886108398,1.26119375228882,0.05614640191197,-0.28386977314949
444,2046352815,3.22430872917175,0.35527172684669,15.68899631500244,-0.04858226329088,0.58406531810760,9.85258960723877,1.29172587394714,0.06021906435490,-0.34560003876686
445,2046361148,3.22453761100769,0.35447269678116,15.68900966644287,-0.02152290381491,0.54280066490173,9.86435699462891,1.31855666637421,-0.01752013526857,-0.31190451979637
446,2046369481,3.22463393211365,0.35479938983917,15.68925857543945,-0.03210195899010,0.55187761783600,9.84289836883545,1.30268883705139,0.11846583336592,-0.30169725418091
447,2046377814,3.22378611564636,0.35477629303932,15.68860149383545,-0.05826734751463,0.54256451129913,9.84670925140381,1.18957626819611,0.07218091189861,-0.36099418997765
448,2046386147,3.22353410720825,0.35483339428902,15.68895149230957,-0.05372500419617,0.56830054521561,9.84859943389893,1.26101446151733,0.08585892617702,-0.28576523065567
449,2046394480,3.22379970550537,0.35485717654228,15.68747615814209,-0.07129953801632,0.55770003795624,9.84731197357178,1.32391011714935,0.07593339681625,-0.41910010576248
450,2046402813,3.22322726249695,0.35539609193802,15.68704605102539,-0.07796598970890,0.55778586864471,9.87414169311523,1.22284913063049,0.13818879425526,-0.38263821601868
451,2046411146,3.22288250923157,0.35633385181427,15.68637657165527,-0.06681470572948,0.54687774181366,9.87904930114746,1.25076866149902,0.18585687875748,-0.42815473675728
452,2046419479,3.22301506996155,0.35775184631348,15.68653488159180,-0.09885242581367,0.53794378042221,9.88101482391357,1.30696630477905,0.24674192070961,-0.32008826732635
453,2046427812,3.22258329391479,0.35763964056969,15.68636608123779,-0.11284325271845,0.55433100461960,9.83824920654297,1.24059987068176,0.06157661601901,-0.40330892801285
454,2046436145,3.22251486778259,0.35761782526970,15.68685150146484,-0.09707134962082,0.55759263038635,9.84334087371826,1.28299140930176,0.07730375230312,-0.26993560791016
455,2046444478,3.22263002395630,0.35823076963425,15.68777179718018,-0.07554821670055,0.56050401926041,9.85029602050781,1.30435371398926,0.15406961739063,-0.27085772156715
456,2046452811,3.22239565849304,0.35817950963974,15.68715858459473,-0.08154223859310,0.56183439493179,9.84986495971680,1.26406264305115,0.06736544519663,-0.40243807435036
457,2046461144,3.22235441207886,0.35877329111099,15.68640899658203,-0.06969014555216,0.54705655574799,9.85021591186523,1.28662872314453,0.14374710619450,-0.42062419652939
458,2046469477,3.22186279296875,0.35941451787949,15.68644523620605,-0.03936209529638,0.55122667551041,9.85143852233887,1.23212158679962,0.15271206200123,-0.32900202274323
459,2046477810,3.22199273109436,0.35948055982590,15.68607902526855,-0.03426211699843,0.55681306123734,9.84292030334473,1.30694067478180,0.08637120574713,-0.32288023829460
460,2046486143,3.22263002395630,0.35890004038811,15.68673133850098,-0.05348884314299,0.56502461433411,9.86188316345215,1.36741590499878,0.01296080369502,-0.24442385137081
461,2046494476,3.22220897674561,0.35883051156998,15.68692970275879,-0.05112852156162,0.55704194307327,9.83407211303711,1.24065101146698,0.06897913664579,-0.33929896354675
462,2046502809,3.22183895111084,0.35903126001358,15.68660831451416,-0.05363916978240,0.56115484237671,9.84189033508301,1.24738764762878,0.09851235151291,-0.36719286441803
463,2046511142,3.22119116783142,0.35954654216766,15.68681526184082,-0.05165783315897,0.57367944717407,9.85917854309082,1.21306455135345,0.13852176070213,-0.34434494376183
464,2046519475,3.22089314460754,0.35985112190247,15.68637466430664,-0.04950482770801,0.53913122415543,9.88831901550293,1.25589156150818,0.11055102199316,-0.38279193639755
465,2046527808,3.22102475166321,0.35972893238068,15.68618488311768,-0.07584874331951,0.56529635190964,9.86676025390625,1.30758106708527,0.06226820126176,-0.34682956337929
466,2046536141,3.22076034545898,0.35973346233368,15.68639373779297,-0.06501933932304,0.55496764183044,9.83542346954346,1.25955438613892,0.07932728528976,-0.30433550477028
467,2046544474,3.22073149681091,0.36006501317024,15.68656253814697,-0.08407451957464,0.56633347272873,9.83483695983887,1.28732025623322,0.11823529750109,-0.30105689167976
468,2046552807,3.22058463096619,0.36009290814400,15.68617153167725,-0.10144893825054,0.55214935541153,9.85718154907227,1.27374470233917,0.07732938230038,-0.37546631693840
469,2046561140,3.22057580947876,0.36072626709938,15.68712425231934,-0.07083460688591,0.56137657165527,9.86796951293945,1.29041957855225,0.15793737769127,-0.27288126945496
470,2046569473,3.22117757797241,0.36092817783356,15.68724441528320,-0.07235816121101,0.53730010986328,9.84975051879883,1.36352252960205,0.10199587792158,-0.31493982672691
471,2046577806,3.22087025642395,0.36025139689445,15.68759536743164,-0.08929587155581,0.55955982208252,9.86653232574463,1.25302278995514,-0.00070439145202,-0.26150852441788
472,2046586139,3.22100877761841,0.36065107584000,15.68750381469727,-0.06124278903008,0.54662019014359,9.85723114013672,1.30814468860626,0.12438273429871,-0.34280809760094
473,2046594472,3.22066950798035,0.36053922772408,15.68642425537109,-0.05648599937558,0.54790061712265,9.85243988037109,1.25135779380798,0.05842606723309,-0.43327757716179
474,2046602805,3.21991348266602,0.36079698801041,15.68637657165527,-0.03795298561454,0.55135542154312,9.84899997711182,1.20066738128662,0.10809207707644,-0.33532878756523
475,2046611138,3.21942019462585,0.36079069972038,15.68603515625000,-0.03085736371577,0.56738495826721,9.84047317504883,1.23214709758759,0.07589497417212,-0.36081489920616
476,2046619471,3.21880483627319,0.36077985167503,15.68648624420166,-0.05479077622294,0.56202745437622,9.84039497375488,1.21736764907837,0.07873816043139,-0.27400830388069
477,2046627804,3.21847558021545,0.36007159948349,15.68622112274170,-0.04182982444763,0.56615465879440,9.85244750976562,1.25181877613068,-0.00872164592147,-0.34767481684685
478,2046636137,3.21885585784912,0.35930180549622,15.68574810028076,-0.04054964333773,0.54951709508896,9.86035728454590,1.33729350566864,-0.01881365478039,-0.38071718811989
479,2046644470,3.21829819679260,0.35844624042511,15.68585872650146,-0.05165068060160,0.54035437107086,9.81482315063477,1.22361755371094,-0.02332175709307,-0.30963766574860
480,2046652803,3.21789646148682,0.35807904601097,15.68624019622803,-0.08835906535387,0.54055464267731,9.83970832824707,1.24277710914612,0.03488658741117,-0.28025817871094
481,2046661136,3.21772551536560,0.35790172219276,15.68704605102539,-0.08195012062788,0.55840098857880,9.85373497009277,1.27136242389679,0.05348252132535,-0.37528696656227
482,2046669469,3.21788263320923,0.35813990235329,15.68677806854248,-0.09388837963343,0.54130560159683,9.84638023376465,1.31032180786133,0.10386572033167,-0.36219811439514
483,2046677802,3.21774554252625,0.35758650302887,15.68719959259033,-0.09041909128428,0.56871539354324,9.85331344604492,1.27456438541412,0.01552222669125,-0.26614472270012
484,2046686135,3.21777176856995,0.35719975829124,15.68691921234131,-0.08243667334318,0.58688354492188,9.81594562530518,1.29459464550018,0.02763775922358,-0.35925245285034
485,2046694468,3.21732807159424,0.35782682895660,15.68618869781494,-0.05255908891559,0.53125596046448,9.85781955718994,1.23821783065796,0.15253277122974,-0.33753162622452
486,2046702801,3.21713685989380,0.35786628723145,15.68596363067627,-0.05140732973814,0.56692010164261,9.84840774536133,1.26910853385925,0.08071045577526,-0.35553839802742
487,2046711134,3.21723151206970,0.35819825530052,15.68563747406006,-0.04763077944517,0.54054033756256,9.84606742858887,1.30304741859436,0.11564828455448,-0.35874018073082
488,2046719467,3.21777892112732,0.35808390378952,15.68535232543945,-0.02487758733332,0.55699187517166,9.82688331604004,1.35696518421173,0.06103872135282,-0.36191630363464
489,2046727800,3.21809172630310,0.35830816626549,15.68558216094971,-0.04257372021675,0.54335856437683,9.84523010253906,1.32863593101501,0.10696504265070,-0.29516559839249
490,2046736133,3.21702647209167,0.35803645849228,15.68546104431152,-0.03817472234368,0.58086091279984,9.86042308807373,1.16355228424072,0.04354419931769,-0.34183481335640
491,2046744466,3.21714401245117,0.35738676786423,15.68498706817627,-0.03526369109750,0.54722815752029,9.87736701965332,1.30630028247833,-0.00375248538330,-0.39234599471092
492,2046752799,3.21633577346802,0.35625916719437,15.68458366394043,-0.05799525231123,0.52026915550232,9.84043025970459,1.19477593898773,-0.06015503033996,-0.36860162019730
493,2046761132,3.21626877784729,0.35578551888466,15.68574810028076,-0.05241603404284,0.56277137994766,9.83950042724609,1.28235101699829,0.02610090747476,-0.21524924039841
494,2046769465,3.21631765365601,0.35558775067329,15.68554973602295,-0.07438241690397,0.54379487037659,9.86110973358154,1.29759144783020,0.05225303769112,-0.35062044858932
495,2046777798,3.21648740768433,0.35605525970459,15.68549919128418,-0.07026237994432,0.57104724645615,9.85716152191162,1.31178176403046,0.13242559134960,-0.34898111224174
496,2046786131,3.21638083457947,0.35546043515205,15.68391799926758,-0.07725048065186,0.54290086030960,9.86236953735352,1.27948224544525,-0.00431599887088,-0.51467967033386
497,2046794464,3.21642017364502,0.35582703351974,15.68369770050049,-0.08530495315790,0.55441677570343,9.84246826171875,1.29631078243256,0.12066865712404,-0.33140978217125
498,2046802797,3.21711039543152,0.35517841577530,15.68279075622559,-0.09918131679296,0.55207788944244,9.84415054321289,1.37486970424652,-0.00659566605464,-0.43281656503677
499,2046811130,3.21689581871033,0.35506561398506,15.68378829956055,-0.08410295099020,0.55351567268372,9.84581851959229,1.26485645771027,0.07079774141312,-0.20889687538147
500,2046819463,3.21666359901428,0.35556992888451,15.68405723571777,-0.05859634280205,0.58644008636475,9.85595798492432,1.26329410076141,0.13908530771732,-0.29936638474464
501,2046827796,3.21647357940674,0.35477784276009,15.68475055694580,-0.05735864862800,0.54385209083557,9.84169673919678,1.26805830001831,-0.01202588435262,-0.23230828344822
502,2046836129,3.21622800827026,0.35444012284279,15.68398761749268,-0.04142230004072,0.57156932353973,9.85727596282959,1.26249992847443,0.03206902369857,-0.41829323768616
503,2046844462,3.21581268310547,0.35501366853714,15.68391418457031,-0.03474850952625,0.54051887989044,9.85431480407715,1.24141955375671,0.14600114524364,-0.34629163146019
504,2046852795,3.21619081497192,0.35444161295891,15.68447303771973,-0.03813192620873,0.53671348094940,9.83583736419678,1.33637166023254,0.01201307680458,-0.25851166248322
505,2046861128,3.21675467491150,0.35437762737274,15.68502616882324,-0.06210825592279,0.55445969104767,9.83045101165771,1.35866856575012,0.07219371944666,-0.26797613501549
506,2046869461,3.21696662902832,0.35413166880608,15.68588352203369,-0.04491269960999,0.57933020591736,9.81420135498047,1.31585443019867,0.05404603481293,-0.22362506389618
507,2046877794,3.21732211112976,0.35346296429634,15.68627071380615,-0.06436113268137,0.57016748189926,9.89100933074951,1.33406615257263,-0.00288160145283,-0.32075425982475
508,2046886127,3.21765422821045,0.35321375727654,15.68614768981934,-0.07077022641897,0.57437330484390,9.86446380615234,1.33127427101135,0.04746317118406,-0.34070774912834
509,2046894460,3.21729516983032,0.35259836912155,15.68626022338867,-0.07659949362278,0.56984561681747,9.84121131896973,1.24854040145874,0.00217721005902,-0.34913483262062
510,2046902793,3.21735286712646,0.35299336910248,15.68770027160645,-0.10187794268131,0.54580485820770,9.82557392120361,1.29736101627350,0.13362947106361,-0.15812946856022
511,2046911126,3.21720361709595,0.35287240147591,15.68826198577881,-0.09759338945150,0.56204891204834,9.85771942138672,1.27284801006317,0.06513699144125,-0.27744057774544
512,2046919459,3.21712970733643,0.35334002971649,15.68836784362793,-0.11257859319448,0.55792176723480,9.85194683074951,1.28227412700653,0.13416737318039,-0.32001146674156
513,2046927792,3.21616244316101,0.35257831215858,15.68845939636230,-0.08633512258530,0.55331522226334,9.84781074523926,1.17536032199860,-0.01668767258525,-0.38271504640579
514,2046936125,3.21627020835876,0.35284897685051,15.68769168853760,-0.06524804979563,0.55069744586945,9.87498760223389,1.30496823787689,0.10368641465902,-0.42175111174583
515,2046944458,3.21571421623230,0.35358402132988,15.68840503692627,-0.05685079470277,0.54538279771805,9.84695434570312,1.22348940372467,0.17335714399815,-0.19255498051643
516,2046952791,3.21588659286499,0.35389143228531,15.68872642517090,-0.05446889996529,0.56543940305710,9.84078788757324,1.31188428401947,0.11674968153238,-0.29332140088081
517,2046961124,3.21550583839417,0.35456800460815,15.68982887268066,-0.04533471912146,0.56910163164139,9.83744049072266,1.24562036991119,0.16080617904663,-0.29099053144455
518,2046969457,3.21530079841614,0.35440704226494,15.68923664093018,-0.02075039781630,0.59804207086563,9.84720420837402,1.26685428619385,0.05320076271892,-0.39839097857475
519,2046977790,3.21475481987000,0.35369968414307,15.69004917144775,-0.03268152847886,0.55867272615433,9.85864734649658,1.22566664218903,-0.00111421919428,-0.22423981130123
520,2046986123,3.21460127830505,0.35389056801796,15.68984317779541,-0.04665784165263,0.56526780128479,9.82732105255127,1.27274572849274,0.09869164973497,-0.35510295629501
521,2046994456,3.21447110176086,0.35373914241791,15.69018936157227,-0.06496211886406,0.52178561687469,9.85557365417480,1.27602434158325,0.05916888266802,-0.31857705116272
522,2047002789,3.21344113349915,0.35366222262383,15.69013690948486,-0.06683589518070,0.57518881559372,9.83954524993896,1.16767609119415,0.06818509846926,-0.33456033468246
523,2047011122,3.21273994445801,0.35381123423576,15.69144821166992,-0.07942517101765,0.54346585273743,9.84930706024170,1.20668661594391,0.10030534863472,-0.24319435656071
524,2047019455,3.21248531341553,0.35395169258118,15.69256782531738,-0.09405273199081,0.56671261787415,9.81948757171631,1.26024603843689,0.10173974186182,-0.19488592445850
525,2047027788,3.21236634254456,0.35416388511658,15.69121551513672,-0.07419644296169,0.57428032159805,9.83773422241211,1.27767646312714,0.09586126357317,-0.43308547139168
526,2047036121,3.21227312088013,0.35410654544830,15.69172954559326,-0.06471189111471,0.53509694337845,9.87273883819580,1.27973842620850,0.07492163032293,-0.26609346270561
527,2047044454,3.21216630935669,0.35368469357491,15.69119548797607,-0.07227963209152,0.54848706722260,9.87107181549072,1.27848327159882,0.02515317499638,-0.36370930075645
528,2047052787,3.21193003654480,0.35409703850746,15.69158649444580,-0.08785860985518,0.55086183547974,9.83289718627930,1.26278173923492,0.12778942286968,-0.28351116180420
529,2047061120,3.21167230606079,0.35370317101479,15.69197940826416,-0.06838861107826,0.60658246278763,9.86939811706543,1.26052772998810,0.03094199486077,-0.32223987579346
530,2047069453,3.21190643310547,0.35375645756721,15.69077205657959,-0.04777405038476,0.55204921960831,9.87805366516113,1.32002961635590,0.07528023421764,-0.47420915961266
531,2047077786,3.21132612228394,0.35432639718056,15.69007015228271,-0.04224434122443,0.56392312049866,9.86256313323975,1.22225999832153,0.14069898426533,-0.42572137713432
532,2047086119,3.21102643013000,0.35416391491890,15.68957519531250,-0.05092126131058,0.52624177932739,9.85163307189941,1.25612211227417,0.05466077476740,-0.38742810487747
533,2047094452,3.21117281913757,0.35339722037315,15.69073104858398,-0.04605000466108,0.55271446704865,9.85563755035400,1.30814468860626,-0.01159044075757,-0.26698997616768
534,2047102785,3.21110534667969,0.35298320651054,15.69054317474365,-0.04216600954533,0.56488859653473,9.84035205841064,1.28322196006775,0.02704863250256,-0.34777724742889
535,2047111118,3.21113801002502,0.35291370749474,15.69105911254883,-0.06317391246557,0.55205643177032,9.84435081481934,1.29495322704315,0.06818509101868,-0.32154828310013
536,2047119451,3.21153688430786,0.35296094417572,15.69145488739014,-0.04444061219692,0.58008843660355,9.83637523651123,1.33877921104431,0.08624312281609,-0.28013008832932
537,2047127784,3.21117877960205,0.35274940729141,15.69169712066650,-0.04764476418495,0.54287225008011,9.85552406311035,1.24892449378967,0.04915371537209,-0.38345789909363
538,2047136117,3.21116542816162,0.35214662551880,15.69172763824463,-0.07838800549507,0.57598984241486,9.84872817993164,1.28967678546906,0.00537898857147,-0.32144582271576
539,2047144450,3.21061658859253,0.35251766443253,15.69189548492432,-0.07380323857069,0.54658442735672,9.84055805206299,1.22474455833435,0.12571465969086,-0.25541234016418
540,2047152783,3.21091794967651,0.35271430015564,15.69214820861816,-0.06825242936611,0.57420164346695,9.84951496124268,1.32758569717407,0.10299482941628,-0.29916143417358
541,2047161116,3.21126151084900,0.35273712873459,15.69110679626465,-0.10046882927418,0.55996030569077,9.85697555541992,1.33222174644470,0.07743182778358,-0.36952376365662
542,2047169449,3.21068358421326,0.35275837779045,15.69182014465332,-0.07466137409210,0.54628407955170,9.87942790985107,1.22156846523285,0.08378415554762,-0.24465435743332
543,2047177782,3.21110987663269,0.35171899199486,15.69188690185547,-0.07908196747303,0.56074702739716,9.83786869049072,1.34249317646027,-0.04529877007008,-0.29432034492493
544,2047186115,3.21097660064697,0.35138374567032,15.69215106964111,-0.07137821614742,0.54880905151367,9.86144542694092,1.27499973773956,0.03880556300282,-0.29449963569641
545,2047194448,3.21009516716003,0.35250964760780,15.69151306152344,-0.05205870047212,0.55915904045105,9.85352611541748,1.18619513511658,0.20898653566837,-0.39375478029251
546,2047202781,3.21040296554565,0.35232821106911,15.69208145141602,-0.06137854605913,0.54320120811462,9.86853408813477,1.32788026332855,0.05956590175629,-0.25970271229744
547,2047211114,3.21114015579224,0.35233062505722,15.69221305847168,-0.06917499005795,0.58521705865860,9.85189056396484,1.37945461273193,0.07832833379507,-0.32275214791298
548,2047219447,3.21095061302185,0.35226440429688,15.69137668609619,-0.06416815519333,0.54203528165817,9.83759784698486,1.26915967464447,0.06254995614290,-0.42805227637291
549,2047227780,3.21022009849548,0.35253974795341,15.69308757781982,-0.04699417948723,0.54271483421326,9.84312057495117,1.20343363285065,0.11221596598625,-0.29767584800720
550,2047236113,3.20987224578857,0.35271960496902,15.69290447235107,-0.04456221312284,0.54061901569366,9.85566616058350,1.24997472763062,0.09810251742601,-0.35097903013229
551,2047244446,3.21062159538269,0.35290589928627,15.69383716583252,-0.06539116799831,0.54285079240799,9.87085342407227,1.38060712814331,0.10527449846268,-0.24698524177074
552,2047252779,3.21206831932068,0.35266369581223,15.69394969940186,-0.08938192576170,0.58877193927765,9.85443592071533,1.46480119228363,0.04794985055923,-0.31335175037384
553,2047261112,3.21173667907715,0.35235518217087,15.69299125671387,-0.06675033271313,0.53574079275131,9.87889862060547,1.25189566612244,0.03532202914357,-0.41596233844757
554,2047269445,3.21171283721924,0.35206100344658,15.69277667999268,-0.05265922844410,0.57291412353516,9.83158969879150,1.28893375396729,0.04131575301290,-0.35238781571388
555,2047277778,3.21228241920471,0.35113301873207,15.69251155853271,-0.06755875796080,0.54385918378830,9.84940624237061,1.35960352420807,-0.03410535305738,-0.32907885313034
556,2047286111,3.21242570877075,0.35137480497360,15.69305992126465,-0.08006892353296,0.57014596462250,9.83188343048096,1.30786275863647,0.10906542092562,-0.26412117481232
557,2047294444,3.21278691291809,0.35102322697639,15.69294166564941,-0.07390317320824,0.55167019367218,9.87076568603516,1.33452725410461,0.03483536094427,-0.34011861681938
558,2047302777,3.21255111694336,0.35042095184326,15.69313812255859,-0.07108521461487,0.56254959106445,9.86532878875732,1.26273047924042,0.00604495871812,-0.30123618245125
559,2047311110,3.21230292320251,0.34958755970001,15.69221591949463,-0.06936129182577,0.58982336521149,9.83987331390381,1.26193654537201,-0.02701021358371,-0.39232045412064
560,2047319443,3.21184182167053,0.34993109107018,15.69277858734131,-0.06639268994331,0.54852288961411,9.85249710083008,1.23581004142761,0.12169323116541,-0.26363453269005
561,2047327776,3.21155834197998,0.35028290748596,15.69267749786377,-0.04830314964056,0.55044704675674,9.84812736511230,1.25666010379791,0.12284587323666,-0.27590373158455
562,2047336109,3.21135163307190,0.35019713640213,15.69311141967773,-0.07103464752436,0.56142669916153,9.84933757781982,1.26623964309692,0.07031107693911,-0.27513527870178
563,2047344442,3.21141934394836,0.34966138005257,15.69315338134766,-0.04690119251609,0.58095389604568,9.85321998596191,1.29900026321411,0.01372922863811,-0.31209662556648
564,2047352775,3.21195578575134,0.34991905093193,15.69273185729980,-0.04975534975529,0.56492429971695,9.84039402008057,1.35627365112305,0.10532572865486,-0.38128069043159
565,2047361108,3.21188712120056,0.34956926107407,15.69231700897217,-0.04775238037109,0.56714177131653,9.84256267547607,1.28273522853851,0.03675642609596,-0.30874115228653
566,2047369441,3.21129059791565,0.35020270943642,15.69080638885498,-0.03922597691417,0.56207758188248,9.84683227539062,1.22049272060394,0.14208216965199,-0.51375752687454
567,2047377774,3.21103882789612,0.34950703382492,15.69242763519287,-0.05602095276117,0.54971748590469,9.85549545288086,1.26019465923309,0.00573758780956,-0.13023555278778
568,2047386107,3.21111416816711,0.34904024004936,15.69209384918213,-0.03560668975115,0.57546061277390,9.86518764495850,1.30063939094543,0.01841663569212,-0.36729529500008
569,2047394440,3.21111106872559,0.34918978810310,15.69300174713135,-0.06335988640785,0.54385209083557,9.85608100891113,1.29088068008423,0.10004919767380,-0.23699569702148
570,2047402773,3.21059083938599,0.34915053844452,15.69272041320801,-0.07524075359106,0.56747794151306,9.84977245330811,1.22920155525208,0.07077212631702,-0.36262071132660
571,2047411106,3.21060180664062,0.34934112429619,15.69297313690186,-0.08787997066975,0.54707795381546,9.84090900421143,1.29223811626434,0.10135552287102,-0.32375109195709
572,2047419439,3.21053719520569,0.34926283359528,15.69270133972168,-0.07535520195961,0.55096203088760,9.85044479370117,1.28365743160248,0.06611034274101,-0.36037951707840
573,2047427772,3.21019530296326,0.34877526760101,15.69269752502441,-0.07239392399788,0.54163473844528,9.84585285186768,1.25033330917358,0.01764820702374,-0.34529268741608
574,2047436105,3.20983791351318,0.34927096962929,15.69266700744629,-0.08109178394079,0.57475239038467,9.85152435302734,1.24879634380341,0.13642141222954,-0.33514943718910
575,2047444438,3.20968174934387,0.34927245974541,15.69170284271240,-0.05289527401328,0.57504564523697,9.85676765441895,1.27248954772949,0.07138687372208,-0.43194562196732
576,2047452771,3.20931816101074,0.34921291470528,15.69162940979004,-0.04729459807277,0.55857264995575,9.83732604980469,1.24789988994598,0.07008054107428,-0.33604592084885
577,2047461104,3.20882916450500,0.34846314787865,15.69229793548584,-0.05185095965862,0.54615533351898,9.83739757537842,1.23260831832886,-0.01092447154224,-0.29619023203850
578,2047469437,3.20894956588745,0.34887814521790,15.69363021850586,-0.03685144707561,0.53664201498032,9.83907127380371,1.30484032630920,0.13542245328426,-0.17134642601013
579,2047477770,3.20886611938477,0.34970375895500,15.69314479827881,-0.04468381032348,0.56612604856491,9.87651634216309,1.28107035160065,0.17499645054340,-0.37672135233879
580,2047486103,3.20860028266907,0.34908184409142,15.69337558746338,-0.04391845688224,0.56267839670181,9.87755393981934,1.25932395458221,0.00335546466522,-0.29639509320259
581,2047494436,3.20844173431396,0.34974962472916,15.69345569610596,-0.04975503310561,0.56949514150620,9.86767005920410,1.27236151695251,0.15806545317173,-0.32989853620529
582,2047502769,3.20805525779724,0.34988850355148,15.69327163696289,-0.03696589171886,0.53807258605957,9.83731937408447,1.24495422840118,0.09175018221140,-0.35202920436859
583,2047511102,3.20803284645081,0.34907332062721,15.69371700286865,-0.05177227780223,0.57556068897247,9.81581783294678,1.28783249855042,-0.01640591770411,-0.25976675748825
584,2047519435,3.20806121826172,0.34934702515602,15.69409847259521,-0.07270149886608,0.54510384798050,9.86482143402100,1.29485070705414,0.11272824555635,-0.28486871719360
585,2047527768,3.20781874656677,0.34953841567039,15.69460010528564,-0.08721461147070,0.54890918731689,9.83409309387207,1.26116812229156,0.10440362244844,-0.26027905941010
586,2047536101,3.20788025856018,0.35030335187912,15.69480514526367,-0.08345936983824,0.59404361248016,9.86576652526855,1.29897475242615,0.17000168561935,-0.30874118208885
587,2047544434,3.20808148384094,0.35163938999176,15.69391345977783,-0.08130636811256,0.53456771373749,9.83602428436279,1.31531655788422,0.23411409556866,-0.39411342144012
588,2047552767,3.20839357376099,0.35298591852188,15.69372272491455,-0.08051239699125,0.57729166746140,9.84714031219482,1.32917392253876,0.23746956884861,-0.36130160093307
589,2047561100,3.20846486091614,0.35303983092308,15.69288539886475,-0.08810156583786,0.54771465063095,9.86681747436523,1.29933309555054,0.08104343712330,-0.36511805653572
590,2047569433,3.20896983146667,0.35274735093117,15.69358062744141,-0.06889618188143,0.56061124801636,9.88791084289551,1.35145819187164,0.04748879000545,-0.24257960915565
591,2047577766,3.20897865295410,0.35322231054306,15.69271659851074,-0.06460462510586,0.56152671575546,9.86172389984131,1.29208445549011,0.13357824087143,-0.34206530451775
592,2047586099,3.20917177200317,0.35314530134201,15.69277286529541,-0.05586355924606,0.56083303689957,9.86219787597656,1.31465065479279,0.06764720380306,-0.32149705290794
593,2047594432,3.20883131027222,0.35380116105080,15.69227123260498,-0.04060685262084,0.57309287786484,9.84897136688232,1.25033330917358,0.15296821296215,-0.38496917486191
594,2047602765,3.20816326141357,0.35394230484962,15.69172763824463,-0.03527749702334,0.53556203842163,9.86190509796143,1.21175813674927,0.09151966124773,-0.39539414644241
595,2047611098,3.20834040641785,0.35351532697678,15.69180107116699,-0.01855447515845,0.53861624002457,9.82641124725342,1.31214058399200,0.02533248066902,-0.31570824980736
596,2047619431,3.20877766609192,0.35424751043320,15.69189834594727,-0.04860342293978,0.54014700651169,9.84326457977295,1.34349215030670,0.16569849848747,-0.32290583848953
597,2047627764,3.20937633514404,0.35382297635078,15.69169712066650,-0.03330378979445,0.59028112888336,9.85424900054932,1.36318945884705,0.02722793072462,-0.32349494099617
598,2047636097,3.20915842056274,0.35361135005951,15.69127559661865,-0.05182966217399,0.57225596904755,9.85529994964600,1.26585555076599,0.04871827736497,-0.37795087695122
599,2047644430,3.20912861824036,0.35342028737068,15.69097137451172,-0.06481175124645,0.55398774147034,9.83931636810303,1.28711521625519,0.05322637781501,-0.34639409184456
600,2047652763,3.20981669425964,0.35316234827042,15.69211006164551,-0.05783788859844,0.56173419952393,9.85957145690918,1.37315356731415,0.05340568348765,-0.19035220146179
601,2047661096,3.21005821228027,0.35207214951515,15.69228458404541,-0.10951002687216,0.53930288553238,9.85615253448486,1.31979906558990,-0.04757843911648,-0.23825079202652
602,2047669429,3.20961976051331,0.35299921035767,15.69252014160156,-0.09518288075924,0.56125497817993,9.86765480041504,1.23808968067169,0.18926356732845,-0.30641025304794
603,2047677762,3.20952486991882,0.35303366184235,15.69173336029053,-0.09478947520256,0.57257080078125,9.85826969146729,1.28007137775421,0.08019816875458,-0.36122474074364
604,2047686095,3.20978236198425,0.35391739010811,15.69167709350586,-0.10331566631794,0.57826441526413,9.87742519378662,1.32218122482300,0.18157930672169,-0.34193724393845
605,2047694428,3.20905804634094,0.35470753908157,15.69156074523926,-0.06183632835746,0.57513147592545,9.85716152191162,1.20456063747406,0.17205081880093,-0.35622999072075
606,2047702761,3.20844793319702,0.35579150915146,15.69142055511475,-0.04615014418960,0.53407418727875,9.86809062957764,1.21841788291931,0.20555423200130,-0.35279762744904
607,2047711094,3.20900940895081,0.35622945427895,15.69138336181641,-0.03245227783918,0.56163412332535,9.85115432739258,1.35839962959290,0.12645745277405,-0.37316092848778
608,2047719427,3.20921874046326,0.35562694072723,15.69191741943359,-0.03793879970908,0.55533951520920,9.86746692657471,1.31641793251038,0.00986147951335,-0.25997167825699
609,2047727760,3.20945811271667,0.35550454258919,15.69203186035156,-0.04125044494867,0.58406537771225,9.84484386444092,1.31915879249573,0.06221697479486,-0.32259848713875
610,2047736093,3.20994877815247,0.35543221235275,15.69091892242432,-0.02376174367964,0.54031145572662,9.84140396118164,1.35130441188812,0.06078257411718,-0.46247783303261
611,2047744426,3.22695994377136,0.35534563660622,15.69142532348633,-0.03993432223797,0.55402344465256,9.88001441955566,1.27154171466827,-0.02921303361654,-0.35763874650002
612,2047752759,3.22615289688110,0.35521268844604,15.69187164306641,-0.04609292000532,0.54115545749664,9.84812736511230,1.19408428668976,0.06393313407898,-0.27400830388069
613,2047761092,3.22607064247131,0.35488706827164,15.69284152984619,-0.04837467521429,0.54164189100266,9.84733295440674,1.27961027622223,0.04467123001814,-0.21007516980171
614,2047769425,3.22605109214783,0.35453933477402,15.69229984283447,-0.07307344675064,0.57764214277267,9.83967971801758,1.28778123855591,0.03150551021099,-0.39301201701164
615,2047777758,3.22577595710754,0.35482412576675,15.69323444366455,-0.08478264510632,0.55388754606247,9.84385681152344,1.25637817382812,0.11726196855307,-0.21717028319836
616,2047786091,3.22547245025635,0.35550892353058,15.69291973114014,-0.08840899169445,0.56257110834122,9.85200405120850,1.25381672382355,0.15739947557449,-0.37193146348000
617,2047794424,3.22524023056030,0.35576179623604,15.69271659851074,-0.11418798565865,0.53840166330338,9.83279132843018,1.26267933845520,0.10704189538956,-0.35318186879158
618,2047802757,3.22543692588806,0.35577774047852,15.69311141967773,-0.10964593291283,0.55955976247787,9.86080169677734,1.31313931941986,0.08088975399733,-0.28156447410583
619,2047811090,3.22550153732300,0.35565021634102,15.69359302520752,-0.07873134315014,0.57275676727295,9.86914920806885,1.29743790626526,0.06564928591251,-0.26967945694923
620,2047819423,3.22593903541565,0.35620906949043,15.69479179382324,-0.06175773218274,0.55744242668152,9.86534976959229,1.34151995182037,0.15232785046101,-0.18989111483097
621,2047827756,3.22544741630554,0.35626247525215,15.69361019134521,-0.04520596563816,0.60043108463287,9.86560916900635,1.23227524757385,0.07497286796570,-0.47011083364487
622,2047836089,3.22435116767883,0.35603991150856,15.69277667999268,-0.03801735863090,0.53734302520752,9.85124588012695,1.15868556499481,0.04559333994985,-0.42769366502762
623,2047844422,3.22421097755432,0.35590866208076,15.69256782531738,-0.03099326789379,0.55862271785736,9.83282756805420,1.27374458312988,0.05965555459261,-0.35261833667755
624,2047852755,3.22354841232300,0.35635581612587,15.69305324554443,-0.02401209436357,0.53198552131653,9.84163284301758,1.20973455905914,0.13352699577808,-0.27262511849403
625,2047861088,3.22259569168091,0.35617828369141,15.69413566589355,-0.03005624562502,0.57217019796371,9.84473705291748,1.17546272277832,0.06431734561920,-0.19816450774670
626,2047869421,3.22300863265991,0.35692182183266,15.69393730163574,-0.05316008999944,0.56967377662659,9.84660243988037,1.33977806568146,0.16490443050861,-0.35710084438324
627,2047877754,3.22319865226746,0.35704487562180,15.69427204132080,-0.05923269316554,0.54293656349182,9.85747623443604,1.31256306171417,0.09342791140079,-0.28997874259949
628,2047886087,3.22347712516785,0.35767415165901,15.69471931457520,-0.07150696963072,0.56037515401840,9.85796928405762,1.32271909713745,0.15581138432026,-0.27856761217117
629,2047894420,3.22361207008362,0.35720175504684,15.69573688507080,-0.08021913468838,0.54087650775909,9.84981536865234,1.30583918094635,0.02312965318561,-0.27956655621529
630,2047902753,3.22351479530334,0.35783979296684,15.69709682464600,-0.09371654689312,0.56920176744461,9.85446453094482,1.27730512619019,0.16380304098129,-0.16939975321293
631,2047911086,3.22356939315796,0.35770985484123,15.69699382781982,-0.09277938306332,0.57111167907715,9.86496639251709,1.29674625396729,0.06198645010591,-0.31319802999496
632,2047919419,3.22409296035767,0.35793766379356,15.69689464569092,-0.10883034765720,0.57754921913147,9.84857940673828,1.35309743881226,0.10348149389029,-0.34319227933884
633,2047927752,3.22392606735229,0.35691961646080,15.69610977172852,-0.08057677745819,0.54639852046967,9.83769798278809,1.27100396156311,-0.05323918536305,-0.46593576669693
634,2047936085,3.22371268272400,0.35635793209076,15.69580936431885,-0.07686445116997,0.55295050144196,9.88042926788330,1.26434421539307,0.00804287008941,-0.36058437824249
635,2047944418,3.22414040565491,0.35637962818146,15.69602966308594,-0.05889637395740,0.56234228610992,9.84444427490234,1.34118700027466,0.08176063001156,-0.29562667012215
636,2047952751,3.22426033020020,0.35654878616333,15.69604969024658,-0.05257353559136,0.54169189929962,9.82076644897461,1.30458414554596,0.09756461530924,-0.32790061831474
637,2047961084,3.22460365295410,0.35657724738121,15.69710826873779,-0.03672283887863,0.57791388034821,9.85929870605469,1.33119750022888,0.08168379962444,-0.31739878654480
638,2047969417,3.22400164604187,0.35673880577087,15.69688129425049,-0.02925512753427,0.52839481830597,9.85917091369629,1.21800816059113,0.09374809265137,-0.35692158341408
639,2047977750,3.22367525100708,0.35633894801140,15.69534111022949,-0.03254543617368,0.55765712261200,9.85377788543701,1.25043570995331,0.02861109934747,-0.34941658377647
640,2047986083,3.22409486770630,0.35624679923058,15.69567966461182,-0.04610007256269,0.55777156352997,9.83592414855957,1.34008550643921,0.06772403419018,-0.28737890720367
641,2047994416,3.22381973266602,0.35614252090454,15.69511890411377,-0.03704457357526,0.54252165555954,9.82801342010498,1.25678801536560,0.06744228303432,-0.27969464659691
642,2048002749,3.22441077232361,0.35642293095589,15.69550132751465,-0.06585635989904,0.56492429971695,9.85680198669434,1.36060249805450,0.11411140859127,-0.28407466411591
643,2048011082,3.22400307655334,0.35690018534660,15.69490432739258,-0.09321585297585,0.56286436319351,9.87145233154297,1.24149632453918,0.13237436115742,-0.35756191611290
644,2048019415,3.22324037551880,0.35660344362259,15.69506931304932,-0.08558402210474,0.55827218294144,9.83388423919678,1.19818258285522,0.04351858422160,-0.30810081958771
645,2048027748,3.22317838668823,0.35655060410500,15.69425201416016,-0.09307994693518,0.54880189895630,9.85276222229004,1.28332436084747,0.06552121043205,-0.42410773038864
646,2048036081,3.22341465950012,0.35589328408241,15.69478321075439,-0.09707134962082,0.57320016622543,9.84871292114258,1.31787812709808,0.00133194029331,-0.25986921787262
647,2048044414,3.22282338142395,0.35579586029053,15.69483280181885,-0.09779366850853,0.58110409975052,9.88368415832520,1.21934008598328,0.06587980687618,-0.32336691021919
648,2048052747,3.22382426261902,0.35578158497810,15.69523525238037,-0.09882381558418,0.57616859674454,9.86922645568848,1.40942311286926,0.07730375230312,-0.27987390756607
649,2048061080,3.22372078895569,0.35578089952469,15.69532775878906,-0.08041226118803,0.58990210294724,9.84825611114502,1.27756118774414,0.07886622846127,-0.31811597943306
650,2048069413,3.22311091423035,0.35571315884590,15.69478130340576,-0.04248788580298,0.53755760192871,9.84015846252441,1.21754693984985,0.06577735394239,-0.39324250817299
651,2048077746,3.22202086448669,0.35535115003586,15.69452857971191,-0.04912572726607,0.56465256214142,9.85878467559814,1.15927469730377,0.03124937042594,-0.35607627034187
652,2048086079,3.22191715240479,0.35506919026375,15.69422912597656,-0.05474770069122,0.55106222629547,9.85003089904785,1.27753555774689,0.04154628515244,-0.36376053094864
653,2048094412,3.22128748893738,0.35473424196243,15.69485282897949,-0.02914068289101,0.54793637990952,9.83638191223145,1.21411466598511,0.04200734570622,-0.25085300207138
654,2048102745,3.22128748893738,0.35492065548897,15.69479274749756,-0.04358227178454,0.56775689125061,9.86356258392334,1.29011213779449,0.09807690232992,-0.33740350604057
655,2048111078,3.22054553031921,0.35513645410538,15.69497585296631,-0.05926130339503,0.54039013385773,9.87221050262451,1.20076966285706,0.10471098870039,-0.30879241228104
656,2048119411,3.22035741806030,0.35460916161537,15.69514274597168,-0.06496927142143,0.54131287336349,9.85693931579590,1.26757156848907,0.01488186977804,-0.30413061380386
657,2048127744,3.21987104415894,0.35513600707054,15.69494819641113,-0.07016967982054,0.52760070562363,9.85226058959961,1.23196780681610,0.13939265906811,-0.35520538687706
658,2048136077,3.21962666511536,0.35566395521164,15.69487285614014,-0.06868159770966,0.53538316488266,9.84083080291748,1.26039946079254,0.13982810080051,-0.34221896529198
659,2048144410,3.21974468231201,0.35492330789566,15.69530391693115,-0.06401079148054,0.55655556917191,9.85380649566650,1.30399513244629,-0.00813252013177,-0.27016615867615
660,2048152743,3.21920442581177,0.35425528883934,15.69612693786621,-0.07597749680281,0.54663455486298,9.84920024871826,1.22469341754913,0.00207475270145,-0.22600719332695
661,2048161076,3.21891570091248,0.35475632548332,15.69644737243652,-0.09718567878008,0.57367944717407,9.83623886108398,1.25491809844971,0.13964881002903,-0.29432034492493
662,2048169409,3.21945786476135,0.35470226407051,15.69671726226807,-0.06646407395601,0.53272235393524,9.86429405212402,1.35466003417969,0.07207845151424,-0.29660004377365
663,2048177742,3.21988320350647,0.35497480630875,15.69756793975830,-0.06119972467422,0.56260687112808,9.85053062438965,1.34067451953888,0.11674968153238,-0.22805631160736
664,2048186075,3.22031211853027,0.35523360967636,15.69748115539551,-0.06716519594193,0.55129104852676,9.85347747802734,1.34136641025543,0.10740048438311,-0.34137374162674
665,2048194408,3.22006201744080,0.35477679967880,15.69750118255615,-0.05754462257028,0.57729882001877,9.85222530364990,1.26027154922485,0.02246368117630,-0.32377672195435
666,2048202741,3.22075772285461,0.35438290238380,15.69669723510742,-0.04344636946917,0.54674899578094,9.84631061553955,1.37389636039734,0.02471773698926,-0.42200732231140
667,2048211074,3.21997284889221,0.35432419180870,15.69696712493896,-0.04951937124133,0.53909540176392,9.82394218444824,1.19577491283417,0.07100266218185,-0.29539614915848
668,2048219407,3.21987485885620,0.35387417674065,15.69641017913818,-0.03928341343999,0.56463825702667,9.84570217132568,1.27830386161804,0.02003032900393,-0.39301195740700
669,2048227740,3.22025156021118,0.35394597053528,15.69688129425049,-0.05141463503242,0.53325873613358,9.87527942657471,1.33488583564758,0.08831787854433,-0.27283000946045
670,2048236073,3.22077226638794,0.35286808013916,15.69767379760742,-0.06768735498190,0.59581750631332,9.85070228576660,1.35204732418060,-0.04688685014844,-0.22552052140236
671,2048244406,3.22159361839294,0.35282480716705,15.69730854034424,-0.05995530635118,0.56078279018402,9.84434223175049,1.38918805122375,0.07146371901035,-0.37262308597565
672,2048252739,3.22177195549011,0.35332602262497,15.69727706909180,-0.05634294450283,0.57747763395309,9.85462188720703,1.31132066249847,0.13590914011002,-0.33461156487465
673,2048261072,3.22203278541565,0.35381969809532,15.69697380065918,-0.05934014916420,0.55216366052628,9.83916378021240,1.32138705253601,0.13378314673901,-0.36944690346718
674,2048269405,3.22177100181580,0.35388195514679,15.69711399078369,-0.07172870635986,0.55785739421844,9.84128952026367,1.25837612152100,0.08593575656414,-0.31196856498718
675,2048277738,3.22130107879639,0.35408556461334,15.69756984710693,-0.08546932041645,0.55090481042862,9.85105991363525,1.23317182064056,0.10450609028339,-0.27559638023376
676,2048286071,3.22152948379517,0.35427805781364,15.69788074493408,-0.08006905764341,0.55083322525024,9.87090778350830,1.31741702556610,0.10209833830595,-0.29260420799255
677,2048294404,3.22195577621460,0.35417506098747,15.69754409790039,-0.08405288308859,0.55693471431732,9.84587574005127,1.34128940105438,0.06313908845186,-0.36798691749573
678,2048302737,3.22229552268982,0.35374978184700,15.69692897796631,-0.08390285074711,0.55168449878693,9.87746143341064,1.33140230178833,0.02133665792644,-0.39933872222900
679,2048311070,3.22184348106384,0.35363322496414,15.69659137725830,-0.05721559002995,0.55958837270737,9.85531616210938,1.23606610298157,0.06214013323188,-0.36855039000511
680,2048319403,3.22218942642212,0.35371282696724,15.69641017913818,-0.05690086632967,0.55842959880829,9.86407756805420,1.33137655258179,0.08544907718897,-0.35164502263069
681,2048327736,3.22231340408325,0.35415360331535,15.69658756256104,-0.03421920165420,0.57622587680817,9.84123229980469,1.30514752864838,0.13134980201721,-0.30835691094398
682,2048336069,3.22259998321533,0.35421288013458,15.69673156738281,-0.06825958192348,0.57973074913025,9.87170314788818,1.32384622097015,0.08445013314486,-0.31242963671684
683,2048344402,3.22274208068848,0.35479044914246,15.69700431823730,-0.03902577981353,0.57205581665039,9.83027458190918,1.30729937553406,0.14943344891071,-0.30023726820946
684,2048352735,3.22231197357178,0.35400164127350,15.69635200500488,-0.05536300316453,0.57410150766373,9.83667564392090,1.23860192298889,-0.02291193231940,-0.40277102589607
685,2048361068,3.22224068641663,0.35436427593231,15.69502353668213,-0.05803101509809,0.54237145185471,9.83246231079102,1.28268408775330,0.11280509829521,-0.48950088024139
686,2048369401,3.22211980819702,0.35424751043320,15.69501209259033,-0.03796743601561,0.56936621665955,9.84004306793213,1.27553772926331,0.06301102042198,-0.32866904139519
687,2048377734,3.22206068038940,0.35401326417923,15.69570636749268,-0.05052052810788,0.55415934324265,9.82206249237061,1.28242790699005,0.05381550639868,-0.24424453079700
688,2048386067,3.22165346145630,0.35384625196457,15.69551563262939,-0.06481906026602,0.58922976255417,9.82603931427002,1.24108660221100,0.05504499375820,-0.35000574588776
689,2048394400,3.22113609313965,0.35412323474884,15.69426536560059,-0.07130669057369,0.56478130817413,9.84486579895020,1.22886860370636,0.10227765142918,-0.48040780425072
690,2048402733,3.22086548805237,0.35452705621719,15.69410133361816,-0.07293739169836,0.55350846052170,9.88784694671631,1.25753068923950,0.12353744357824,-0.35136327147484
691,2048411066,3.22007846832275,0.35364589095116,15.69408416748047,-0.10327247530222,0.55376601219177,9.85350704193115,1.19572365283966,-0.02716389484704,-0.32408410310745
692,2048419399,3.21911573410034,0.35292550921440,15.69430446624756,-0.07524790614843,0.54186362028122,9.85816287994385,1.17400276660919,-0.00797883421183,-0.29790636897087
693,2048427732,3.21995782852173,0.35316607356071,15.69474697113037,-0.08700717985630,0.58498096466064,9.85409259796143,1.39082717895508,0.10783592611551,-0.27782475948334
694,2048436065,3.21946287155151,0.35282099246979,15.69446659088135,-0.08436778187752,0.55795753002167,9.85869884490967,1.23053348064423,0.03483536094427,-0.35994404554367
695,2048444398,3.21967196464539,0.35354873538017,15.69427585601807,-0.07588451355696,0.56959521770477,9.88714599609375,1.31577754020691,0.16282968223095,-0.35487240552902
696,2048452731,3.21982908248901,0.35291081666946,15.69385910034180,-0.05471209436655,0.56265693902969,9.83996582031250,1.30896425247192,-0.00201071752235,-0.37354522943497
697,2048461064,3.21937084197998,0.35365471243858,15.69437789916992,-0.04827453568578,0.55744248628616,9.84214019775391,1.23460626602173,0.17033468186855,-0.27372652292252
698,2048469397,3.21924257278442,0.35289791226387,15.69451427459717,-0.03391878306866,0.56223493814468,9.86879920959473,1.27451324462891,-0.01274308189750,-0.30559062957764
699,2048477730,3.21871995925903,0.35278582572937,15.69454193115234,-0.04382546991110,0.54979610443115,9.85240459442139,1.22735738754272,0.06354892253876,-0.32513430714607
