sep=,
DeviceTag:,Xsens DOT
FirmwareVersion:,3.0.0
AppVersion:,2023.6.0
StartTime: ,2025-03-06_12:42:08_000 PST
© Movella Technologies B. V. 2005-2025

PacketCounter,SampleTimeFine,Euler_X,Euler_Y,Euler_Z,Acc_X,Acc_Y,Acc_Z,Gyr_X,Gyr_Y,Gyr_Z
0,1952264912,3.23708343505859,0.37947207689285,15.77628612518311,0.00000000000000,0.00000000000000,0.00000000000000,0.00000000000000,0.00000000000000,0.00000000000000
1,1952273245,3.23686981201172,0.38020920753479,15.77653312683105,-0.05930409580469,0.53014731407166,9.83781433105469,1.26358854770660,0.16209967434406,-0.30468136072159
2,1952281578,3.23736715316772,0.38053169846535,15.77570724487305,-0.07256559282541,0.54808658361435,9.84376430511475,1.34978044033051,0.10736205428839,-0.42030397057533
3,1952289911,3.23770427703857,0.37961828708649,15.77551364898682,-0.06992619484663,0.55970281362534,9.84659671783447,1.32890486717224,-0.03837012499571,-0.34802064299583
4,1952298244,3.23807263374329,0.37933930754662,15.77513504028320,-0.07260850816965,0.55648404359818,9.87043666839600,1.33512926101685,0.03943311423063,-0.34166827797890
5,1952306577,3.23755121231079,0.37885016202927,15.77507019042969,-0.09901680797338,0.53668493032455,9.83163261413574,1.22542321681976,0.01438239216805,-0.33477804064751
6,1952314910,3.23718309402466,0.37872046232224,15.77464008331299,-0.08997543156147,0.56669831275940,9.85608863830566,1.24839937686920,0.05290620028973,-0.41866463422775
7,1952323243,3.23768138885498,0.37857288122177,15.77464962005615,-0.08055531978607,0.55089050531387,9.85472202301025,1.34780812263489,0.05523709952831,-0.32722184062004
8,1952331576,3.23763799667358,0.37824267148972,15.77600955963135,-0.08839483559132,0.55226385593414,9.84101009368896,1.28425920009613,0.04509386047721,-0.12758448719978
9,1952339909,3.23833680152893,0.37791070342064,15.77612209320068,-0.07900299876928,0.56558966636658,9.83728504180908,1.37226986885071,0.03407973796129,-0.31405612826347
10,1952348242,3.23816704750061,0.37785750627518,15.77586746215820,-0.06104936078191,0.56171995401382,9.85281372070312,1.26953113079071,0.06545717269182,-0.35222133994102
11,1952356575,3.23768997192383,0.37899437546730,15.77547264099121,-0.04735150188208,0.54004693031311,9.85419368743896,1.23180139064789,0.20566949248314,-0.38613462448120
12,1952364908,3.23713088035583,0.37896844744682,15.77586269378662,-0.04831030219793,0.52592706680298,9.87975025177002,1.22365605831146,0.06986282765865,-0.34128406643867
13,1952373241,3.23713469505310,0.37912303209305,15.77651500701904,-0.04785251989961,0.56891566514969,9.83990859985352,1.28889560699463,0.09619426727295,-0.25247949361801
14,1952381574,3.23666167259216,0.37969008088112,15.77560997009277,-0.04796696454287,0.55219948291779,9.84398555755615,1.23364555835724,0.13914932310581,-0.36374774575233
15,1952389907,3.23620319366455,0.38047543168068,15.77513504028320,-0.05753747001290,0.54463177919388,9.86660289764404,1.23433721065521,0.16307301819324,-0.39266622066498
16,1952398240,3.23592782020569,0.38092920184135,15.77505588531494,-0.06255179643631,0.54717099666595,9.87312698364258,1.25779986381531,0.12396009266376,-0.41036564111710
17,1952406573,3.23630380630493,0.38091593980789,15.77501010894775,-0.07930341362953,0.53547620773315,9.84549617767334,1.33402764797211,0.07109230011702,-0.33536714315414
18,1952414906,3.23657941818237,0.38122564554214,15.77458858489990,-0.07963960617781,0.55197066068649,9.84760665893555,1.32339799404144,0.11115296930075,-0.32809275388718
19,1952423239,3.23634982109070,0.38084807991982,15.77522563934326,-0.09105547517538,0.55432391166687,9.84646224975586,1.26079654693604,0.03128778561950,-0.25206968188286
20,1952431572,3.23630213737488,0.38083741068840,15.77565097808838,-0.08496146649122,0.56636923551559,9.82934379577637,1.28513026237488,0.07503689080477,-0.28903099894524
21,1952439905,3.23532772064209,0.38075542449951,15.77500534057617,-0.09611275047064,0.54049742221832,9.84581661224365,1.17191517353058,0.05738868936896,-0.40693333745003
22,1952448238,3.23499631881714,0.38027572631836,15.77535152435303,-0.09068347513676,0.55013954639435,9.83458805084229,1.25090944766998,0.01809645630419,-0.31618207693100
23,1952456571,3.23411059379578,0.38099399209023,15.77528476715088,-0.08675683289766,0.54367327690125,9.83627510070801,1.18200731277466,0.15669509768486,-0.34361493587494
24,1952464904,3.23429179191589,0.38055175542831,15.77627849578857,-0.05519849061966,0.53339463472366,9.84525203704834,1.31287050247192,0.02460247278214,-0.26764315366745
25,1952473237,3.23436713218689,0.38100039958954,15.77702713012695,-0.06388192623854,0.56681996583939,9.83931636810303,1.29660534858704,0.13115768134594,-0.24389874935150
26,1952481570,3.23448991775513,0.38147252798080,15.77783584594727,-0.03674415498972,0.56917315721512,9.85372829437256,1.30421292781830,0.13569140434265,-0.23285900056362
27,1952489903,3.23431134223938,0.38051298260689,15.77728462219238,-0.07233670353889,0.56755661964417,9.82455158233643,1.26773810386658,-0.04613123089075,-0.38961809873581
28,1952498236,3.23448872566223,0.38009509444237,15.77734661102295,-0.03093604557216,0.53305846452713,9.84224796295166,1.31225574016571,0.02406457439065,-0.32445549964905
29,1952506569,3.23449802398682,0.38037347793579,15.77790069580078,-0.02934084646404,0.55584037303925,9.85606098175049,1.28979194164276,0.10902699083090,-0.26564520597458
30,1952514902,3.23452925682068,0.37954333424568,15.77749156951904,-0.04705855250359,0.54271483421326,9.87448501586914,1.29350602626801,-0.02635704912245,-0.34297463297844
31,1952523235,3.23508381843567,0.37954002618790,15.77866268157959,-0.04324600100517,0.55943107604980,9.84294223785400,1.35515952110291,0.07946816086769,-0.19049304723740
32,1952531568,3.23512411117554,0.37936925888062,15.77892017364502,-0.06896056234837,0.54466754198074,9.85073089599609,1.29529893398285,0.05574937537313,-0.28467658162117
33,1952539901,3.23482918739319,0.37888860702515,15.77927589416504,-0.06147868558764,0.55970281362534,9.82917881011963,1.25213897228241,0.01840382628143,-0.28557309508324
34,1952548234,3.23500609397888,0.37832778692245,15.77840328216553,-0.07635659724474,0.54601943492889,9.83747673034668,1.31123101711273,0.00157527520787,-0.40470489859581
35,1952556567,3.23416566848755,0.37858098745346,15.77840614318848,-0.07768013328314,0.54587626457214,9.85694503784180,1.18887186050415,0.10213675349951,-0.33183237910271
36,1952564900,3.23422622680664,0.37871164083481,15.77888965606689,-0.08847337961197,0.55154865980148,9.85382938385010,1.29619538784027,0.09163491427898,-0.29525527358055
37,1952573233,3.23487687110901,0.37844929099083,15.77905750274658,-0.11154157668352,0.54796493053436,9.85713100433350,1.36653220653534,0.04222506284714,-0.30911257863045
38,1952581566,3.23514556884766,0.37846836447716,15.78001499176025,-0.06960431486368,0.56748509407043,9.85576629638672,1.32398688793182,0.07931447774172,-0.26546591520309
39,1952589899,3.23450493812561,0.37880963087082,15.77974700927734,-0.06213674694300,0.55553984642029,9.87392711639404,1.21107947826385,0.11171648651361,-0.36367091536522
40,1952598232,3.23428058624268,0.37850812077522,15.77834892272949,-0.05242318660021,0.54926681518555,9.83427238464355,1.26425445079803,0.03825486078858,-0.33224222064018
41,1952606565,3.23405742645264,0.37937521934509,15.77860450744629,-0.06197235733271,0.53536874055862,9.85558605194092,1.26137304306030,0.17799331247807,-0.30456602573395
42,1952614898,3.23354029655457,0.37886679172516,15.77917861938477,-0.04766654595733,0.54267191886902,9.82275581359863,1.22788238525391,0.01917225494981,-0.20514442026615
43,1952623231,3.23343658447266,0.37914189696312,15.77939987182617,-0.04148649051785,0.56864386796951,9.83030223846436,1.27514076232910,0.10656803101301,-0.30486068129539
44,1952631564,3.23340678215027,0.37951117753983,15.77984905242920,-0.02593620866537,0.54534703493118,9.84959316253662,1.28712809085846,0.12093761563301,-0.27263790369034
45,1952639897,3.23288893699646,0.37958550453186,15.77957439422607,-0.03153688460588,0.55921643972397,9.84212589263916,1.22642230987549,0.08021097630262,-0.36341473460197
46,1952648230,3.23358297348022,0.37901410460472,15.78042125701904,-0.06308092176914,0.53270083665848,9.85628890991211,1.37196242809296,0.01105254143476,-0.21992380917072
47,1952656563,3.23335289955139,0.37877941131592,15.77981376647949,-0.06157167255878,0.54533988237381,9.85702514648438,1.26209020614624,0.04013750329614,-0.40123417973518
48,1952664896,3.23331665992737,0.37844860553741,15.77966690063477,-0.07406053692102,0.52622747421265,9.84646034240723,1.28689765930176,0.03482255339622,-0.30632063746452
49,1952673229,3.23302078247070,0.37820279598236,15.78010559082031,-0.08474688231945,0.55789315700531,9.87365531921387,1.25244641304016,0.04588789865375,-0.27542987465858
50,1952681562,3.23269510269165,0.37861391901970,15.77990245819092,-0.11189192533493,0.54488211870193,9.82747650146484,1.25134503841400,0.12144988775253,-0.35875293612480
51,1952689895,3.23186421394348,0.37842652201653,15.78005218505859,-0.09356633573771,0.56263548135757,9.86615943908691,1.18887186050415,0.05170233175159,-0.31205824017525
52,1952698228,3.23138165473938,0.37874856591225,15.78020286560059,-0.06474059075117,0.53375220298767,9.86319732666016,1.23280012607574,0.11645511537790,-0.25798657536507
53,1952706561,3.23136162757874,0.37890440225601,15.77968215942383,-0.06073478981853,0.55620509386063,9.85552310943604,1.28594982624054,0.08710119873285,-0.39225640892982
54,1952714894,3.23078894615173,0.37889072299004,15.77950286865234,-0.06803042441607,0.55924510955811,9.86533069610596,1.22170948982239,0.07275723665953,-0.31766772270203
55,1952723227,3.23111915588379,0.37945190072060,15.77992248535156,-0.05373215675354,0.55160576105118,9.86661720275879,1.32781636714935,0.14326040446758,-0.28246095776558
56,1952731560,3.23149752616882,0.38007894158363,15.78014850616455,-0.03512746095657,0.55146282911301,9.86206245422363,1.33643543720245,0.14813992381096,-0.33393278717995
57,1952739893,3.23168706893921,0.38028091192245,15.78031349182129,-0.02924797497690,0.54270052909851,9.83015918731689,1.31107735633850,0.09806409478188,-0.31095683574677
58,1952748226,3.23144817352295,0.38060647249222,15.77927207946777,0.00247469148599,0.55227810144424,9.85002899169922,1.26264083385468,0.10664486140013,-0.44886386394501
59,1952756559,3.23189830780029,0.37989217042923,15.77918338775635,-0.05163652822375,0.54521822929382,9.85781764984131,1.34319758415222,-0.01419028546661,-0.33564892411232
60,1952764892,3.23146414756775,0.38004642724991,15.77952194213867,-0.06342400610447,0.56234228610992,9.86562442779541,1.23782074451447,0.09317178279161,-0.30849784612656
61,1952773225,3.23158407211304,0.37994995713234,15.77921962738037,-0.07233653962612,0.56064707040787,9.82008934020996,1.30272710323334,0.05897677689791,-0.36533585190773
62,1952781558,3.23201632499695,0.37943094968796,15.78044509887695,-0.06445426493883,0.53260785341263,9.84361362457275,1.34143030643463,0.01622661761940,-0.23040002584457
63,1952789891,3.23216581344604,0.37974125146866,15.78062820434570,-0.07140683382750,0.55667001008987,9.85000801086426,1.30690217018127,0.11166524887085,-0.30916377902031
64,1952798224,3.23250937461853,0.37912127375603,15.78057193756104,-0.08639919012785,0.54851573705673,9.84451484680176,1.33110773563385,-0.00220282422379,-0.33833840489388
65,1952806557,3.23310732841492,0.37874406576157,15.78048324584961,-0.08990408480167,0.54898786544800,9.84918594360352,1.36135804653168,0.02667722478509,-0.33787736296654
66,1952814890,3.23323869705200,0.37896394729614,15.78091621398926,-0.08406020700932,0.54141300916672,9.83930015563965,1.30580079555511,0.10398097336292,-0.27630072832108
67,1952823223,3.23375105857849,0.37908726930618,15.78167819976807,-0.06520542502403,0.56056821346283,9.85684490203857,1.34901201725006,0.09260825812817,-0.24028712511063
68,1952831556,3.23370218276978,0.37916347384453,15.78134346008301,-0.06891048699617,0.54406666755676,9.85847759246826,1.28633403778076,0.08021097630262,-0.38083243370056
69,1952839889,3.23406505584717,0.37920731306076,15.78063678741455,-0.03781726956367,0.53472501039505,9.85182380676270,1.33192729949951,0.07260353863239,-0.41533479094505
70,1952848222,3.23343968391418,0.37847563624382,15.78074550628662,-0.03701596334577,0.54124850034714,9.84674644470215,1.21487033367157,-0.01554783992469,-0.33877390623093
71,1952856555,3.23288488388062,0.37900140881538,15.78169155120850,-0.03738075867295,0.54444581270218,9.85739040374756,1.22138929367065,0.14274813234806,-0.22069224715233
72,1952864888,3.23292350769043,0.37950393557549,15.77963638305664,-0.02808206155896,0.56926614046097,9.87040138244629,1.29632365703583,0.12682889401913,-0.43915608525276
73,1952873221,3.23262119293213,0.37983798980713,15.77865600585938,-0.03525636345148,0.55437391996384,9.82578182220459,1.25400900840759,0.10654242336750,-0.45037510991096
74,1952881554,3.23176002502441,0.37944167852402,15.77861499786377,-0.03542087972164,0.54407382011414,9.84951496124268,1.18746316432953,0.02455124445260,-0.34983924031258
75,1952889887,3.23159265518188,0.38023421168327,15.77854156494141,-0.08005461841822,0.53392398357391,9.85834884643555,1.26850664615631,0.16647972166538,-0.34466516971588
76,1952898220,3.23175716400146,0.38003337383270,15.77835178375244,-0.05711529031396,0.55026829242706,9.84576797485352,1.31048810482025,0.04939704760909,-0.35352763533592
77,1952906553,3.23218631744385,0.38026022911072,15.77835655212402,-0.06046298146248,0.58711248636246,9.87547206878662,1.33917605876923,0.09972901642323,-0.33091029524803
78,1952914886,3.23212456703186,0.37982615828514,15.77825641632080,-0.09433884918690,0.54595506191254,9.83515930175781,1.28367030620575,0.01904418505728,-0.35452666878700
79,1952923219,3.23173594474792,0.37989038228989,15.77768230438232,-0.08710017055273,0.56183433532715,9.86493587493896,1.24266195297241,0.07716289162636,-0.39858314394951
80,1952931552,3.23105430603027,0.38013789057732,15.77651500701904,-0.08152095228434,0.54392361640930,9.83083152770996,1.20995235443115,0.09826900810003,-0.41676923632622
81,1952939885,3.23011112213135,0.37978249788284,15.77618694305420,-0.06886786967516,0.56089729070663,9.85937023162842,1.17606472969055,0.02841899357736,-0.36682143807411
82,1952948218,3.22999262809753,0.38020110130310,15.77563858032227,-0.06000519916415,0.56021064519882,9.82644653320312,1.27539670467377,0.12201340496540,-0.36218529939651
83,1952956551,3.22952413558960,0.37983405590057,15.77512073516846,-0.06179307773709,0.55241411924362,9.85887908935547,1.23254418373108,0.02411580272019,-0.39084759354591
84,1952964884,3.22925567626953,0.37932571768761,15.77470111846924,-0.06460447609425,0.56682705879211,9.84505844116211,1.25846576690674,0.01225641183555,-0.34855851531029
85,1952973217,3.22918152809143,0.37856107950211,15.77439022064209,-0.04755210131407,0.53755760192871,9.85105228424072,1.28041708469391,-0.02131104283035,-0.36318418383598
86,1952981550,3.22875714302063,0.37865638732910,15.77490615844727,-0.04096433147788,0.55165588855743,9.84603118896484,1.23935735225677,0.08487276732922,-0.32148423790932
87,1952989883,3.22847557067871,0.37931483983994,15.77445220947266,-0.03767418861389,0.55336534976959,9.86668205261230,1.25582766532898,0.14934380352497,-0.38851669430733
88,1952998216,3.22916936874390,0.37859290838242,15.77435970306396,-0.06391064822674,0.54698503017426,9.83467292785645,1.37384521961212,-0.01253816764802,-0.31975531578064
89,1953006549,3.22922682762146,0.37852671742439,15.77379226684570,-0.05716552212834,0.54771465063095,9.86089515686035,1.29519653320312,0.05987327173352,-0.39676445722580
90,1953014882,3.22932147979736,0.37833055853844,15.77278900146484,-0.06776603311300,0.54309391975403,9.82665443420410,1.30266308784485,0.04656668007374,-0.40642103552818
91,1953023215,3.22944569587708,0.37796631455421,15.77297687530518,-0.07139252871275,0.55280029773712,9.82910060882568,1.30243265628815,0.02978935651481,-0.30625665187836
92,1953031548,3.22928714752197,0.37809830904007,15.77316093444824,-0.07140668481588,0.54004687070847,9.84510993957520,1.27248966693878,0.08949613571167,-0.33965754508972
93,1953039881,3.22963476181030,0.37775591015816,15.77249526977539,-0.08581981062889,0.55736380815506,9.88552188873291,1.33028805255890,0.02631862834096,-0.40790668129921
94,1953048214,3.22938466072083,0.37709647417068,15.77363872528076,-0.08298728615046,0.55862271785736,9.85715389251709,1.26028430461884,0.00088369107107,-0.21190655231476
95,1953056547,3.22933840751648,0.37709695100784,15.77374649047852,-0.06639984250069,0.56802868843079,9.83555984497070,1.28338837623596,0.07406355440617,-0.31700173020363
96,1953064880,3.22934150695801,0.37712708115578,15.77384757995605,-0.05715107172728,0.54956728219986,9.87425804138184,1.29097032546997,0.07685551792383,-0.33334365487099
97,1953073213,3.22946977615356,0.37665680050850,15.77478313446045,-0.07828786969185,0.55658417940140,9.84210491180420,1.30265045166016,0.02160560898483,-0.21477538347244
98,1953081546,3.22950625419617,0.37726426124573,15.77574920654297,-0.07107768952847,0.53868782520294,9.83656978607178,1.29517090320587,0.15129047632217,-0.25560444593430
99,1953089879,3.22893285751343,0.37714564800262,15.77497768402100,-0.06113534793258,0.55403059720993,9.83802032470703,1.22063362598419,0.05262444913387,-0.42125174403191
100,1953098212,3.22861933708191,0.37710520625114,15.77254295349121,-0.06195077300072,0.54579770565033,9.83868503570557,1.25203657150269,0.06322872638702,-0.44358730316162
101,1953106545,3.22868704795837,0.37652623653412,15.77247142791748,-0.06247308105230,0.55704188346863,9.84316921234131,1.29800128936768,0.00271510868333,-0.33450907468796
102,1953114878,3.22837138175964,0.37668564915657,15.77114963531494,-0.04881118610501,0.54218548536301,9.85306358337402,1.25216448307037,0.08594855666161,-0.43426373600960
103,1953123211,3.22901272773743,0.37701252102852,15.77123832702637,-0.05722274258733,0.56840783357620,9.86112403869629,1.36681413650513,0.11222877353430,-0.32181727886200
104,1953131544,3.22915911674500,0.37710303068161,15.77160358428955,-0.06382494419813,0.56598293781281,9.84172439575195,1.30677425861359,0.08674260228872,-0.28931275010109
105,1953139877,3.22881627082825,0.37690213322639,15.77054977416992,-0.04685112088919,0.56179857254028,9.84459400177002,1.24809193611145,0.04161032289267,-0.45396104454994
106,1953148210,3.22936701774597,0.37689796090126,15.77107048034668,-0.05444755777717,0.56639063358307,9.86512088775635,1.35708057880402,0.07693234831095,-0.25875499844551
107,1953156543,3.22949624061584,0.37681376934052,15.77118206024170,-0.08295152336359,0.55644828081131,9.85419273376465,1.30375170707703,0.06361295282841,-0.31687369942665
108,1953164876,3.22973871231079,0.37661352753639,15.77135467529297,-0.06676463782787,0.53979647159576,9.83880710601807,1.32027292251587,0.04780897125602,-0.35257992148399
109,1953173209,3.22974586486816,0.37709119915962,15.77121067047119,-0.08483987301588,0.54825824499130,9.86751842498779,1.28884422779083,0.12980012595654,-0.35040271282196
110,1953181542,3.23052167892456,0.37681841850281,15.77171325683594,-0.06340280175209,0.55519652366638,9.85800552368164,1.38208019733429,0.04455596208572,-0.24154224991798
111,1953189875,3.23030805587769,0.37668877840042,15.77190113067627,-0.06755860149860,0.55496764183044,9.84307003021240,1.26356291770935,0.05808027461171,-0.30721712112427
112,1953198208,3.22977495193481,0.37579506635666,15.77218437194824,-0.07197190821171,0.53893810510635,9.84725475311279,1.22603821754456,-0.03350342065096,-0.34002897143364
113,1953206541,3.22942042350769,0.37523525953293,15.77275466918945,-0.05106414481997,0.55410927534103,9.87469959259033,1.24627339839935,0.00890094693750,-0.25844761729240
114,1953214874,3.22939729690552,0.37506318092346,15.77279758453369,-0.08065545558929,0.53966766595840,9.84624576568604,1.28807580471039,0.05405883863568,-0.32140743732452
115,1953223207,3.22896289825439,0.37546131014824,15.77328014373779,-0.05579910054803,0.57041066884995,9.83904457092285,1.23633515834808,0.12232077866793,-0.27489197254181
116,1953231540,3.22979140281677,0.37551653385162,15.77423667907715,-0.05725850909948,0.56782841682434,9.85078811645508,1.38840687274933,0.08354082703590,-0.29082402586937
117,1953239873,3.22941541671753,0.37501356005669,15.77418231964111,-0.06555580347776,0.55742102861404,9.85658168792725,1.24432671070099,0.01115499902517,-0.33280575275421
118,1953248206,3.22886466979980,0.37507942318916,15.77375888824463,-0.06325259059668,0.56140518188477,9.86093044281006,1.22293877601624,0.08036465942860,-0.35667821764946
119,1953256539,3.22874069213867,0.37574833631516,15.77450656890869,-0.06081347167492,0.55336540937424,9.87108802795410,1.27364218235016,0.15775807201862,-0.24491049349308
120,1953264872,3.22862958908081,0.37631526589394,15.77435302734375,-0.04991969093680,0.54699218273163,9.86690330505371,1.27816319465637,0.13981530070305,-0.35496205091476
121,1953273205,3.22813844680786,0.37622815370560,15.77494716644287,-0.05042775720358,0.54510378837585,9.86201667785645,1.22890686988831,0.06579015403986,-0.25839638710022
122,1953281538,3.22807240486145,0.37551596760750,15.77702331542969,-0.05552751943469,0.56367981433868,9.84491539001465,1.28159534931183,-0.00391897791997,-0.20791074633598
123,1953289871,3.22797608375549,0.37569829821587,15.77654838562012,-0.06449701637030,0.55898761749268,9.83920192718506,1.27795815467834,0.08976507931948,-0.38828617334366
124,1953298204,3.22748231887817,0.37602764368057,15.77512073516846,-0.07091293483973,0.56406617164612,9.86565303802490,1.23090481758118,0.10910382866859,-0.42340329289436
125,1953306537,3.22689056396484,0.37593290209770,15.77498435974121,-0.06116396188736,0.53625577688217,9.84107398986816,1.21901988983154,0.05946344137192,-0.34633004665375
126,1953314870,3.22681784629822,0.37648361921310,15.77626895904541,-0.08370983600616,0.54526829719543,9.86953449249268,1.27964866161346,0.14437463879585,-0.26126521825790
127,1953323203,3.22714471817017,0.37682619690895,15.77650737762451,-0.06785902380943,0.55890882015228,9.85510158538818,1.32889235019684,0.11503353714943,-0.30264502763748
128,1953331536,3.22654271125793,0.37725165486336,15.77731227874756,-0.07406768947840,0.56129789352417,9.85565185546875,1.21766221523285,0.12454919517040,-0.31397929787636
129,1953339869,3.22645854949951,0.37774264812469,15.77743816375732,-0.07504047453403,0.55703479051590,9.86799049377441,1.27844488620758,0.13295067846775,-0.31753966212273
130,1953348202,3.22716116905212,0.37744447588921,15.77662181854248,-0.07631368190050,0.54129141569138,9.84100246429443,1.37616324424744,0.03023760393262,-0.44673785567284
131,1953356535,3.22687983512878,0.37832683324814,15.77587604522705,-0.07615613937378,0.53126317262650,9.84673404693604,1.25544321537018,0.17324186861515,-0.42532435059547
132,1953364868,3.22646093368530,0.37880286574364,15.77552223205566,-0.05253763124347,0.54699933528900,9.86102390289307,1.23989558219910,0.13151629269123,-0.34025952219963
133,1953373201,3.22676014900208,0.37862962484360,15.77607059478760,-0.04042059555650,0.54496800899506,9.87442207336426,1.32420468330383,0.05471200495958,-0.26344242691994
134,1953381534,3.22726988792419,0.37830880284309,15.77726936340332,-0.03831778094172,0.55441683530807,9.85355663299561,1.35022878646851,0.04446631669998,-0.17982473969460
135,1953389867,3.22782897949219,0.37804985046387,15.77719211578369,-0.05585655197501,0.56262117624283,9.85726165771484,1.35664510726929,0.03950995579362,-0.33797982335091
136,1953398200,3.22700405120850,0.37807264924049,15.77781391143799,-0.05298854410648,0.53484660387039,9.85004997253418,1.19061362743378,0.07593339681625,-0.35114550590515
137,1953406533,3.22749996185303,0.37738779187202,15.77754116058350,-0.05172220617533,0.55782163143158,9.85218238830566,1.34793615341187,-0.01237167511135,-0.35834312438965
138,1953414866,3.22697615623474,0.37735766172409,15.77675724029541,-0.06693630665541,0.56041806936264,9.85522270202637,1.22898375988007,0.06732701510191,-0.38697984814644
139,1953423199,3.22687244415283,0.37671977281570,15.77724170684814,-0.06387465447187,0.57026761770248,9.81770706176758,1.27665185928345,-0.00110141222831,-0.26777121424675
140,1953431532,3.22698092460632,0.37622591853142,15.77696514129639,-0.06888187676668,0.55222094058990,9.85733985900879,1.30259907245636,0.01407502219081,-0.35030025243759
141,1953439865,3.22700238227844,0.37677401304245,15.77717685699463,-0.06917514652014,0.55289328098297,9.83078861236572,1.29084205627441,0.13917492330074,-0.30831852555275
142,1953448198,3.22624874114990,0.37603434920311,15.77656555175781,-0.07471144199371,0.56130504608154,9.84831333160400,1.20137143135071,-0.01483064237982,-0.31666877865791
143,1953456531,3.22555446624756,0.37681156396866,15.77672672271729,-0.08215039968491,0.56061124801636,9.85333442687988,1.20480382442474,0.16722251474857,-0.31615650653839
144,1953464864,3.22527074813843,0.37697002291679,15.77637767791748,-0.06466885656118,0.54142731428146,9.84755516052246,1.25726199150085,0.08891981095076,-0.40391087532043
145,1953473197,3.22464704513550,0.37761625647545,15.77635383605957,-0.09277952462435,0.53100562095642,9.87057971954346,1.21321809291840,0.14989449083805,-0.33735227584839
146,1953481530,3.22424697875977,0.37619352340698,15.77547454833984,-0.07385310530663,0.55403774976730,9.85196781158447,1.24134266376495,-0.09542583674192,-0.27956655621529
147,1953489863,3.22477555274963,0.37631952762604,15.77431011199951,-0.04220914095640,0.53269362449646,9.85138034820557,1.35380184650421,0.07957062125206,-0.47025170922279
148,1953498196,3.22444558143616,0.37705737352371,15.77336025238037,-0.04100724682212,0.53632014989853,9.87236118316650,1.25098645687103,0.16256073117256,-0.32717061042786
149,1953506529,3.22437715530396,0.37701517343521,15.77394294738770,-0.03522775322199,0.56629770994186,9.82093906402588,1.28039169311523,0.07132283598185,-0.26088100671768
150,1953514862,3.22419095039368,0.37739846110344,15.77446746826172,-0.04263094440103,0.56045383214951,9.85117435455322,1.26784050464630,0.12267937511206,-0.28360080718994
151,1953523195,3.22450470924377,0.37765330076218,15.77448272705078,-0.03249536454678,0.56400167942047,9.88780403137207,1.32560062408447,0.10331500321627,-0.32929661870003
152,1953531528,3.22388935089111,0.37770786881447,15.77403354644775,-0.04622854292393,0.54565471410751,9.87558078765869,1.21691942214966,0.07936571538448,-0.33628928661346
153,1953539861,3.22352862358093,0.37755793333054,15.77350902557373,-0.05049191787839,0.55428093671799,9.85832691192627,1.24527442455292,0.05167672038078,-0.39174410700798
154,1953548194,3.22402381896973,0.37777060270309,15.77350234985352,-0.06015541031957,0.54216402769089,9.87253284454346,1.34940910339355,0.09938323497772,-0.32595396041870
155,1953556527,3.22442102432251,0.37760055065155,15.77370929718018,-0.07899585366249,0.55911636352539,9.87923622131348,1.33689641952515,0.05231707170606,-0.30455324053764
156,1953564860,3.22420191764832,0.37742537260056,15.77331447601318,-0.08651348948479,0.55059725046158,9.84975814819336,1.26387035846710,0.05221461132169,-0.34640690684319
157,1953573193,3.22477364540100,0.37749248743057,15.77381992340088,-0.07966836541891,0.53941732645035,9.84121799468994,1.35690116882324,0.08369451016188,-0.26933372020721
158,1953581526,3.22448468208313,0.37678137421608,15.77362728118896,-0.06646421551704,0.56571835279465,9.85351371765137,1.25582754611969,-0.01308887265623,-0.34843039512634
159,1953589859,3.22437644004822,0.37674418091774,15.77346801757812,-0.09822268784046,0.56710606813431,9.83862972259521,1.27611386775970,0.06696841120720,-0.34738022089005
160,1953598192,3.22441840171814,0.37613022327423,15.77346706390381,-0.07097765803337,0.56209188699722,9.85927867889404,1.29647731781006,-0.00066597008845,-0.34059244394302
161,1953606525,3.22459149360657,0.37650766968727,15.77365970611572,-0.06588497757912,0.54569029808044,9.84301853179932,1.30866956710815,0.11927267163992,-0.30926626920700
162,1953614858,3.22502636909485,0.37628334760666,15.77408981323242,-0.05729441717267,0.55553978681564,9.84105205535889,1.34250617027283,0.04783458262682,-0.31907653808594
163,1953623191,3.22473526000977,0.37652111053467,15.77438735961914,-0.05754462257028,0.55501055717468,9.85133838653564,1.25288176536560,0.10257219523191,-0.29674091935158
164,1953631524,3.22476744651794,0.37683063745499,15.77299690246582,-0.03553554788232,0.55749964714050,9.83464241027832,1.29551672935486,0.10171413421631,-0.50855785608292
165,1953639857,3.22502446174622,0.37659537792206,15.77336788177490,-0.05178658291698,0.55277168750763,9.83500862121582,1.32024741172791,0.04570860043168,-0.28513765335083
166,1953648190,3.22477936744690,0.37607115507126,15.77341365814209,-0.04744480550289,0.54506808519363,9.86691093444824,1.26087343692780,0.01281992346048,-0.30657678842545
167,1953656523,3.22435688972473,0.37571132183075,15.77291202545166,-0.05304548516870,0.56116199493408,9.82620334625244,1.23861479759216,0.02531966939569,-0.38823494315147
168,1953664856,3.22384119033813,0.37539747357368,15.77454280853271,-0.05523425340652,0.54628407955170,9.84927177429199,1.22647356987000,0.04435104504228,-0.18634355068207
169,1953673189,3.22339320182800,0.37542280554771,15.77430629730225,-0.06194362044334,0.55695611238480,9.86856269836426,1.23653995990753,0.07449900358915,-0.35790768265724
170,1953681522,3.22324943542480,0.37517657876015,15.77574920654297,-0.08581265807152,0.58119708299637,9.84914970397949,1.27224624156952,0.04842371121049,-0.25611671805382
171,1953689855,3.22327685356140,0.37526032328606,15.77588272094727,-0.09613420814276,0.55106931924820,9.82982349395752,1.29196906089783,0.08172220736742,-0.31477332115173
172,1953698188,3.22407698631287,0.37490376830101,15.77500343322754,-0.09318704903126,0.55727088451385,9.83949470520020,1.38615250587463,0.02752249501646,-0.38692861795425
173,1953706521,3.22358775138855,0.37464168667793,15.77530002593994,-0.08133497834206,0.56508177518845,9.85736846923828,1.23039269447327,0.04368507862091,-0.29292437434196
174,1953714854,3.22361731529236,0.37435254454613,15.77510547637939,-0.07639236003160,0.55398052930832,9.85660362243652,1.29235339164734,0.03927942737937,-0.30975291132927
175,1953723187,3.22304511070251,0.37360799312592,15.77504920959473,-0.06783068180084,0.55322939157486,9.83055877685547,1.22088956832886,-0.01559906639159,-0.33211416006088
176,1953731520,3.22325706481934,0.37442865967751,15.77426433563232,-0.05866046622396,0.53530448675156,9.84698963165283,1.31630265712738,0.16540391743183,-0.42486330866814
177,1953739853,3.22348093986511,0.37491428852081,15.77349185943604,-0.05007705464959,0.55677729845047,9.83222675323486,1.31627690792084,0.12503588199615,-0.42704045772552
178,1953748186,3.22672820091248,0.37579110264778,15.76954746246338,-0.05383229628205,0.54945993423462,9.83187580108643,1.31681489944458,0.12465167045593,-0.31797510385513
179,1953756519,3.22626161575317,0.37489962577820,15.76974391937256,-0.05998374149203,0.55455273389816,9.85143184661865,1.23267221450806,-0.03391324728727,-0.30014759302139
180,1953764852,3.22518515586853,0.37401667237282,15.77024459838867,-0.04222323372960,0.56271415948868,9.82054615020752,1.16174650192261,-0.03086515143514,-0.31894847750664
181,1953773185,3.22540330886841,0.37334248423576,15.77017307281494,-0.04804579913616,0.55837231874466,9.84248256683350,1.31491947174072,-0.00896498188376,-0.33518785238266
182,1953781518,3.22528910636902,0.37318760156631,15.76960945129395,-0.04032789915800,0.55481731891632,9.86607265472412,1.27611398696899,0.05065215006471,-0.38938760757446
183,1953789851,3.22597813606262,0.37410375475883,15.76932621002197,-0.07367428392172,0.54678475856781,9.85447216033936,1.37104022502899,0.18000403046608,-0.36938288807869
184,1953798184,3.22553896903992,0.37341317534447,15.77020549774170,-0.07873134315014,0.54282927513123,9.83035278320312,1.23756456375122,-0.00512284645811,-0.27102422714233
185,1953806517,3.22609877586365,0.37331196665764,15.76971530914307,-0.08049093931913,0.54890918731689,9.87215328216553,1.35554361343384,0.05664587393403,-0.38859349489212
186,1953814850,3.22605133056641,0.37439858913422,15.77012825012207,-0.08879528939724,0.54971033334732,9.81331539154053,1.28413116931915,0.20800039172173,-0.25919041037560
187,1953823183,3.22597908973694,0.37427699565887,15.76980686187744,-0.08784406632185,0.54551869630814,9.82925128936768,1.27982807159424,0.05533955246210,-0.36710318922997
188,1953831516,3.22532391548157,0.37399441003799,15.76946544647217,-0.10356601327658,0.54732841253281,9.86468601226807,1.21297490596771,0.03966364264488,-0.33626368641853
189,1953839849,3.22507524490356,0.37426367402077,15.76978302001953,-0.08640658855438,0.53392392396927,9.87007045745850,1.25739002227783,0.10633749514818,-0.29387208819389
190,1953848182,3.22555708885193,0.37438267469406,15.76922321319580,-0.05682933703065,0.55310070514679,9.85445022583008,1.34916579723358,0.08807453513145,-0.34148895740509
191,1953856515,3.22512149810791,0.37487339973450,15.76922321319580,-0.05798066779971,0.55285054445267,9.82642650604248,1.23620688915253,0.13077346980572,-0.33334368467331
192,1953864848,3.22483158111572,0.37488555908203,15.76861190795898,-0.05749455094337,0.57008874416351,9.85211086273193,1.25549447536469,0.07045194506645,-0.41602638363838
193,1953873181,3.22447371482849,0.37493643164635,15.76817512512207,-0.01238157134503,0.55217087268829,9.87236785888672,1.24596583843231,0.07621514797211,-0.38357311487198
194,1953881514,3.22416257858276,0.37509667873383,15.76686477661133,-0.04954774305224,0.53477513790131,9.83797740936279,1.25277924537659,0.08845875412226,-0.38610893487930
195,1953889847,3.22465825080872,0.37584474682808,15.76625251770020,-0.03751647472382,0.55181330442429,9.88731193542480,1.34914004802704,0.15874421596527,-0.40985333919525
196,1953898180,3.22472119331360,0.37658885121346,15.76747798919678,-0.03848240152001,0.55766415596008,9.84233188629150,1.29668223857880,0.16647970676422,-0.24712611734867
197,1953906513,3.22526049613953,0.37629666924477,15.76701068878174,-0.04658628627658,0.57221323251724,9.87850666046143,1.35369944572449,0.03415658324957,-0.38531491160393
198,1953914846,3.22517895698547,0.37603732943535,15.76738929748535,-0.07084891200066,0.53905969858170,9.84553050994873,1.27957177162170,0.04491455852985,-0.30611571669579
199,1953923179,3.22455930709839,0.37601527571678,15.76713657379150,-0.07827355712652,0.53438174724579,9.83899307250977,1.21485745906830,0.06751912087202,-0.35991838574409
200,1953931512,3.22438836097717,0.37575405836105,15.76642608642578,-0.06637838482857,0.54209965467453,9.86815547943115,1.27004325389862,0.03838292509317,-0.39241003990173
201,1953939845,3.22435855865479,0.37619474530220,15.76585388183594,-0.06654272228479,0.57114028930664,9.84269237518311,1.28571915626526,0.12119374424219,-0.40150308609009
202,1953948178,3.22456216812134,0.37561953067780,15.76677131652832,-0.07571271806955,0.56214201450348,9.81420230865479,1.31386923789978,0.00826059002429,-0.28134676814079
203,1953956511,3.22486138343811,0.37525919079781,15.76715183258057,-0.07870273292065,0.53657764196396,9.85259056091309,1.32362830638885,0.03162076696754,-0.28175657987595
204,1953964844,3.22467350959778,0.37469083070755,15.76680755615234,-0.06169310212135,0.55837243795395,9.82634830474854,1.26876270771027,0.00165211828426,-0.38449525833130
205,1953973177,3.22427630424500,0.37441727519035,15.76657676696777,-0.07117078453302,0.53351622819901,9.86094474792480,1.24002349376678,0.03769134730101,-0.35516697168350
206,1953981510,3.22413492202759,0.37497481703758,15.76719474792480,-0.04456242918968,0.54683476686478,9.83168125152588,1.27296340465546,0.14511744678020,-0.25417003035545
207,1953989843,3.22400355339050,0.37492531538010,15.76721000671387,-0.04426908865571,0.54194223880768,9.84617328643799,1.27355265617371,0.06727579236031,-0.32834890484810
208,1953998176,3.22379946708679,0.37519741058350,15.76769638061523,-0.03596449270844,0.56832915544510,9.89039325714111,1.26489496231079,0.10905260592699,-0.26538908481598
209,1954006509,3.22376942634583,0.37543597817421,15.76774501800537,-0.03174417465925,0.56531071662903,9.86769866943359,1.28472030162811,0.10167571157217,-0.32624849677086
210,1954014842,3.22412252426147,0.37577223777771,15.76840496063232,-0.04474103450775,0.55302202701569,9.87257575988770,1.33138954639435,0.11814565211535,-0.26018941402435
211,1954023175,3.22444200515747,0.37595471739769,15.76832866668701,-0.05094970017672,0.54978895187378,9.84641742706299,1.32688128948212,0.09401705116034,-0.34072053432465
212,1954031508,3.22454977035522,0.37616509199142,15.76871109008789,-0.05946147441864,0.56980270147324,9.86410808563232,1.30336761474609,0.10303327441216,-0.25329920649529
213,1954039841,3.22439050674438,0.37552043795586,15.76868057250977,-0.07942517101765,0.55993169546127,9.86457824707031,1.26850664615631,-0.00632671685889,-0.32909169793129
214,1954048174,3.22530341148376,0.37541666626930,15.76927757263184,-0.06268751621246,0.57129758596420,9.83244800567627,1.39921605587006,0.06158943101764,-0.32145866751671
215,1954056507,3.22565269470215,0.37544089555740,15.76883697509766,-0.09355900436640,0.54832983016968,9.90028667449951,1.33197855949402,0.07342319935560,-0.38290718197823
216,1954064840,3.22520375251770,0.37561732530594,15.76800251007080,-0.08212178945541,0.52962511777878,9.87286186218262,1.23572027683258,0.09050789475441,-0.41374674439430
217,1954073173,3.22473335266113,0.37524443864822,15.76883411407471,-0.07373169809580,0.53780788183212,9.84440612792969,1.23160922527313,0.03337534889579,-0.22900408506393
218,1954081506,3.22435045242310,0.37498345971107,15.76916503906250,-0.09676366299391,0.55616933107376,9.83641052246094,1.24512076377869,0.04199453815818,-0.33490610122681
219,1954089839,3.22451639175415,0.37515291571617,15.76863384246826,-0.07565561681986,0.54389500617981,9.84153938293457,1.30833673477173,0.08756225556135,-0.39538133144379
220,1954098172,3.22466897964478,0.37544968724251,15.76901626586914,-0.05306680127978,0.54393088817596,9.86229801177979,1.30825972557068,0.11005155742168,-0.32035723328590
221,1954106505,3.22473192214966,0.37516990303993,15.76903533935547,-0.06343871355057,0.57430166006088,9.87097930908203,1.29609310626984,0.03976610302925,-0.32681202888489
222,1954114838,3.22546863555908,0.37440660595894,15.76929187774658,-0.07009786367416,0.56109762191772,9.85709667205811,1.37798178195953,-0.01541976910084,-0.27217686176300
223,1954123171,3.22580599784851,0.37433239817619,15.76924419403076,-0.04919725283980,0.55161291360855,9.84736156463623,1.32975018024445,0.06379225105047,-0.33534160256386
224,1954131504,3.22552299499512,0.37365704774857,15.76884078979492,-0.04981223866343,0.54950290918350,9.81995964050293,1.25669836997986,-0.00965656619519,-0.37050989270210
225,1954139837,3.22573089599609,0.37309801578522,15.76874828338623,-0.05585655197501,0.55383032560349,9.86506557464600,1.31248617172241,0.00431599840522,-0.33754441142082
226,1954148170,3.22572803497314,0.37295201420784,15.76836585998535,-0.05043454095721,0.56830060482025,9.83953094482422,1.29022741317749,0.05485288798809,-0.35106873512268
227,1954156503,3.22547245025635,0.37321448326111,15.76878643035889,-0.04712292924523,0.57425171136856,9.84231185913086,1.25826072692871,0.10641433298588,-0.28080883622169
228,1954164836,3.22531366348267,0.37379068136215,15.76887989044189,-0.06735116988420,0.57117599248886,9.85079479217529,1.27086293697357,0.13707457482815,-0.42929455637932
229,1954173169,3.22557234764099,0.37360927462578,15.76980400085449,-0.05920408293605,0.54983186721802,9.84694671630859,1.31899225711823,0.05759361013770,-0.21859189867973
230,1954181502,3.22513794898987,0.37436115741730,15.76884937286377,-0.06096367910504,0.56508892774582,9.86812686920166,1.23892199993134,0.16015300154686,-0.40337297320366
231,1954189835,3.22539639472961,0.37418973445892,15.76953029632568,-0.08096303045750,0.56660532951355,9.85575962066650,1.31873595714569,0.05500656738877,-0.24743349850178
232,1954198168,3.22451019287109,0.37491586804390,15.77095794677734,-0.06402530521154,0.54820096492767,9.85271072387695,1.18305742740631,0.16532708704472,-0.26175186038017
233,1954206501,3.22468280792236,0.37464168667793,15.77164459228516,-0.06677894294262,0.55099064111710,9.88530731201172,1.30823433399200,0.04373630508780,-0.24587105214596
234,1954214834,3.22510409355164,0.37384703755379,15.77132320404053,-0.08205725252628,0.56567549705505,9.83857917785645,1.34199380874634,-0.02274543978274,-0.35509011149406
235,1954223167,3.22499680519104,0.37357077002525,15.77145385742188,-0.06397516280413,0.54692059755325,9.85573673248291,1.27406466007233,0.04009908437729,-0.31272417306900
236,1954231500,3.22486591339111,0.37452346086502,15.77132320404053,-0.07591325044632,0.55555409193039,9.82865619659424,1.27475643157959,0.18881534039974,-0.30772939324379
237,1954239833,3.22461891174316,0.37446880340576,15.77236557006836,-0.07669975608587,0.55979585647583,9.86862850189209,1.25879871845245,0.07355127483606,-0.20476020872593
238,1954248166,3.22459435462952,0.37531256675720,15.77183628082275,-0.05395389348269,0.56277853250504,9.84213352203369,1.28643631935120,0.17403592169285,-0.34937813878059
239,1954256499,3.22457861900330,0.37520742416382,15.77072620391846,-0.05481223389506,0.56473839282990,9.82627487182617,1.28807592391968,0.05147180333734,-0.46269559860229
240,1954264832,3.22461915016174,0.37543699145317,15.77005672454834,-0.03921903669834,0.54641282558441,9.84673976898193,1.29394149780273,0.10246973484755,-0.31367191672325
241,1954273165,3.22485375404358,0.37603962421417,15.77129936218262,-0.04737327992916,0.57755631208420,9.84459400177002,1.31709671020508,0.15287855267525,-0.18449930846691
242,1954281498,3.22528743743896,0.37519755959511,15.77105426788330,-0.03592157736421,0.57888674736023,9.85000801086426,1.34155833721161,-0.02955882437527,-0.36049473285675
243,1954289831,3.22479867935181,0.37486129999161,15.77013874053955,-0.04210163280368,0.58395808935165,9.84695434570312,1.23118650913239,0.02667722478509,-0.43767040967941
244,1954298164,3.22486567497253,0.37469145655632,15.76972198486328,-0.06525555253029,0.54282915592194,9.87020683288574,1.29770672321320,0.05003740638494,-0.36605304479599
245,1954306497,3.22523117065430,0.37403017282486,15.76965999603271,-0.08602724224329,0.54983186721802,9.83490848541260,1.33295190334320,-0.00704391440377,-0.33183237910271
246,1954314830,3.22477102279663,0.37344780564308,15.76965999603271,-0.07991155982018,0.55719929933548,9.87209606170654,1.23361992835999,0.00336827174760,-0.34317949414253
247,1954323163,3.22452259063721,0.37356811761856,15.76998138427734,-0.07964690774679,0.56847935914993,9.83709716796875,1.25951600074768,0.08812577277422,-0.29143875837326
248,1954331496,3.22499155998230,0.37428972125053,15.76888179779053,-0.07736515253782,0.55055433511734,9.85297679901123,1.34627127647400,0.15226380527020,-0.46976503729820
249,1954339829,3.22500705718994,0.37457996606827,15.77023601531982,-0.07875995337963,0.56638354063034,9.85299110412598,1.28989434242249,0.11668564379215,-0.16997605562210
250,1954348162,3.22545599937439,0.37468165159225,15.77037239074707,-0.09148471057415,0.58013856410980,9.86235523223877,1.34394037723541,0.08763909339905,-0.31490138173103
251,1954356495,3.22525858879089,0.37466928362846,15.76947593688965,-0.07077757269144,0.55474579334259,9.84279727935791,1.26597070693970,0.06453506648540,-0.43738868832588
252,1954364828,3.22474336624146,0.37438008189201,15.76976966857910,-0.05270214751363,0.56325060129166,9.85697555541992,1.22798478603363,0.04040645062923,-0.30445078015327
253,1954373161,3.22461247444153,0.37474659085274,15.77100086212158,-0.06079201400280,0.54988193511963,9.85538768768311,1.27173399925232,0.12401131540537,-0.18424318730831
254,1954381494,3.22441434860229,0.37467813491821,15.77044963836670,-0.04948336631060,0.57162660360336,9.83407211303711,1.26561212539673,0.06243468821049,-0.37268710136414
255,1954389827,3.22443294525146,0.37533518671989,15.76958370208740,-0.05848879739642,0.56177711486816,9.84255504608154,1.29258394241333,0.14481008052826,-0.43877190351486
256,1954398160,3.22451686859131,0.37505158782005,15.76837444305420,-0.03047806397080,0.56316483020782,9.86206245422363,1.30011439323425,0.03456640616059,-0.44514977931976
257,1954406493,3.22449278831482,0.37459763884544,15.76837444305420,-0.04356796666980,0.53279381990433,9.86763286590576,1.28546333312988,0.01689258776605,-0.32645341753960
258,1954414826,3.22390007972717,0.37461543083191,15.76940059661865,-0.05226582288742,0.54459601640701,9.85766887664795,1.21912229061127,0.08072324842215,-0.25701323151588
259,1954423159,3.22453975677490,0.37354263663292,15.76888370513916,-0.06629969924688,0.55754977464676,9.84981536865234,1.36455988883972,-0.06108994781971,-0.38580158352852
260,1954431492,3.22493076324463,0.37310072779655,15.76923561096191,-0.07226530462503,0.55062580108643,9.84158802032471,1.33674287796021,0.02309123240411,-0.28723803162575
261,1954439825,3.22508740425110,0.37367495894432,15.76843833923340,-0.08466801047325,0.56528210639954,9.83665561676025,1.30838787555695,0.13592194020748,-0.42898720502853
262,1954448158,3.22509789466858,0.37194797396660,15.76935291290283,-0.09216438233852,0.52758651971817,9.81794261932373,1.29038107395172,-0.12696976959705,-0.22071789205074
263,1954456491,3.22471451759338,0.37172809243202,15.76875209808350,-0.07946808636189,0.58407968282700,9.80732059478760,1.24322533607483,0.04181523248553,-0.40083715319633
264,1954464824,3.22498583793640,0.37216100096703,15.76951217651367,-0.08257957547903,0.54930257797241,9.82596778869629,1.32129740715027,0.12818644940853,-0.26756629347801
265,1954473157,3.22540259361267,0.37240383028984,15.76981067657471,-0.07659263908863,0.57963061332703,9.83720493316650,1.33879196643829,0.10449326783419,-0.29658722877502
266,1954481490,3.22503447532654,0.37262809276581,15.77052116394043,-0.07040543109179,0.55151277780533,9.86575222015381,1.24490308761597,0.10225202888250,-0.30486065149307
267,1954489823,3.22493553161621,0.37348219752312,15.77031135559082,-0.04620021209121,0.56182003021240,9.86882781982422,1.27684390544891,0.17287047207355,-0.36291527748108
268,1954498156,3.22512054443359,0.37396186590195,15.76974582672119,-0.04128620773554,0.54652726650238,9.85677528381348,1.31368994712830,0.12677764892578,-0.39207708835602
269,1954506489,3.22549080848694,0.37413525581360,15.76972579956055,-0.04439769685268,0.53326588869095,9.84568119049072,1.33200407028198,0.09381212294102,-0.33426573872566
270,1954514822,3.22605347633362,0.37470519542694,15.76971149444580,-0.05715851485729,0.54059034585953,9.85393428802490,1.35749042034149,0.14158266782761,-0.31802633404732
271,1954523155,3.22622585296631,0.37499487400055,15.76981735229492,-0.04856780543923,0.56048959493637,9.83499431610107,1.31002724170685,0.10871963202953,-0.31961444020271
272,1954531488,3.22664952278137,0.37591743469238,15.76958847045898,-0.05062067136168,0.55634099245071,9.85284042358398,1.33973968029022,0.18471705913544,-0.31062382459641
273,1954539821,3.22597646713257,0.37564125657082,15.76956462860107,-0.06237994506955,0.54528981447220,9.83822059631348,1.20805704593658,0.03917697072029,-0.33047485351562
274,1954548154,3.22607636451721,0.37587749958038,15.76997089385986,-0.07712895423174,0.54908806085587,9.86081790924072,1.30224049091339,0.10326378047466,-0.32514706254005
275,1954556487,3.22643661499023,0.37648075819016,15.76981449127197,-0.08936046808958,0.57406574487686,9.86158847808838,1.33149206638336,0.14363181591034,-0.35183709859848
276,1954564820,3.22594308853149,0.37682345509529,15.76998138427734,-0.08611307293177,0.56443083286285,9.86582374572754,1.23058485984802,0.11119139939547,-0.38478991389275
277,1954573153,3.22544288635254,0.37717127799988,15.77005290985107,-0.08171381056309,0.56330078840256,9.83274269104004,1.22861230373383,0.11370158940554,-0.32399445772171
278,1954581486,3.22448635101318,0.37759923934937,15.77003574371338,-0.09030464291573,0.57053935527802,9.85935688018799,1.17562937736511,0.12375518679619,-0.35772845149040
279,1954589819,3.22367525100708,0.37738901376724,15.76882076263428,-0.07138537615538,0.56015342473984,9.82810592651367,1.19163823127747,0.03912574052811,-0.47563073039055
280,1954598152,3.22388124465942,0.37685701251030,15.76999378204346,-0.06215820461512,0.54420977830887,9.86005115509033,1.31558549404144,0.01366519369185,-0.24679315090179
281,1954606485,3.22377490997314,0.37697470188141,15.77085876464844,-0.04871801286936,0.57667648792267,9.85475063323975,1.27493560314178,0.09199352562428,-0.22719827294350
282,1954614818,3.22439050674438,0.37768110632896,15.77143955230713,-0.04947621375322,0.54978179931641,9.83828449249268,1.36294627189636,0.16355969011784,-0.25668027997017
283,1954623151,3.22448229789734,0.37812307476997,15.77125549316406,-0.03828916698694,0.57752770185471,9.84348487854004,1.29970479011536,0.12401133030653,-0.35511577129364
284,1954631484,3.22427463531494,0.37862965464592,15.76992988586426,-0.04822428524494,0.56190598011017,9.85334300994873,1.26548409461975,0.12831452488899,-0.43234264850616
285,1954639817,3.22383832931519,0.37851974368095,15.76983261108398,-0.03115063160658,0.54874467849731,9.85900688171387,1.23497760295868,0.05805465951562,-0.34161707758904
286,1954648150,3.22354578971863,0.37886530160904,15.76940441131592,-0.05476216599345,0.55122667551041,9.83654689788818,1.25639104843140,0.11130665242672,-0.38641631603241
287,1954656483,3.22332096099854,0.37879139184952,15.77049350738525,-0.05986214429140,0.55041843652725,9.84962177276611,1.26141142845154,0.07196319103241,-0.20032893121243
288,1954664816,3.22299122810364,0.37887749075890,15.77152824401855,-0.07647819817066,0.54577624797821,9.84565258026123,1.24975681304932,0.08656330406666,-0.28034779429436
289,1954673149,3.22296428680420,0.37828406691551,15.77129936218262,-0.06991173326969,0.55077612400055,9.85404396057129,1.28487396240234,-0.00038421351928,-0.35229817032814
290,1954681482,3.22278547286987,0.37733456492424,15.77191066741943,-0.06468316167593,0.55136257410049,9.85182476043701,1.26790452003479,-0.03569343686104,-0.24301503598690
291,1954689815,3.22292232513428,0.37754616141319,15.77236366271973,-0.08333777636290,0.56052535772324,9.86452865600586,1.30450737476349,0.10086885839701,-0.27854198217392
292,1954698148,3.22283601760864,0.37875309586525,15.77199935913086,-0.07633513957262,0.56566113233566,9.84050941467285,1.27977681159973,0.21755449473858,-0.33042362332344
293,1954706481,3.22263622283936,0.37877818942070,15.77264213562012,-0.07993301749229,0.57493835687637,9.83581733703613,1.26453626155853,0.07982675731182,-0.25324791669846
294,1954714814,3.22259402275085,0.37847229838371,15.77337646484375,-0.05674350261688,0.56930905580521,9.84575271606445,1.28382384777069,0.04276296496391,-0.23982605338097
295,1954723147,3.22233939170837,0.37841880321503,15.77276325225830,-0.05658613890409,0.54968166351318,9.83186149597168,1.25872182846069,0.06051363050938,-0.40391081571579
296,1954731480,3.22299957275391,0.37898060679436,15.77191925048828,-0.04781675338745,0.56285005807877,9.85993671417236,1.36909365653992,0.13802230358124,-0.39894169569016
297,1954739813,3.22277474403381,0.37837788462639,15.77208137512207,-0.05500536412001,0.54973888397217,9.84181880950928,1.26197493076324,0.00021772098262,-0.30655112862587
298,1954748146,3.22309875488281,0.37898612022400,15.77273941040039,-0.03588570281863,0.55654847621918,9.86101055145264,1.32747054100037,0.15195645391941,-0.25222340226173
299,1954756479,3.22358918190002,0.37935617566109,15.77163791656494,-0.04682966321707,0.55224955081940,9.87452793121338,1.34823095798492,0.10970577597618,-0.46388664841652
300,1954764812,3.22347569465637,0.37875664234161,15.77196598052979,-0.04559222236276,0.52218616008759,9.84275531768799,1.27604997158051,0.00317616504617,-0.29870039224625
301,1954773145,3.22224235534668,0.37825396656990,15.77223205566406,-0.05963325127959,0.56337219476700,9.86090183258057,1.14074277877808,0.01361396722496,-0.29389771819115
302,1954781478,3.22272539138794,0.37800249457359,15.77132320404053,-0.06421107053757,0.53997528553009,9.83083152770996,1.34778261184692,0.04084189608693,-0.35667821764946
303,1954789811,3.22362542152405,0.37835362553596,15.77171993255615,-0.06353154778481,0.56343656778336,9.82782745361328,1.39698755741119,0.11837618798018,-0.28552186489105
304,1954798144,3.22413110733032,0.37862807512283,15.77121257781982,-0.06941118836403,0.53797960281372,9.86171054840088,1.34949886798859,0.10410905629396,-0.35363012552261
305,1954806477,3.22405076026917,0.37891456484795,15.77180862426758,-0.06464023888111,0.54900217056274,9.84944343566895,1.27913641929626,0.11064068228006,-0.26041990518570
306,1954814810,3.22351050376892,0.37926843762398,15.77173995971680,-0.05940436199307,0.54840844869614,9.85469341278076,1.22516727447510,0.11379123479128,-0.38098612427711
307,1954823143,3.22405242919922,0.37860870361328,15.77112388610840,-0.08486848324537,0.53715705871582,9.85663890838623,1.35423755645752,-0.01139833591878,-0.39914664626122
308,1954831476,3.22361683845520,0.37806305289268,15.77136802673340,-0.07526936382055,0.55162727832794,9.81244850158691,1.23779511451721,0.00879848934710,-0.31794950366020
309,1954839809,3.22350168228149,0.37699568271637,15.77177143096924,-0.06069902703166,0.55064016580582,9.85210418701172,1.27384698390961,-0.05311111360788,-0.27549389004707
310,1954848142,3.22328305244446,0.37689366936684,15.77189064025879,-0.05122866109014,0.54817241430283,9.84934329986572,1.26321709156036,0.06482962518930,-0.27941286563873
311,1954856475,3.22291374206543,0.37630403041840,15.77183914184570,-0.04321032389998,0.55121952295303,9.86726093292236,1.24528729915619,0.00125509756617,-0.33212694525719
312,1954864808,3.22298645973206,0.37625858187675,15.77155590057373,-0.04508416354656,0.55374455451965,9.84932994842529,1.29960215091705,0.06084661558270,-0.45652249455452
313,1954873141,3.22359204292297,0.37645381689072,15.77099609375000,-0.05774490162730,0.56614750623703,9.85472202301025,1.36174225807190,0.09158369153738,-0.39935153722763
314,1954881474,3.22350811958313,0.37637025117874,15.77080917358398,-0.04203010350466,0.55986732244492,9.87367725372314,1.28018665313721,0.05877185612917,-0.42504259943962
315,1954889807,3.22402167320251,0.37679812312126,15.77062034606934,-0.06174334138632,0.57743471860886,9.88227462768555,1.35131740570068,0.12121937423944,-0.35450100898743
316,1954898140,3.22512912750244,0.37605625391006,15.77075481414795,-0.06318808346987,0.54216408729553,9.83410930633545,1.42134666442871,-0.01280711591244,-0.28242254257202
317,1954906473,3.22573089599609,0.37584429979324,15.77081489562988,-0.07481173425913,0.55435240268707,9.84840488433838,1.36020553112030,0.04742475599051,-0.32156112790108
318,1954914806,3.22606563568115,0.37672814726830,15.76980686187744,-0.07587736099958,0.55481743812561,9.86112403869629,1.33146643638611,0.17265275120735,-0.46679380536079
319,1954923139,3.22525286674500,0.37651368975639,15.76916217803955,-0.07510451227427,0.54721403121948,9.87254810333252,1.19139480590820,0.04213541373610,-0.40551173686981
320,1954931472,3.22489428520203,0.37689381837845,15.76904392242432,-0.07635659724474,0.53416717052460,9.83512306213379,1.24793827533722,0.11681371182203,-0.35995683073997
321,1954939805,3.22509551048279,0.37655201554298,15.76979064941406,-0.06579900532961,0.54059040546417,9.85440063476562,1.31151282787323,0.03643624857068,-0.23885273933411
322,1954948138,3.22597384452820,0.37617895007133,15.77018642425537,-0.06959716230631,0.57731312513351,9.84179019927979,1.39539957046509,0.03246603906155,-0.28572678565979
323,1954956471,3.22579360008240,0.37596538662910,15.77028560638428,-0.05043469741940,0.56083297729492,9.82091045379639,1.26626527309418,0.04631053656340,-0.31623333692551
324,1954964804,3.22602987289429,0.37629082798958,15.77110195159912,-0.06313825398684,0.55209213495255,9.85628032684326,1.31827497482300,0.11786389350891,-0.24282294511795
325,1954973137,3.22649216651917,0.37611928582191,15.77131366729736,-0.05425431206822,0.53420293331146,9.85070228576660,1.34378683567047,0.05313672125340,-0.30301639437675
326,1954981470,3.22567987442017,0.37691852450371,15.77133369445801,-0.05091393738985,0.55809342861176,9.84132480621338,1.19225299358368,0.17114150524139,-0.30032688379288
327,1954989803,3.22492742538452,0.37714883685112,15.77130317687988,-0.07130669057369,0.54992485046387,9.85269069671631,1.19893825054169,0.09978024661541,-0.33500856161118
328,1954998136,3.22473073005676,0.37671488523483,15.77057552337646,-0.05509835109115,0.55783593654633,9.84512996673584,1.26533031463623,0.01768662780523,-0.41233795881271
329,1955006469,3.22438931465149,0.37644612789154,15.76979541778564,-0.05834573879838,0.57210582494736,9.87441349029541,1.24893736839294,0.03341377153993,-0.42189210653305
330,1955014802,3.22489309310913,0.37601631879807,15.76959228515625,-0.06622803211212,0.54159188270569,9.87086009979248,1.35049772262573,0.02447440102696,-0.30895888805389
331,1955023135,3.22456312179565,0.37550535798073,15.76912403106689,-0.06128555908799,0.55108362436295,9.85473632812500,1.24942386150360,0.00708233611658,-0.38326576352119
332,1955031468,3.22480607032776,0.37512758374214,15.76861572265625,-0.05833858624101,0.53976786136627,9.87638759613037,1.31832623481750,0.02857267856598,-0.33108961582184
333,1955039801,3.22541022300720,0.37542435526848,15.76854419708252,-0.07135675847530,0.57339334487915,9.84723281860352,1.36051285266876,0.10713153332472,-0.34025949239731
334,1955048134,3.22546195983887,0.37551140785217,15.76848411560059,-0.07383880019188,0.55697041749954,9.86998653411865,1.29616999626160,0.08407872170210,-0.32199656963348
335,1955056467,3.22612857818604,0.37469050288200,15.76803493499756,-0.08073414117098,0.55696326494217,9.82838535308838,1.36911916732788,-0.02914899960160,-0.37837347388268
336,1955064800,3.22669363021851,0.37452635169029,15.76628589630127,-0.05630002543330,0.55013233423233,9.85475826263428,1.35920643806458,0.04704054072499,-0.46922716498375
337,1955073133,3.22684860229492,0.37456512451172,15.76650810241699,-0.06599941849709,0.53819411993027,9.82127380371094,1.30700469017029,0.07880219072104,-0.30286270380020
338,1955081466,3.22687196731567,0.37436348199844,15.76708412170410,-0.06105666607618,0.54147022962570,9.85229015350342,1.29219961166382,0.05208654701710,-0.27571159601212
339,1955089799,3.22683548927307,0.37478783726692,15.76708698272705,-0.05892498046160,0.55190628767014,9.84625434875488,1.28456676006317,0.12219269573689,-0.33272889256477
340,1955098132,3.22701215744019,0.37452998757362,15.76698303222656,-0.05954011902213,0.55243557691574,9.83788585662842,1.30948925018311,0.04388998448849,-0.32709375023842
341,1955106465,3.22763991355896,0.37374123930931,15.76661968231201,-0.08175682276487,0.53978222608566,9.85982322692871,1.36477768421173,-0.02562704309821,-0.36762830615044
342,1955114798,3.22751998901367,0.37398117780685,15.76648235321045,-0.07269434630871,0.54267191886902,9.84979343414307,1.27685666084290,0.09947287291288,-0.39187216758728
343,1955123131,3.22759652137756,0.37327036261559,15.76657676696777,-0.06933966279030,0.53955322504044,9.85516548156738,1.29716897010803,-0.01201307680458,-0.31500387191772
344,1955131464,3.22752881050110,0.37337094545364,15.76725101470947,-0.04567805677652,0.56553953886032,9.84070968627930,1.28144168853760,0.08976507931948,-0.25703883171082
345,1955139797,3.22819757461548,0.37259030342102,15.76667404174805,-0.05403991416097,0.55774283409119,9.84335517883301,1.36840212345123,-0.02622897550464,-0.39453604817390
346,1955148130,3.22809171676636,0.37295928597450,15.76560688018799,-0.05199417099357,0.55166292190552,9.84199619293213,1.27836811542511,0.11717232316732,-0.36669340729713
347,1955156463,3.22789454460144,0.37263405323029,15.76553821563721,-0.07514777034521,0.55556845664978,9.83907127380371,1.26497173309326,0.03236358612776,-0.33570015430450
348,1955164796,3.22792458534241,0.37260422110558,15.76447105407715,-0.06430390477180,0.55619084835052,9.84306430816650,1.29278862476349,0.06855649501085,-0.34922441840172
349,1955173129,3.22781181335449,0.37263846397400,15.76436042785645,-0.07914635539055,0.54582619667053,9.85984230041504,1.27478206157684,0.07519058883190,-0.34256476163864
350,1955181462,3.22752428054810,0.37356328964233,15.76449680328369,-0.05461896583438,0.53457492589951,9.81238555908203,1.25587868690491,0.18471704423428,-0.33426573872566
351,1955189795,3.22761774063110,0.37352928519249,15.76437759399414,-0.08216454833746,0.56380146741867,9.84611892700195,1.29956376552582,0.06844123452902,-0.34403762221336
352,1955198128,3.22742033004761,0.37379586696625,15.76466274261475,-0.07853821665049,0.53555482625961,9.84458637237549,1.26688003540039,0.10670889914036,-0.31452998518944
353,1955206461,3.22748970985413,0.37329685688019,15.76569175720215,-0.07760834693909,0.55702763795853,9.86759757995605,1.29543983936310,0.01938997581601,-0.20331299304962
354,1955214794,3.22660493850708,0.37387013435364,15.76501083374023,-0.05979027226567,0.54559040069580,9.85618209838867,1.18486320972443,0.13678000867367,-0.43227863311768
355,1955223127,3.22645783424377,0.37489533424377,15.76588344573975,-0.08240810036659,0.56395864486694,9.83789730072021,1.27042758464813,0.20018804073334,-0.23198813199997
356,1955231460,3.22695231437683,0.37474194169044,15.76663112640381,-0.07476855069399,0.53936731815338,9.87368583679199,1.34860229492188,0.05900239571929,-0.25893431901932
357,1955239793,3.22699952125549,0.37499424815178,15.76679134368896,-0.06999042630196,0.58236306905746,9.88046646118164,1.29394161701202,0.10431396961212,-0.31239122152328
358,1955248126,3.22710657119751,0.37456884980202,15.76692485809326,-0.06892494857311,0.55407345294952,9.83411312103271,1.30387985706329,0.02150315232575,-0.34510058164597
359,1955256459,3.22670936584473,0.37409049272537,15.76727867126465,-0.06624271720648,0.55169153213501,9.84185314178467,1.24017715454102,0.01668767258525,-0.28411307930946
360,1955264792,3.22762608528137,0.37362539768219,15.76710891723633,-0.05129303783178,0.54888057708740,9.83405017852783,1.39983069896698,0.01881365478039,-0.30493745207787
361,1955273125,3.22805142402649,0.37305566668510,15.76763153076172,-0.06196507811546,0.53845173120499,9.82108974456787,1.33886897563934,0.00833743438125,-0.26254591345787
362,1955281458,3.22788143157959,0.37380552291870,15.76760768890381,-0.06672158092260,0.57247787714005,9.85408687591553,1.26981282234192,0.16274003684521,-0.34369179606438
363,1955289791,3.22709798812866,0.37381312251091,15.76719093322754,-0.05437591299415,0.53650611639023,9.85221862792969,1.19473755359650,0.06909439712763,-0.37983348965645
364,1955298124,3.22734308242798,0.37409418821335,15.76811981201172,-0.05406833812594,0.54609811306000,9.86135292053223,1.31958127021790,0.10725960135460,-0.34064370393753
365,1955306457,3.22691059112549,0.37323105335236,15.76873111724854,-0.05414723232388,0.54499650001526,9.85362625122070,1.23584830760956,-0.02684371732175,-0.25066089630127
366,1955314790,3.22741842269897,0.37328660488129,15.76867675781250,-0.03833923861384,0.56409466266632,9.85394954681396,1.35134291648865,0.08005728572607,-0.33582821488380
367,1955323123,3.22777843475342,0.37294635176659,15.76903533935547,-0.07141398638487,0.56744933128357,9.85201072692871,1.33105671405792,0.03402851521969,-0.28372892737389
368,1955331456,3.22754764556885,0.37319141626358,15.76772785186768,-0.08355236053467,0.56371557712555,9.85221099853516,1.26317882537842,0.09634795039892,-0.44197365641594
369,1955339789,3.22706866264343,0.37472531199455,15.76760768890381,-0.08045517653227,0.58048182725906,9.83043098449707,1.23049497604370,0.25536110997200,-0.35450097918510
370,1955348122,3.22704815864563,0.37500646710396,15.76752948760986,-0.08854518830776,0.53069078922272,9.83553695678711,1.28789651393890,0.10684978216887,-0.33590504527092
371,1955356455,3.22763061523438,0.37491890788078,15.76733112335205,-0.08473274111748,0.55007499456406,9.85586547851562,1.35743916034698,0.06066731363535,-0.35396310687065
372,1955364788,3.22744059562683,0.37527227401733,15.76764202117920,-0.09489656984806,0.52867382764816,9.87186145782471,1.26873719692230,0.10897576808929,-0.45677867531776
373,1955373121,3.22732639312744,0.37517499923706,15.76742744445801,-0.06824527680874,0.56447374820709,9.83845615386963,1.27508938312531,0.05905362218618,-0.35665261745453
374,1955381454,3.22789931297302,0.37503889203072,15.76777553558350,-0.06017686799169,0.57279253005981,9.85349941253662,1.35815644264221,0.05810588598251,-0.31882038712502
375,1955389787,3.22770595550537,0.37473902106285,15.76779270172119,-0.05137887224555,0.55442398786545,9.86238956451416,1.26589381694794,0.03697414696217,-0.32676079869270
376,1955398120,3.22863101959229,0.37487369775772,15.76683139801025,-0.03215203061700,0.54100525379181,9.86060142517090,1.40139317512512,0.08505206555128,-0.41090354323387
377,1955406453,3.22930407524109,0.37434437870979,15.76687717437744,-0.06290925294161,0.53883081674576,9.85824108123779,1.36942660808563,0.00828620325774,-0.32089510560036
378,1955414786,3.22985744476318,0.37426382303238,15.76719474792480,-0.05142894014716,0.54958152770996,9.86097335815430,1.35605585575104,0.06607191264629,-0.29748371243477
379,1955423119,3.22947955131531,0.37305215001106,15.76760768890381,-0.07819487899542,0.55492472648621,9.85918521881104,1.24184215068817,-0.06987563520670,-0.27210000157356
380,1955431452,3.22863912582397,0.37267571687698,15.76783370971680,-0.07641381770372,0.56034654378891,9.85150337219238,1.18839800357819,0.03114690631628,-0.27239453792572
381,1955439785,3.22890639305115,0.37248316407204,15.76743888854980,-0.08705708384514,0.54496800899506,9.85274219512939,1.32186079025269,0.04663071036339,-0.37652921676636
382,1955448118,3.22848272323608,0.37239778041840,15.76834774017334,-0.09191380441189,0.52536922693253,9.84875774383545,1.23817932605743,0.06637928634882,-0.27586528658867
383,1955456451,3.22857832908630,0.37290221452713,15.76822566986084,-0.08936762064695,0.58274924755096,9.88305473327637,1.30014002323151,0.13095277547836,-0.34822553396225
384,1955464784,3.22850918769836,0.37188577651978,15.76827716827393,-0.07334525138140,0.55154854059219,9.86981487274170,1.28123676776886,-0.03798590600491,-0.15547840297222
385,1955473117,3.22922754287720,0.37169006466866,15.76928520202637,-0.06299499422312,0.58222001791000,9.83639049530029,1.37365293502808,0.05495534092188,-0.20734722912312
386,1955481450,3.22951030731201,0.37062555551529,15.76678180694580,-0.05815976485610,0.55779302120209,9.84855651855469,1.32355165481567,-0.05642815679312,-0.36239019036293
387,1955489783,3.23103594779968,0.36997929215431,15.76637840270996,-0.06433982402086,0.56310755014420,9.88226032257080,1.47260069847107,-0.00796602666378,-0.37360924482346
388,1955498116,3.23128342628479,0.36977010965347,15.76650142669678,-0.05371056869626,0.55468875169754,9.84768486022949,1.31929945945740,0.05119004845619,-0.28477907180786
389,1955506449,3.23089361190796,0.36961314082146,15.76657295227051,-0.05654322355986,0.56425201892853,9.85859870910645,1.24171400070190,0.05446866899729,-0.32120248675346
390,1955514782,3.23084712028503,0.37009617686272,15.76610565185547,-0.04587118327618,0.56247812509537,9.83623886108398,1.28454101085663,0.12559939920902,-0.42499136924744
391,1955523115,3.23107385635376,0.36967608332634,15.76611042022705,-0.03530643135309,0.55315083265305,9.84601020812988,1.31512439250946,0.02214350365102,-0.32588988542557
392,1955531448,3.23191571235657,0.37014827132225,15.76558589935303,-0.04394706711173,0.55404490232468,9.86028671264648,1.39094269275665,0.13023558259010,-0.34220620989799
393,1955539781,3.23205804824829,0.36985883116722,15.76573181152344,-0.03008471988142,0.56626921892166,9.84922313690186,1.30512201786041,0.03842135146260,-0.31134101748466
394,1955548114,3.23178339004517,0.36998081207275,15.76596164703369,-0.06735093146563,0.54287225008011,9.82521057128906,1.25738990306854,0.08963701128960,-0.28800645470619
395,1955556447,3.23216223716736,0.37031996250153,15.76624202728271,-0.09001137316227,0.55355137586594,9.86449241638184,1.33379721641541,0.11514879018068,-0.29963532090187
396,1955564780,3.23272871971130,0.36973941326141,15.76678848266602,-0.06376759707928,0.56573265790939,9.84914970397949,1.35710620880127,0.00723602110520,-0.27071687579155
397,1955573113,3.23305010795593,0.36932834982872,15.76729011535645,-0.08796565979719,0.56792140007019,9.87331199645996,1.32654845714569,0.02603686973453,-0.26707962155342
398,1955581446,3.23233103752136,0.36971381306648,15.76772403717041,-0.10345179587603,0.54536128044128,9.86514949798584,1.20408666133881,0.12275621294975,-0.28708434104919
399,1955589779,3.23281240463257,0.36960923671722,15.76729679107666,-0.09386675804853,0.55330103635788,9.84240531921387,1.34611773490906,0.05736308544874,-0.38206198811531
400,1955598112,3.23277187347412,0.36933928728104,15.76673412322998,-0.08175712823868,0.54523968696594,9.84380531311035,1.28525841236115,0.04086751490831,-0.30675610899925
401,1955606445,3.23272132873535,0.36939397454262,15.76718997955322,-0.07338113337755,0.54152023792267,9.85396289825439,1.28090369701385,0.08226010948420,-0.27514809370041
402,1955614778,3.23261141777039,0.36930167675018,15.76840019226074,-0.04588548839092,0.54779332876205,9.84362125396729,1.27703607082367,0.06853088736534,-0.22742880880833
403,1955623111,3.23238086700439,0.36850434541702,15.76872158050537,-0.05034171044827,0.54714238643646,9.83563804626465,1.26010501384735,-0.01992787607014,-0.28649520874023
404,1955631444,3.23195004463196,0.36769637465477,15.76766586303711,-0.02596463635564,0.55669146776199,9.87156009674072,1.23910129070282,-0.03063462302089,-0.43180474638939
405,1955639777,3.23184061050415,0.36792290210724,15.76784229278564,-0.05178658291698,0.53999674320221,9.86089515686035,1.27506363391876,0.10126587003469,-0.31113606691360
406,1955648110,3.23195409774780,0.36833745241165,15.76764202117920,-0.04137919470668,0.54430991411209,9.85374927520752,1.30249655246735,0.12334534525871,-0.32499343156815
407,1955656443,3.23259663581848,0.36843997240067,15.76879692077637,-0.04492709413171,0.56156963109970,9.85359764099121,1.36548209190369,0.09342791885138,-0.19338746368885
408,1955664776,3.23270392417908,0.36921837925911,15.76876258850098,-0.04125028476119,0.56111913919449,9.85980224609375,1.30230450630188,0.16485320031643,-0.36409354209900
409,1955673109,3.23333549499512,0.36914485692978,15.76887130737305,-0.06093491986394,0.55354428291321,9.86146163940430,1.36440634727478,0.06330557912588,-0.31679683923721
410,1955681442,3.23379325866699,0.36851549148560,15.76882076263428,-0.07278746366501,0.55019658803940,9.82184600830078,1.34519553184509,0.00034579215571,-0.29397457838058
411,1955689775,3.23364996910095,0.36836463212967,15.76867389678955,-0.09245749562979,0.54580491781235,9.85668277740479,1.27088856697083,0.05265005677938,-0.34599709510803
412,1955698108,3.23386955261230,0.36843776702881,15.76931571960449,-0.10480357706547,0.53047621250153,9.88450527191162,1.31658446788788,0.08623031526804,-0.26446694135666
413,1955706441,3.23403501510620,0.36825788021088,15.76918888092041,-0.06502633541822,0.57357221841812,9.84891510009766,1.30859279632568,0.04993494600058,-0.34294897317886
414,1955714774,3.23428583145142,0.36823597550392,15.76997089385986,-0.07965406030416,0.55523228645325,9.83556652069092,1.31881284713745,0.07488321512938,-0.25376021862030
415,1955723107,3.23435974121094,0.36840277910233,15.77021217346191,-0.08019065856934,0.55925923585892,9.84606552124023,1.29757869243622,0.09481107443571,-0.30171003937721
416,1955731440,3.23446846008301,0.36790335178375,15.76845836639404,-0.04949076101184,0.54667025804520,9.84248256683350,1.30387997627258,0.00195948895998,-0.54151052236557
417,1955739773,3.23442530632019,0.36663252115250,15.76931571960449,-0.04891829192638,0.55038267374039,9.83633899688721,1.28323483467102,-0.07548514753580,-0.21871997416019
418,1955748106,3.22572565078735,0.37166756391525,15.76910877227783,-0.02688038349152,0.55411642789841,9.87462139129639,1.37534344196320,0.13822720944881,-0.34930130839348
419,1955756439,3.22589564323425,0.37258273363113,15.76834774017334,-0.04871820285916,0.53752893209457,9.84551525115967,1.31087231636047,0.17669980227947,-0.42847490310669
420,1955764772,3.22647905349731,0.37190508842468,15.76798343658447,-0.04367525875568,0.55622655153275,9.84221172332764,1.36071777343750,-0.01132149156183,-0.38769704103470
421,1955773105,3.22647380828857,0.37218499183655,15.76733493804932,-0.04886840283871,0.54687768220901,9.85366916656494,1.28830635547638,0.10008762031794,-0.41034001111984
422,1955781438,3.22695374488831,0.37139439582825,15.76822090148926,-0.05260904133320,0.55356574058533,9.84802150726318,1.34867906570435,-0.01657241024077,-0.26147010922432
423,1955789771,3.22648501396179,0.37102341651917,15.76843070983887,-0.05774490162730,0.53612703084946,9.85480117797852,1.23246741294861,0.02880320884287,-0.30281150341034
424,1955798104,3.22591876983643,0.37118187546730,15.76946067810059,-0.08289429545403,0.55890882015228,9.83965778350830,1.22185015678406,0.09200633317232,-0.33389434218407
425,1955806437,3.22674036026001,0.37178149819374,15.76900482177734,-0.07970412820578,0.54526835680008,9.83965778350830,1.38897025585175,0.14063495397568,-0.39000234007835
426,1955814770,3.22627353668213,0.37220132350922,15.76936721801758,-0.09285105764866,0.54675614833832,9.82807731628418,1.23287725448608,0.12793029844761,-0.25790974497795
427,1955823103,3.22677564620972,0.37259608507156,15.76937389373779,-0.08468235284090,0.55625522136688,9.86561012268066,1.35052335262299,0.11893970519304,-0.33149945735931
428,1955831436,3.22712779045105,0.37275457382202,15.77019691467285,-0.07869558036327,0.54951715469360,9.83463001251221,1.33195316791534,0.09365845471621,-0.31923019886017
429,1955839769,3.22685909271240,0.37289831042290,15.77032279968262,-0.06186493858695,0.56216341257095,9.87282562255859,1.25803029537201,0.08907350152731,-0.31638699769974
430,1955848102,3.22734904289246,0.37345027923584,15.77069187164307,-0.04605703055859,0.54453170299530,9.86846351623535,1.34855091571808,0.14173635840416,-0.28406184911728
431,1955856435,3.22695398330688,0.37286069989204,15.77044296264648,-0.06622817367315,0.55618363618851,9.85705375671387,1.24104809761047,-0.00035859929631,-0.35585853457451
432,1955864768,3.22669315338135,0.37285691499710,15.77021026611328,-0.05588516220450,0.54988908767700,9.84447193145752,1.25984895229340,0.07770078629255,-0.26728454232216
433,1955873101,3.22673845291138,0.37213543057442,15.77064037322998,-0.05383944883943,0.55073314905167,9.85540199279785,1.29458189010620,-0.01283273193985,-0.27440527081490
434,1955881434,3.22684574127197,0.37199765443802,15.77004623413086,-0.04263809695840,0.54669177532196,9.82246971130371,1.30213797092438,0.05595429241657,-0.34817430377007
435,1955889767,3.22778272628784,0.37198796868324,15.76991271972656,-0.04622882232070,0.56413757801056,9.84781265258789,1.40236639976501,0.06981159746647,-0.34589460492134
436,1955898100,3.22752690315247,0.37202438712120,15.77007865905762,-0.06376044452190,0.57427316904068,9.84060192108154,1.25995135307312,0.07734218239784,-0.32127934694290
437,1955906433,3.22670269012451,0.37176609039307,15.76950359344482,-0.06404655426741,0.56397306919098,9.83128261566162,1.19033181667328,0.03728151693940,-0.39686694741249
438,1955914766,3.22602367401123,0.37198391556740,15.76858139038086,-0.07079168409109,0.56138372421265,9.85583782196045,1.20959377288818,0.09949849545956,-0.33956789970398
439,1955923099,3.22525191307068,0.37301930785179,15.76814079284668,-0.06646390259266,0.55445992946625,9.85136890411377,1.19642817974091,0.19291360676289,-0.38925954699516
440,1955931432,3.22443556785583,0.37311902642250,15.76810455322266,-0.08496861904860,0.54093372821808,9.85812664031982,1.19302141666412,0.08479592204094,-0.32837450504303
441,1955939765,3.22426342964172,0.37379479408264,15.76836299896240,-0.09050479531288,0.55433106422424,9.83548927307129,1.26891624927521,0.15503016114235,-0.30509117245674
442,1955948098,3.22403550148010,0.37352263927460,15.76911449432373,-0.07441817969084,0.56591862440109,9.84665393829346,1.26215422153473,0.04350577294827,-0.27922078967094
443,1955956431,3.22405838966370,0.37395286560059,15.76852703094482,-0.08009038120508,0.54843705892563,9.84904956817627,1.29230213165283,0.11860671639442,-0.40380838513374
444,1955964764,3.22407102584839,0.37427902221680,15.76826667785645,-0.05986197665334,0.53685671091080,9.84588241577148,1.29340362548828,0.10964172333479,-0.38280475139618
445,1955973097,3.22464466094971,0.37474310398102,15.76840400695801,-0.07981842756271,0.51680010557175,9.85271358489990,1.35751616954803,0.12926222383976,-0.31687369942665
446,1955981430,3.22493314743042,0.37461924552917,15.76879787445068,-0.06638553738594,0.54418116807938,9.85387802124023,1.32360279560089,0.05767045542598,-0.33329242467880
447,1955989763,3.22499704360962,0.37485358119011,15.76914787292480,-0.05934713780880,0.58511686325073,9.85290527343750,1.29737389087677,0.10195746272802,-0.28969702124596
448,1955998096,3.22440862655640,0.37476000189781,15.76930904388428,-0.07148574292660,0.56222051382065,9.86189556121826,1.21937847137451,0.06625121831894,-0.27519932389259
449,1956006429,3.22434592247009,0.37470352649689,15.76827907562256,-0.05552751943469,0.56476700305939,9.87143802642822,1.28215897083282,0.05708132684231,-0.45316711068153
450,1956014762,3.22387909889221,0.37484520673752,15.77040004730225,-0.05288075283170,0.52976107597351,9.87500190734863,1.23443961143494,0.09565635770559,-0.25988203287125
451,1956023095,3.22483873367310,0.37468436360359,15.77013492584229,-0.02419091574848,0.56945210695267,9.87477874755859,1.40436434745789,0.05021670460701,-0.36116069555283
452,1956031428,3.22396111488342,0.37487965822220,15.76979923248291,-0.06279480457306,0.52725750207901,9.87191772460938,1.18538844585419,0.09755181521177,-0.32084393501282
453,1956039761,3.22423601150513,0.37592577934265,15.77043914794922,-0.03609324619174,0.56526774168015,9.86436367034912,1.32175838947296,0.20164805650711,-0.26016375422478
454,1956048094,3.22454023361206,0.37627851963043,15.77040481567383,-0.05032024905086,0.55020385980606,9.84889984130859,1.32606160640717,0.11573791503906,-0.31615647673607
455,1956056427,3.22472500801086,0.37660345435143,15.77019023895264,-0.06438273936510,0.54011833667755,9.83048820495605,1.31230700016022,0.10974418371916,-0.35826629400253
456,1956064760,3.22475528717041,0.37661996483803,15.76919555664062,-0.07067724317312,0.56733489036560,9.85616683959961,1.29437696933746,0.06740386039019,-0.45708602666855
457,1956073093,3.22508358955383,0.37685552239418,15.76913070678711,-0.08302304893732,0.55508923530579,9.86612415313721,1.32867431640625,0.09998515993357,-0.33936300873756
458,1956081426,3.22533845901489,0.37722098827362,15.77057933807373,-0.07435370236635,0.56682711839676,9.85322856903076,1.31928670406342,0.12379359453917,-0.21873275935650
459,1956089759,3.22477173805237,0.37606140971184,15.77073669433594,-0.09422440081835,0.56117630004883,9.83998680114746,1.22146606445312,-0.06607191264629,-0.30410498380661
460,1956098092,3.22454333305359,0.37631362676620,15.77030563354492,-0.08884546160698,0.57252788543701,9.86879158020020,1.26369106769562,0.10080482065678,-0.36110949516296
461,1956106425,3.22465181350708,0.37641245126724,15.77022075653076,-0.08226500451565,0.55011790990829,9.86993503570557,1.30201005935669,0.08456540107727,-0.34115600585938
462,1956114758,3.22448825836182,0.37636241316795,15.77053451538086,-0.06456871330738,0.55104786157608,9.84920024871826,1.27020990848541,0.06969632953405,-0.28758379817009
463,1956123091,3.22461748123169,0.37684020400047,15.77088642120361,-0.04798842221498,0.54893779754639,9.85186767578125,1.30495572090149,0.13136260211468,-0.29184857010841
464,1956131424,3.22400450706482,0.37694954872131,15.77141952514648,-0.04843189939857,0.53461778163910,9.88238239288330,1.21679139137268,0.08648645877838,-0.31254488229752
465,1956139757,3.22445988655090,0.37673819065094,15.77114295959473,-0.05778066441417,0.56555384397507,9.87005805969238,1.34411978721619,0.04529877379537,-0.36200600862503
466,1956148090,3.22504281997681,0.37616580724716,15.77151870727539,-0.04877523705363,0.54422408342361,9.87174606323242,1.35984694957733,0.00639075133950,-0.28196150064468
467,1956156423,3.22515726089478,0.37656560540199,15.77174377441406,-0.04914003238082,0.55898749828339,9.84327030181885,1.30229175090790,0.12216708809137,-0.30652552843094
468,1956164756,3.22517085075378,0.37697008252144,15.77137660980225,-0.07403907924891,0.53456056118011,9.84836292266846,1.29348039627075,0.11922144889832,-0.37504357099533
469,1956173089,3.22517728805542,0.37679788470268,15.77231407165527,-0.06616380065680,0.55790030956268,9.86874198913574,1.28789639472961,0.05787536129355,-0.21797712147236
470,1956181422,3.22574543952942,0.37704807519913,15.77254772186279,-0.07466852664948,0.56357252597809,9.85450077056885,1.35863006114960,0.10368641465902,-0.30456602573395
471,1956189755,3.22591257095337,0.37687319517136,15.77181529998779,-0.09117729216814,0.56875115633011,9.84482288360596,1.31043696403503,0.04611843079329,-0.41802430152893
472,1956198088,3.22615003585815,0.37701123952866,15.77172183990479,-0.09169229120016,0.56632632017136,9.85447216033936,1.31878721714020,0.08889420330524,-0.35017222166061
473,1956206421,3.22619891166687,0.37667113542557,15.77137279510498,-0.09600545465946,0.53846603631973,9.85070896148682,1.29652845859528,0.02972531691194,-0.37050992250443
474,1956214754,3.22639322280884,0.37615853548050,15.77143478393555,-0.08665668964386,0.56224209070206,9.85138130187988,1.31284475326538,0.00859357509762,-0.35580733418465
475,1956223087,3.22675895690918,0.37572345137596,15.77133369445801,-0.09302987903357,0.52591276168823,9.85377788543701,1.33395087718964,0.01999190822244,-0.33785173296928
476,1956231420,3.22719383239746,0.37504839897156,15.77296161651611,-0.08163526654243,0.57169103622437,9.87550258636475,1.34217309951782,-0.00448249094188,-0.26784804463387
477,1956239753,3.22700309753418,0.37517383694649,15.77243995666504,-0.06235133111477,0.54471045732498,9.86110973358154,1.26645743846893,0.08397626876831,-0.39307606220245
478,1956248086,3.22653412818909,0.37574514746666,15.77249145507812,-0.04705139994621,0.56202030181885,9.82727622985840,1.23326134681702,0.14335006475449,-0.27637758851051
479,1956256419,3.22658061981201,0.37601956725121,15.77215003967285,-0.03897568210959,0.54124855995178,9.83138370513916,1.29604172706604,0.10392975062132,-0.37232849001884
480,1956264752,3.22684788703918,0.37591531872749,15.77246761322021,-0.02755990438163,0.54177063703537,9.85862731933594,1.32175838947296,0.06038555502892,-0.31631013751030
481,1956273085,3.22662997245789,0.37641346454620,15.77286052703857,-0.02650128304958,0.57722014188766,9.86849117279053,1.26317882537842,0.13512791693211,-0.28577801585197
482,1956281418,3.22677087783813,0.37682417035103,15.77301025390625,-0.04555645585060,0.54225701093674,9.83464431762695,1.30686390399933,0.12192374467850,-0.34457546472549
483,1956289751,3.22705149650574,0.37651202082634,15.77283096313477,-0.06016240268946,0.55985307693481,9.81886577606201,1.32269346714020,0.03319604694843,-0.35028743743896
484,1956298084,3.22712326049805,0.37602946162224,15.77332782745361,-0.04985531419516,0.52843058109283,9.83995151519775,1.30090844631195,0.01294799614698,-0.36774358153343
485,1956306417,3.22748255729675,0.37600621581078,15.77385807037354,-0.06883180886507,0.55194914340973,9.84646034240723,1.33195281028748,0.07303898781538,-0.26623430848122
486,1956314750,3.22668337821960,0.37688210606575,15.77426433563232,-0.10039015114307,0.53212141990662,9.84786224365234,1.19263732433319,0.18200194835663,-0.26474875211716
487,1956323083,3.22630262374878,0.37642267346382,15.77434635162354,-0.10701368004084,0.55527520179749,9.86888504028320,1.24426245689392,0.01782750524580,-0.31593874096870
488,1956331416,3.22691273689270,0.37563756108284,15.77371597290039,-0.08411759883165,0.55296474695206,9.85664463043213,1.36299741268158,-0.02269421331584,-0.34402477741241
489,1956339749,3.22693562507629,0.37550723552704,15.77352428436279,-0.08034788817167,0.54537564516068,9.85082340240479,1.29266071319580,0.05428937077522,-0.35106867551804
490,1956348082,3.22726845741272,0.37513309717178,15.77352428436279,-0.08007591962814,0.55533248186111,9.85976600646973,1.33031380176544,0.02803478203714,-0.33713456988335
491,1956356415,3.22744822502136,0.37524774670601,15.77376174926758,-0.06220827624202,0.55688458681107,9.85031604766846,1.31112873554230,0.08866367489100,-0.30127462744713
492,1956364748,3.22696685791016,0.37551414966583,15.77264213562012,-0.05846018716693,0.54832261800766,9.85198974609375,1.23264670372009,0.10308450460434,-0.36292812228203
493,1956373081,3.22749733924866,0.37496075034142,15.77210044860840,-0.04941184073687,0.54604089260101,9.83063125610352,1.35229086875916,0.00154966115952,-0.39066830277443
494,1956381414,3.22794485092163,0.37516108155251,15.77204608917236,-0.03707318380475,0.55681306123734,9.84209728240967,1.34403014183044,0.10220079869032,-0.24327120184898
495,1956389747,3.22767114639282,0.37520909309387,15.77147006988525,-0.01707366481423,0.53746467828751,9.87437057495117,1.25756931304932,0.07403795421124,-0.39914661645889
496,1956398080,3.22770857810974,0.37527593970299,15.77145004272461,-0.02589329145849,0.53783655166626,9.87740421295166,1.29522216320038,0.07867412269115,-0.37332746386528
497,1956406413,3.22757053375244,0.37562394142151,15.77135276794434,-0.05378937721252,0.55430239439011,9.87870597839355,1.27170836925507,0.11284350603819,-0.34402477741241
498,1956414746,3.22734713554382,0.37536898255348,15.77187347412109,-0.06737262755632,0.55049711465836,9.86565876007080,1.26328122615814,0.04803950339556,-0.22512352466583
499,1956423079,3.22754454612732,0.37533891201019,15.77151489257812,-0.08612022548914,0.56602591276169,9.85324859619141,1.31238389015198,0.06617438048124,-0.37314817309380
500,1956431412,3.22714734077454,0.37528893351555,15.77175903320312,-0.07723639905453,0.53903108835220,9.84681129455566,1.24325084686279,0.06806982308626,-0.32250878214836
501,1956439745,3.22625255584717,0.37485662102699,15.77157974243164,-0.09896673262119,0.55178463459015,9.83992958068848,1.18187916278839,0.01904418133199,-0.34901955723763
502,1956448078,3.22671771049500,0.37506350874901,15.77128601074219,-0.11656988412142,0.53077673912048,9.85802650451660,1.34545159339905,0.09893497079611,-0.30050614476204
503,1956456411,3.22704982757568,0.37530845403671,15.77116107940674,-0.11236400902271,0.55838668346405,9.86136722564697,1.32859742641449,0.10042059421539,-0.34543353319168
504,1956464744,3.22784590721130,0.37538957595825,15.77189064025879,-0.09456755965948,0.55335831642151,9.85114669799805,1.38689553737640,0.08110747486353,-0.36984393000603
505,1956473077,3.22821092605591,0.37547528743744,15.77149772644043,-0.07891016453505,0.56036084890366,9.86073017120361,1.33308005332947,0.07939132302999,-0.37650367617607
506,1956481410,3.22882151603699,0.37536397576332,15.77177143096924,-0.06135692819953,0.55288624763489,9.84975242614746,1.36304867267609,0.05897677689791,-0.34271845221519
507,1956489743,3.22897720336914,0.37505355477333,15.77196884155273,-0.02195193991065,0.53852331638336,9.85007381439209,1.30887460708618,0.03671800345182,-0.30414342880249
508,1956498076,3.22911405563354,0.37460872530937,15.77218055725098,-0.03418343514204,0.55594754219055,9.85653209686279,1.30590331554413,0.01848066970706,-0.35665258765221
509,1956506409,3.22907495498657,0.37478503584862,15.77267456054688,-0.01202392857522,0.54629123210907,9.84209728240967,1.28520715236664,0.09624549001455,-0.27215123176575
510,1956514742,3.22944164276123,0.37518471479416,15.77266216278076,-0.02933380939066,0.54280066490173,9.85198211669922,1.33366918563843,0.12250008434057,-0.29804724454880
511,1956523075,3.22932076454163,0.37567296624184,15.77195072174072,-0.02374743856490,0.55102640390396,9.83327770233154,1.27555036544800,0.12603484094143,-0.41997092962265
512,1956531408,3.22942376136780,0.37556132674217,15.77141380310059,-0.03522059693933,0.55030399560928,9.85008716583252,1.30295777320862,0.05613359808922,-0.39463847875595
513,1956539741,3.22910761833191,0.37499898672104,15.77117347717285,-0.07153557986021,0.55893027782440,9.83940029144287,1.25206220149994,0.00316335773095,-0.35475715994835
514,1956548074,3.22921419143677,0.37526646256447,15.77266216278076,-0.08379555493593,0.54173487424850,9.85250473022461,1.30162584781647,0.11374000459909,-0.18293684720993
515,1956556407,3.22877621650696,0.37565052509308,15.77273368835449,-0.08762975037098,0.56568253040314,9.83404159545898,1.23707783222198,0.11763337254524,-0.32253438234329
516,1956564740,3.22861170768738,0.37558379769325,15.77293586730957,-0.11424520611763,0.56362259387970,9.88319778442383,1.26940310001373,0.07009335607290,-0.24968756735325
517,1956573073,3.22941112518311,0.37566253542900,15.77290153503418,-0.09806532412767,0.54878050088882,9.84684085845947,1.38584530353546,0.08182467520237,-0.33500853180885
518,1956581406,3.22951006889343,0.37575498223305,15.77246761322021,-0.08117761462927,0.55011796951294,9.86153125762939,1.30167698860168,0.08080010116100,-0.37058672308922
519,1956589739,3.22888731956482,0.37644648551941,15.77306842803955,-0.08226506412029,0.54704219102859,9.85549354553223,1.21358966827393,0.15905158221722,-0.26364731788635
520,1956598072,3.22868728637695,0.37636277079582,15.77261066436768,-0.05800240486860,0.56021064519882,9.85894966125488,1.26696968078613,0.06146135181189,-0.35698556900024
521,1956606405,3.22880339622498,0.37661156058311,15.77330398559570,-0.03840361535549,0.55693465471268,9.83729743957520,1.30306005477905,0.10684978961945,-0.24807386100292
522,1956614738,3.22852373123169,0.37615725398064,15.77447223663330,-0.04329615831375,0.53383100032806,9.84064483642578,1.25562250614166,0.02370597235858,-0.23321761190891
523,1956623071,3.22889780998230,0.37600556015968,15.77428436279297,-0.02315375208855,0.56478846073151,9.84980773925781,1.33397662639618,0.05331602692604,-0.35150417685509
524,1956631404,3.22818922996521,0.37587934732437,15.77405548095703,-0.03129368647933,0.53087687492371,9.84972953796387,1.20557236671448,0.05467358231544,-0.37440326809883
525,1956639737,3.22755718231201,0.37550640106201,15.77484607696533,-0.02804629690945,0.52799427509308,9.83651828765869,1.21307730674744,0.03187691420317,-0.23288461565971
526,1956648070,3.22777915000916,0.37487909197807,15.77545928955078,-0.03285287320614,0.54066199064255,9.86996650695801,1.31655883789062,0.00001280711876,-0.29743251204491
527,1956656403,3.22838878631592,0.37488105893135,15.77496719360352,-0.06444711238146,0.58263480663300,9.82723331451416,1.36292052268982,0.06960667669773,-0.38918262720108
528,1956664736,3.22826623916626,0.37543871998787,15.77442455291748,-0.07390317320824,0.54927396774292,9.85811996459961,1.27469241619110,0.14085267484188,-0.31893563270569
529,1956673069,3.22794580459595,0.37583848834038,15.77427577972412,-0.09678512066603,0.55609774589539,9.86706066131592,1.25143456459045,0.11900373548269,-0.34954464435577
530,1956681402,3.22759628295898,0.37589988112450,15.77446365356445,-0.09119159728289,0.56650513410568,9.86336994171143,1.24793827533722,0.08113307505846,-0.30276021361351
531,1956689735,3.22693014144897,0.37637886404991,15.77427387237549,-0.11104073375463,0.53491103649139,9.87278270721436,1.21054160594940,0.12921100854874,-0.35544872283936
532,1956698068,3.22633838653564,0.37667834758759,15.77518272399902,-0.08228630572557,0.56821471452713,9.85696792602539,1.21909666061401,0.10979541391134,-0.30926623940468
533,1956706401,3.22644948959351,0.37643489241600,15.77560424804688,-0.06662157922983,0.58256328105927,9.84548759460449,1.30201005935669,0.04532439261675,-0.27673622965813
534,1956714734,3.22678685188293,0.37687259912491,15.77551078796387,-0.07956106960773,0.55882298946381,9.86774063110352,1.33097970485687,0.12457483261824,-0.36456736922264
535,1956723067,3.22674036026001,0.37605527043343,15.77391529083252,-0.03959098458290,0.54200667142868,9.87636661529541,1.28475868701935,-0.03712783008814,-0.51603716611862
536,1956731400,3.22636294364929,0.37671437859535,15.77261447906494,-0.04793835431337,0.53197836875916,9.84556674957275,1.24606847763062,0.14481005072594,-0.44881260395050
537,1956739733,3.22622728347778,0.37701630592346,15.77276515960693,-0.02073595486581,0.55446702241898,9.84415817260742,1.27370619773865,0.11010278761387,-0.31482455134392
538,1956748066,3.22669029235840,0.37715509533882,15.77263164520264,-0.03168694674969,0.53831589221954,9.84892940521240,1.34486258029938,0.08848436921835,-0.33155065774918
539,1956756399,3.22618770599365,0.37719655036926,15.77272891998291,-0.03632928803563,0.55628377199173,9.86502933502197,1.23036694526672,0.07872534543276,-0.31871795654297
540,1956764732,3.22579455375671,0.37682056427002,15.77200794219971,-0.03785999864340,0.54157036542892,9.85683917999268,1.24376332759857,0.02280947752297,-0.39597046375275
541,1956773065,3.22525453567505,0.37578314542770,15.77290153503418,-0.07921773940325,0.55777156352997,9.86764049530029,1.22355353832245,-0.04577263817191,-0.21687574684620
542,1956781398,3.22563958168030,0.37657788395882,15.77293586730957,-0.07612755149603,0.54014700651169,9.84473800659180,1.33593606948853,0.16836234927177,-0.35051798820496
543,1956789731,3.22546648979187,0.37653660774231,15.77379989624023,-0.09062652289867,0.54599797725677,9.84982204437256,1.26871144771576,0.07152775675058,-0.22732633352280
544,1956798064,3.22550940513611,0.37718966603279,15.77373123168945,-0.08918164670467,0.55688458681107,9.86456394195557,1.29552948474884,0.15029151737690,-0.35135042667389
545,1956806397,3.22437882423401,0.37733593583107,15.77375888824463,-0.10724972933531,0.57635462284088,9.87972831726074,1.15372908115387,0.08981631696224,-0.32783657312393
546,1956814730,3.22437024116516,0.37767046689987,15.77427387237549,-0.07247260212898,0.55832946300507,9.84236240386963,1.28840875625610,0.11548177152872,-0.31139224767685
547,1956823063,3.22426939010620,0.37823522090912,15.77330970764160,-0.08865929394960,0.55749982595444,9.82884407043457,1.27725398540497,0.13327085971832,-0.44913280010223
548,1956831396,3.22412776947021,0.37759861350060,15.77349948883057,-0.06594920903444,0.54103386402130,9.87006473541260,1.27392387390137,-0.00111421919428,-0.27567318081856
549,1956839729,3.22366523742676,0.37808933854103,15.77354717254639,-0.07210780680180,0.54905223846436,9.86004352569580,1.23390161991119,0.13082469999790,-0.32719621062279
550,1956848062,3.22366499900818,0.37742331624031,15.77568435668945,-0.06234428659081,0.55157709121704,9.82587337493896,1.28999698162079,-0.00174176809378,-0.24825318157673
551,1956856395,3.22369933128357,0.37713319063187,15.77487182617188,-0.03768851980567,0.55993163585663,9.85105133056641,1.29340362548828,0.03210744261742,-0.42522189021111
552,1956864728,3.22331023216248,0.37741753458977,15.77329730987549,-0.06095652654767,0.52908146381378,9.83615303039551,1.24410879611969,0.10337904095650,-0.38614735007286
553,1956873061,3.22324895858765,0.37761041522026,15.77380847930908,-0.02805356681347,0.56586849689484,9.85359096527100,1.28155708312988,0.09848673641682,-0.27057597041130
554,1956881394,3.22284746170044,0.37718433141708,15.77378273010254,-0.05595642328262,0.54370194673538,9.84287071228027,1.24276423454285,0.02298877388239,-0.31374874711037
555,1956889727,3.22274208068848,0.37735247612000,15.77421760559082,-0.05456903949380,0.55127674341202,9.86439228057861,1.27624201774597,0.09578443318605,-0.27906706929207
556,1956898060,3.22196245193481,0.37804087996483,15.77340507507324,-0.07043437659740,0.55782145261765,9.84856891632080,1.19674825668335,0.15050925314426,-0.41691014170647
557,1956906393,3.22193193435669,0.37852081656456,15.77364444732666,-0.06544851511717,0.55574727058411,9.86447811126709,1.28562963008881,0.13081188499928,-0.30404096841812
558,1956914726,3.22171735763550,0.37820905447006,15.77358627319336,-0.08026920258999,0.54595506191254,9.84863471984863,1.26469004154205,0.03597519174218,-0.31907650828362
559,1956923059,3.22222995758057,0.37858563661575,15.77349090576172,-0.09860908985138,0.54244297742844,9.83087444305420,1.35024166107178,0.11673687398434,-0.34364059567451
560,1956931392,3.22308635711670,0.37867426872253,15.77349948883057,-0.09129173308611,0.56865817308426,9.86141014099121,1.39409303665161,0.08164536952972,-0.37609383463860
561,1956939725,3.22316169738770,0.37901720404625,15.77405261993408,-0.07591312378645,0.54542571306229,9.87792587280273,1.29719460010529,0.11673687398434,-0.26526105403900
562,1956948058,3.22348642349243,0.37886735796928,15.77431392669678,-0.07705042511225,0.56282860040665,9.85226821899414,1.32884097099304,0.05850291997194,-0.25915202498436
563,1956956391,3.22303390502930,0.37969639897346,15.77338981628418,-0.05891796573997,0.53723573684692,9.84749794006348,1.23661696910858,0.16594183444977,-0.44686597585678
564,1956964724,3.22298765182495,0.37952023744583,15.77329063415527,-0.04923301935196,0.53968203067780,9.84638881683350,1.28425920009613,0.05305988341570,-0.30568027496338
565,1956973057,3.22309279441833,0.37933003902435,15.77336025238037,-0.05743718892336,0.54589790105820,9.82904434204102,1.30189478397369,0.04956354573369,-0.31992182135582
566,1956981390,3.22364687919617,0.37880814075470,15.77387142181396,-0.04260936751962,0.55123388767242,9.85897254943848,1.35772097110748,0.01402379292995,-0.25919041037560
567,1956989723,3.22403192520142,0.37940487265587,15.77384090423584,-0.04901843145490,0.55028969049454,9.88055801391602,1.33530843257904,0.14434902369976,-0.33795422315598
568,1956998056,3.22441506385803,0.38012069463730,15.77417182922363,-0.06271612644196,0.54555445909500,9.88936328887939,1.33571827411652,0.15994809567928,-0.29640793800354
569,1957006389,3.22420454025269,0.37997859716415,15.77439689636230,-0.06026270240545,0.55419510602951,9.85061645507812,1.26410090923309,0.05720939114690,-0.30158197879791
570,1957014722,3.22386026382446,0.38082581758499,15.77451324462891,-0.03290307894349,0.54720681905746,9.85307693481445,1.24893724918365,0.17306257784367,-0.33659663796425
571,1957023055,3.22405934333801,0.38008031249046,15.77508735656738,-0.04112169519067,0.57143348455429,9.85284805297852,1.31274235248566,-0.01239728834480,-0.25509214401245
572,1957031388,3.22420716285706,0.37934917211533,15.77538394927979,-0.05996228381991,0.56218487024307,9.85548019409180,1.30792689323425,-0.01349870115519,-0.30071112513542
573,1957039721,3.22451210021973,0.37977743148804,15.77645301818848,-0.07170724868774,0.55421656370163,9.85588073730469,1.32431995868683,0.13059416413307,-0.20422229170799
574,1957048054,3.22451329231262,0.37956812977791,15.77565383911133,-0.09103423357010,0.55807197093964,9.84114551544189,1.29075253009796,0.04577263817191,-0.36514374613762
575,1957056387,3.22499561309814,0.37994343042374,15.77495384216309,-0.08472542464733,0.53578370809555,9.87141704559326,1.34816694259644,0.11225438863039,-0.41566780209541
576,1957064720,3.22520446777344,0.37985411286354,15.77472686767578,-0.07973273843527,0.54457455873489,9.84067344665527,1.31535494327545,0.05843887105584,-0.40088838338852
577,1957073053,3.22564387321472,0.37996926903725,15.77442455291748,-0.07073429226875,0.52900284528732,9.83229160308838,1.34268534183502,0.08348959684372,-0.36694952845573
578,1957081386,3.22594189643860,0.38041213154793,15.77518653869629,-0.07781577855349,0.56163406372070,9.83110332489014,1.32683026790619,0.12728995084763,-0.31075188517570
579,1957089719,3.22564148902893,0.38091781735420,15.77514553070068,-0.07114245742559,0.55085462331772,9.83042240142822,1.25283050537109,0.13241277635098,-0.33831280469894
580,1957098052,3.22523498535156,0.38032746315002,15.77251911163330,-0.07136391103268,0.55514645576477,9.84532356262207,1.24147069454193,-0.00085807678988,-0.39862152934074
581,1957106385,3.22494292259216,0.37944129109383,15.77232456207275,-0.07320219278336,0.57073962688446,9.84000110626221,1.25486707687378,-0.03548852354288,-0.34629169106483
582,1957114718,3.22510147094727,0.37980666756630,15.77326679229736,-0.05386805906892,0.53537601232529,9.86914253234863,1.30992472171783,0.11645511537790,-0.31943511962891
583,1957123051,3.22560882568359,0.38027128577232,15.77398395538330,-0.06375329196453,0.54145592451096,9.85269069671631,1.35013914108276,0.13295069336891,-0.24656262993813
584,1957131384,3.22646498680115,0.37961101531982,15.77525997161865,-0.05280238389969,0.52859503030777,9.86288261413574,1.39124989509583,0.00029456368065,-0.20517000555992
585,1957139717,3.22628355026245,0.37980169057846,15.77605152130127,-0.04585667327046,0.56799304485321,9.85716915130615,1.26675212383270,0.10104816406965,-0.23636814951897
586,1957148050,3.22662782669067,0.37903133034706,15.77612018585205,-0.04241636022925,0.53726434707642,9.87057971954346,1.33165836334229,-0.01860874146223,-0.30044215917587
587,1957156383,3.22667622566223,0.37899723649025,15.77637481689453,-0.06430406123400,0.54496794939041,9.84781265258789,1.29543983936310,0.07069528847933,-0.29925110936165
588,1957164716,3.22690153121948,0.37919580936432,15.77609062194824,-0.07327372580767,0.54127711057663,9.84641075134277,1.31757056713104,0.09303089976311,-0.38747936487198
589,1957173049,3.22706174850464,0.37908744812012,15.77656078338623,-0.08661365509033,0.52990412712097,9.84026050567627,1.30842614173889,0.06278048455715,-0.27270194888115
590,1957181382,3.22771191596985,0.38036900758743,15.77646350860596,-0.06069202721119,0.55997455120087,9.87027835845947,1.36836361885071,0.22571262717247,-0.35144010186195
591,1957189715,3.22745418548584,0.38046205043793,15.77680683135986,-0.09611275047064,0.56593292951584,9.83908557891846,1.25812005996704,0.08516733348370,-0.28968420624733
592,1957198048,3.22694563865662,0.38030010461807,15.77666187286377,-0.08385243266821,0.55477458238602,9.86643981933594,1.23005962371826,0.04870547354221,-0.40450003743172
593,1957206381,3.22715663909912,0.38080856204033,15.77667140960693,-0.08202165365219,0.52452510595322,9.84023761749268,1.31425344944000,0.13407769799232,-0.33219099044800
594,1957214714,3.22683787345886,0.38108059763908,15.77730655670166,-0.05112136900425,0.55558276176453,9.83138942718506,1.25239515304565,0.10392975062132,-0.34533107280731
595,1957223047,3.22715330123901,0.38185700774193,15.77708148956299,-0.07484035193920,0.55829364061356,9.84565830230713,1.32803392410278,0.16304740309715,-0.36218523979187
596,1957231380,3.22711229324341,0.38145205378532,15.77896499633789,-0.06518399715424,0.56744211912155,9.84520721435547,1.28346514701843,0.03446394950151,-0.16477636992931
597,1957239713,3.22676897048950,0.38051936030388,15.77821159362793,-0.04269549995661,0.55862271785736,9.86102390289307,1.24909090995789,-0.04487613961101,-0.41418218612671
598,1957248046,3.22669458389282,0.38084265589714,15.77740764617920,-0.04621451720595,0.54466038942337,9.87500000000000,1.28068614006042,0.11070472002029,-0.34928852319717
599,1957256379,3.22660779953003,0.38160151243210,15.77695465087891,-0.04399713873863,0.55219233036041,9.83927154541016,1.27953338623047,0.16014018654823,-0.38924673199654
600,1957264712,3.22630071640015,0.38188722729683,15.77685260772705,-0.04351074248552,0.52468246221542,9.86653137207031,1.25345814228058,0.10827135294676,-0.30655112862587
601,1957273045,3.22651314735413,0.38170462846756,15.77675342559814,-0.04514159262180,0.56217056512833,9.81650447845459,1.31540644168854,0.04993495717645,-0.33959352970123
602,1957281378,3.22636485099792,0.38240563869476,15.77701663970947,-0.05512696132064,0.55791461467743,9.86105251312256,1.27115750312805,0.16006334125996,-0.28038620948792
603,1957289711,3.22600722312927,0.38217368721962,15.77690887451172,-0.07839544862509,0.58177638053894,9.83814811706543,1.24701631069183,0.04255805164576,-0.34274408221245
604,1957298044,3.22630095481873,0.38237324357033,15.77639675140381,-0.09184965491295,0.53619140386581,9.88664531707764,1.32572889328003,0.09370967745781,-0.39878803491592
605,1957306377,3.22538113594055,0.38288605213165,15.77702522277832,-0.08092726767063,0.55519652366638,9.87465667724609,1.17898476123810,0.13715142011642,-0.25952339172363
606,1957314710,3.22483468055725,0.38206669688225,15.77855205535889,-0.07903197407722,0.53900957107544,9.87986278533936,1.22419381141663,-0.01974857412279,-0.24610155820847
607,1957323043,3.22522330284119,0.38189071416855,15.77967739105225,-0.08951774239540,0.56179153919220,9.82717037200928,1.33488583564758,0.05822115391493,-0.19455292820930
608,1957331376,3.22476100921631,0.38200384378433,15.77993011474609,-0.07353122532368,0.56349378824234,9.86603069305420,1.23536157608032,0.08927840739489,-0.28326779603958
609,1957339709,3.22388148307800,0.38295525312424,15.78018951416016,-0.07187891751528,0.53390967845917,9.83239841461182,1.18356978893280,0.18732970952988,-0.30486065149307
610,1957348042,3.22349834442139,0.38239210844040,15.77961158752441,-0.05249502509832,0.55085468292236,9.82409954071045,1.24430108070374,0.00382932787761,-0.36215966939926
611,1957356375,3.22327756881714,0.38260355591774,15.78040790557861,-0.05692947655916,0.55925220251083,9.86490058898926,1.26217985153198,0.10354554653168,-0.23611201345921
612,1957364708,3.22450065612793,0.38176691532135,15.78133010864258,-0.03399746119976,0.56754946708679,9.85788345336914,1.43633103370667,-0.02197701483965,-0.21828451752663
613,1957373041,3.22418427467346,0.38169127702713,15.78211498260498,-0.04249503836036,0.56976687908173,9.85034465789795,1.25029468536377,0.06773683428764,-0.23454955220222
614,1957381374,3.22332477569580,0.38089084625244,15.78182506561279,-0.03851835057139,0.57679802179337,9.85424900054932,1.18704068660736,-0.02368036098778,-0.35799738764763
615,1957389707,3.22317099571228,0.38114914298058,15.78172969818115,-0.05381799116731,0.53043335676193,9.83317756652832,1.27133679389954,0.10207273066044,-0.34316667914391
616,1957398040,3.22343683242798,0.38090917468071,15.78261089324951,-0.06270182132721,0.51844519376755,9.82742691040039,1.32090067863464,0.05053688958287,-0.21883523464203
617,1957406373,3.22323966026306,0.38040655851364,15.78232383728027,-0.06750138103962,0.56120491027832,9.84214019775391,1.26699531078339,0.00966937374324,-0.36082768440247
618,1957414706,3.22287607192993,0.38078576326370,15.78279685974121,-0.05983353033662,0.54466754198074,9.84231185913086,1.24532580375671,0.12168043851852,-0.27491760253906
619,1957423039,3.22250437736511,0.38045784831047,15.78250503540039,-0.07946093380451,0.57880091667175,9.84887123107910,1.24495422840118,0.03107006661594,-0.36402949690819
620,1957431372,3.22199225425720,0.38046300411224,15.78195858001709,-0.09152062237263,0.54833692312241,9.82798480987549,1.22909903526306,0.07002931833267,-0.38372680544853
621,1957439705,3.22195148468018,0.38014724850655,15.78117942810059,-0.07992605119944,0.56744211912155,9.83918476104736,1.28620600700378,0.02934110537171,-0.42155906558037
622,1957448038,3.22153902053833,0.38025239109993,15.78055095672607,-0.08883115649223,0.52611303329468,9.85199642181396,1.24038207530975,0.08008290082216,-0.43126684427261
623,1957456371,3.22130370140076,0.38044124841690,15.78130245208740,-0.07157135009766,0.54797929525375,9.85130310058594,1.26023304462433,0.09873006492853,-0.23977483808994
624,1957464704,3.22128105163574,0.38075533509254,15.78118610382080,-0.07061987370253,0.55506068468094,9.87578868865967,1.28835761547089,0.11222875863314,-0.31523436307907
625,1957473037,3.22126460075378,0.38140293955803,15.78097152709961,-0.05927560850978,0.55018240213394,9.86187458038330,1.28717935085297,0.14783255755901,-0.36067405343056
626,1957481370,3.22131991386414,0.38109117746353,15.78094005584717,-0.05421139672399,0.55298626422882,9.84168243408203,1.29691267013550,0.03694853559136,-0.31782144308090
627,1957489703,3.22140598297119,0.38089802861214,15.78087902069092,-0.03259550407529,0.52027636766434,9.84231185913086,1.29949998855591,0.04816756770015,-0.33705773949623
628,1957498036,3.22111701965332,0.38123437762260,15.78018951416016,-0.02919808402658,0.55680584907532,9.83745574951172,1.25610911846161,0.10838662087917,-0.41451510787010
629,1957506369,3.22091770172119,0.38119679689407,15.78032398223877,-0.04760932177305,0.55034691095352,9.80477333068848,1.26556098461151,0.06847965717316,-0.31239122152328
630,1957514702,3.22103977203369,0.38079875707626,15.78037834167480,-0.05192949995399,0.58528143167496,9.85253429412842,1.30523717403412,0.02570388093591,-0.31710422039032
631,1957523035,3.22144818305969,0.38085529208183,15.78015136718750,-0.06087784469128,0.56690573692322,9.86047267913818,1.33856141567230,0.07793129980564,-0.35824066400528
632,1957531368,3.22074723243713,0.38097956776619,15.77996063232422,-0.05784504115582,0.55883014202118,9.83168983459473,1.20631515979767,0.08938086032867,-0.29002997279167
633,1957539701,3.22097992897034,0.38208493590355,15.77983379364014,-0.08621321618557,0.54850143194199,9.88047981262207,1.31717360019684,0.20477297902107,-0.35332274436951
634,1957548034,3.22109198570251,0.38244459033012,15.78034782409668,-0.09222160279751,0.54362320899963,9.83298492431641,1.30202281475067,0.11979778110981,-0.26135483384132
635,1957556367,3.22124552726746,0.38155269622803,15.78069496154785,-0.10760021954775,0.54215687513351,9.85024452209473,1.30800366401672,-0.03355464711785,-0.28185904026031
636,1957564700,3.22129702568054,0.38144525885582,15.78284454345703,-0.09860193729401,0.56257826089859,9.83834171295166,1.29560637474060,0.06522665172815,-0.24592229723930
637,1957573033,3.22103023529053,0.38161492347717,15.78232002258301,-0.07091346383095,0.59021681547165,9.83794212341309,1.25859379768372,0.08920156955719,-0.39294794201851
638,1957581366,3.22106409072876,0.38091918826103,15.78168487548828,-0.05828835070133,0.52744352817535,9.85291385650635,1.29437685012817,-0.01306325942278,-0.37460815906525
639,1957589699,3.22063088417053,0.38102996349335,15.78255939483643,-0.07014077901840,0.54626262187958,9.83410739898682,1.23687291145325,0.09071280807257,-0.22660914063454
640,1957598032,3.22068738937378,0.38052538037300,15.78353595733643,-0.02765277959406,0.53556203842163,9.84054660797119,1.29599058628082,0.01694381609559,-0.24958509206772
641,1957606365,3.22071456909180,0.38036534190178,15.78339290618896,-0.04318156093359,0.56430214643478,9.84591865539551,1.29389023780823,0.05200970172882,-0.34545919299126
642,1957614698,3.22032785415649,0.38084551692009,15.78317737579346,-0.03207334876060,0.58249890804291,9.84133911132812,1.24396800994873,0.12895487248898,-0.36779475212097
643,1957623031,3.22096633911133,0.38106149435043,15.78312969207764,-0.03173001110554,0.53755044937134,9.84443664550781,1.36532831192017,0.09765426814556,-0.33713454008102
644,1957631364,3.22087788581848,0.38096442818642,15.78262424468994,-0.04745911434293,0.54807943105698,9.83292007446289,1.28039157390594,0.05877185612917,-0.37522289156914
645,1957639697,3.22117924690247,0.38074576854706,15.78299999237061,-0.05866046622396,0.54312252998352,9.87165260314941,1.32483220100403,0.04803949967027,-0.28249937295914
646,1957648030,3.22142767906189,0.38037323951721,15.78466987609863,-0.06707220524549,0.57420879602432,9.88600158691406,1.31885123252869,0.03445114567876,-0.22321523725986
647,1957656363,3.22176861763000,0.38082325458527,15.78418827056885,-0.08256526291370,0.57220596075058,9.81086826324463,1.33151745796204,0.12273060530424,-0.39077076315880
648,1957664696,3.22178101539612,0.38046061992645,15.78351879119873,-0.08046232908964,0.55438822507858,9.85305500030518,1.29191792011261,0.02593441121280,-0.39095005393028
649,1957673029,3.22131752967834,0.37981790304184,15.78287315368652,-0.09954611212015,0.57843607664108,9.83706188201904,1.23459327220917,-0.00883691105992,-0.40229716897011
650,1957681362,3.22151780128479,0.38036710023880,15.78390312194824,-0.07783723622561,0.52712875604630,9.86155319213867,1.31261408329010,0.14322198927402,-0.24054329097271
651,1957689695,3.22203993797302,0.38010698556900,15.78430080413818,-0.08152095228434,0.55628377199173,9.83636760711670,1.35235464572906,0.04415893927217,-0.27995076775551
652,1957698028,3.22170710563660,0.38049578666687,15.78605842590332,-0.07205058634281,0.55493903160095,9.84515190124512,1.24973130226135,0.12859626114368,-0.15742509067059
653,1957706361,3.22147011756897,0.38156118988991,15.78657531738281,-0.05690801888704,0.59181904792786,9.86447811126709,1.25979769229889,0.20308245718479,-0.27371370792389
654,1957714694,3.22130584716797,0.38162159919739,15.78562641143799,-0.04228760674596,0.55857264995575,9.86446380615234,1.27155458927155,0.07813622802496,-0.39025846123695
655,1957723027,3.22096014022827,0.38195002079010,15.78503990173340,-0.03971990570426,0.56162691116333,9.82874393463135,1.24814331531525,0.10623504966497,-0.40186175704002
656,1957731360,3.22084927558899,0.38192138075829,15.78541946411133,-0.02909048832953,0.56704169511795,9.85151863098145,1.27736914157867,0.07298776507378,-0.28890293836594
657,1957739693,3.22112679481506,0.38125982880592,15.78588771820068,-0.03138667345047,0.55687743425369,9.83164024353027,1.32280874252319,-0.00371406390332,-0.27058878540993
658,1957748026,3.22294449806213,0.36226597428322,15.77000904083252,-0.07644243538380,0.55828654766083,9.84879970550537,1.30005061626434,0.06972195208073,-0.39211556315422
659,1957756359,3.22301483154297,0.36272373795509,15.77013492584229,-0.06743700057268,0.56051820516586,9.87934207916260,1.29812943935394,0.12735398113728,-0.31696334481239
660,1957764692,3.22323179244995,0.36249771714211,15.77043533325195,-0.05624293535948,0.55738520622253,9.82862758636475,1.31607210636139,0.04816756770015,-0.29084962606430
661,1957773025,3.22308039665222,0.36271873116493,15.77041530609131,-0.06443280726671,0.52637058496475,9.85871315002441,1.27046608924866,0.10109938681126,-0.33294665813446
662,1957781358,3.22329735755920,0.36281004548073,15.77051448822021,-0.08376707136631,0.54614096879959,9.83826923370361,1.31734013557434,0.08652488142252,-0.28525292873383
663,1957789691,3.22385334968567,0.36358138918877,15.77090740203857,-0.07151399552822,0.56425923109055,9.86882877349854,1.35446798801422,0.16814464330673,-0.28780153393745
664,1957798024,3.22321152687073,0.36248636245728,15.77156925201416,-0.06647160649300,0.55132675170898,9.88734531402588,1.21297490596771,-0.05430218204856,-0.28173097968102
665,1957806357,3.22248077392578,0.36265355348587,15.77102279663086,-0.06861690431833,0.57471668720245,9.86738395690918,1.20288288593292,0.08927840739489,-0.39471533894539
666,1957814690,3.22174429893494,0.36246716976166,15.77064895629883,-0.08803688734770,0.54888778924942,9.83084011077881,1.20175576210022,0.05052407458425,-0.36700072884560
667,1957823023,3.22149062156677,0.36317303776741,15.76987075805664,-0.05800955742598,0.56385862827301,9.85143852233887,1.25860667228699,0.15273767709732,-0.42725822329521
668,1957831356,3.22198700904846,0.36319735646248,15.76870250701904,-0.06418246030807,0.54317259788513,9.85703277587891,1.34994697570801,0.07348723709583,-0.38158807158470
669,1957839689,3.22197842597961,0.36266088485718,15.76941967010498,-0.05331003293395,0.56592583656311,9.83047485351562,1.28783249855042,0.01475379709154,-0.23825079202652
670,1957848022,3.22191500663757,0.36221888661385,15.76962661743164,-0.06863152980804,0.53153491020203,9.84037303924561,1.28206932544708,0.01982541568577,-0.33266487717628
671,1957856355,3.22218179702759,0.36143898963928,15.76892471313477,-0.05280943959951,0.57285690307617,9.86844158172607,1.32297515869141,-0.02357790246606,-0.40753528475761
672,1957864688,3.22176384925842,0.36172619462013,15.76766586303711,-0.04961944743991,0.55482453107834,9.84601020812988,1.24040770530701,0.10321255773306,-0.40813717246056
673,1957873021,3.22172117233276,0.36049002408981,15.76774120330811,-0.06353883445263,0.54926675558090,9.85799694061279,1.28466916084290,-0.07433251291513,-0.31093117594719
674,1957881354,3.22175192832947,0.36053186655045,15.76764583587646,-0.06669310480356,0.54498940706253,9.85162448883057,1.29383909702301,0.07849483191967,-0.33334368467331
675,1957889687,3.22182488441467,0.35907196998596,15.76797676086426,-0.06480462849140,0.55957412719727,9.86373615264893,1.29698956012726,-0.09864040464163,-0.27986112236977
676,1957898020,3.22111988067627,0.35898706316948,15.76892280578613,-0.06401079148054,0.58626848459244,9.87114524841309,1.20652008056641,0.06338242441416,-0.33139693737030
677,1957906353,3.22095847129822,0.35882756114006,15.76806354522705,-0.07471840828657,0.55203503370285,9.83778572082520,1.26960790157318,0.04885914921761,-0.43167668581009
678,1957914686,3.22161316871643,0.35913214087486,15.76748466491699,-0.07883147895336,0.54473191499710,9.84811305999756,1.36978507041931,0.10672170668840,-0.38144716620445
679,1957923019,3.22173285484314,0.35982203483582,15.76785087585449,-0.07624203711748,0.54782199859619,9.85295677185059,1.30282962322235,0.15869298577309,-0.28985068202019
680,1957931352,3.22133827209473,0.35985365509987,15.76538276672363,-0.05677949637175,0.55553978681564,9.82892036437988,1.24153470993042,0.08190152049065,-0.27171579003334
681,1957939685,3.22138690948486,0.35920155048370,15.76564407348633,-0.05304548516870,0.56399452686310,9.85830593109131,1.29533743858337,-0.00372687075287,-0.29157963395119
682,1957948018,3.22144007682800,0.35838398337364,15.76558589935303,-0.06628539413214,0.56766390800476,9.83540916442871,1.29760444164276,-0.02438475191593,-0.35176029801369
683,1957956351,3.22154641151428,0.35835441946983,15.76422500610352,-0.06735094636679,0.58033883571625,9.84560298919678,1.30199718475342,0.06068012118340,-0.49234399199486
684,1957964684,3.22136473655701,0.35746300220490,15.76397800445557,-0.06167167052627,0.54638427495956,9.87754821777344,1.26918530464172,-0.03360587358475,-0.32268810272217
685,1957973017,3.22125673294067,0.35734418034554,15.76440811157227,-0.05420424416661,0.55051857233047,9.80975246429443,1.27532005310059,0.06266522407532,-0.27732533216476
686,1957981350,3.22149634361267,0.35738143324852,15.76477336883545,-0.03973404318094,0.54813665151596,9.83087444305420,1.31863355636597,0.08046711236238,-0.27914389967918
687,1957989683,3.22111892700195,0.35733488202095,15.76440429687500,-0.07484019547701,0.57769221067429,9.82439422607422,1.24468529224396,0.06627682596445,-0.37376293540001
688,1957998016,3.22081351280212,0.35709732770920,15.76366710662842,-0.06006941199303,0.55381608009338,9.84010887145996,1.25329172611237,0.04173839092255,-0.38370123505592
689,1958006349,3.22092294692993,0.35770440101624,15.76312065124512,-0.06734419614077,0.54632693529129,9.85228919982910,1.30285513401031,0.14268408715725,-0.39817327260971
690,1958014682,3.22042703628540,0.35767471790314,15.76315498352051,-0.04882530495524,0.53995382785797,9.86184597015381,1.23053336143494,0.06636647880077,-0.40169525146484
691,1958023015,3.22101664543152,0.35733446478844,15.76317501068115,-0.05773059651256,0.54971742630005,9.88040065765381,1.36102509498596,0.03274779766798,-0.32340532541275
692,1958031348,3.22194480895996,0.35720902681351,15.76413822174072,-0.08465389907360,0.57352924346924,9.84695434570312,1.40075278282166,0.06520103663206,-0.21941153705120
693,1958039681,3.22263884544373,0.35738641023636,15.76409053802490,-0.05677211284637,0.56334358453751,9.86849880218506,1.37137329578400,0.09519530087709,-0.33539277315140
694,1958048014,3.22286033630371,0.35805767774582,15.76390075683594,-0.05239472538233,0.54571890830994,9.85951995849609,1.31705832481384,0.15378788113594,-0.33993932604790
695,1958056347,3.22298669815063,0.35819944739342,15.76309680938721,-0.07898169010878,0.54845136404037,9.83945751190186,1.30501949787140,0.08468065410852,-0.42587506771088
696,1958064680,3.22300004959106,0.35714894533157,15.76238632202148,-0.07415352016687,0.54246443510056,9.87294006347656,1.29263520240784,-0.05266287177801,-0.32209905982018
697,1958073013,3.22359180450439,0.35680890083313,15.76313400268555,-0.06621398031712,0.55339395999908,9.85070133209229,1.35871982574463,0.03879275545478,-0.23682920634747
698,1958081346,3.22425103187561,0.35662621259689,15.76371479034424,-0.06994049996138,0.55784308910370,9.86291217803955,1.36988759040833,0.05280374363065,-0.29592126607895
699,1958089679,3.22416377067566,0.35674777626991,15.76286983489990,-0.05746594071388,0.54864454269409,9.83936500549316,1.27949500083923,0.08241380006075,-0.43098509311676
