sep=,
DeviceTag:,Xsens DOT
FirmwareVersion:,3.0.0
AppVersion:,2023.6.0
StartTime: ,2025-03-06_12:39:29_000 PST
© Movella Technologies B. V. 2005-2025

PacketCounter,SampleTimeFine,Euler_X,Euler_Y,Euler_Z,Acc_X,Acc_Y,Acc_Z,Gyr_X,Gyr_Y,Gyr_Z
0,1793171276,3.09341502189636,0.34721544384956,16.03116989135742,0.00000000000000,0.00000000000000,0.00000000000000,0.00000000000000,0.00000000000000,0.00000000000000
1,1793179609,3.09319186210632,0.34726935625076,16.03102874755859,-0.06775172799826,0.54242867231369,9.86274719238281,1.25852990150452,0.08145327121019,-0.34390953183174
2,1793187942,3.09284925460815,0.34815183281898,16.03189468383789,-0.06273758411407,0.53502547740936,9.83669662475586,1.24234163761139,0.18024736642838,-0.34980076551437
3,1793196275,3.09269881248474,0.34799656271935,16.03133010864258,-0.05893925577402,0.52944636344910,9.86496639251709,1.26744353771210,0.05389234796166,-0.39257654547691
4,1793204608,3.09258866310120,0.34798470139503,16.03053665161133,-0.06453321129084,0.52139925956726,9.85021495819092,1.26982593536377,0.07530585676432,-0.30003237724304
5,1793212941,3.09292268753052,0.34770542383194,16.03129959106445,-0.05804532021284,0.54882335662842,9.84892845153809,1.32451200485229,0.04646421968937,-0.23420374095440
6,1793221274,3.09285473823547,0.34736931324005,16.03265762329102,-0.09890951216221,0.52625614404678,9.86776161193848,1.27569139003754,0.03509150072932,-0.35318186879158
7,1793229607,3.09267663955688,0.34667292237282,16.03311157226562,-0.04903274029493,0.54001820087433,9.83884239196777,1.26355016231537,-0.00470021180809,-0.26739981770515
8,1793237940,3.09297347068787,0.34711152315140,16.03213500976562,-0.05877491086721,0.53380239009857,9.84870624542236,1.31920993328094,0.12584273517132,-0.36568161845207
9,1793246273,3.09356856346130,0.34689980745316,16.03221321105957,-0.04906149953604,0.55294328927994,9.86072921752930,1.35645306110382,0.05012705922127,-0.31686091423035
10,1793254606,3.09414196014404,0.34621426463127,16.03096961975098,-0.06522691994905,0.53320860862732,9.84600830078125,1.35204732418060,-0.00536618195474,-0.30179971456528
11,1793262939,3.09387707710266,0.34591770172119,16.03172874450684,-0.07879571616650,0.51122081279755,9.85314846038818,1.25274085998535,0.04587509110570,-0.23469042778015
12,1793271272,3.09371876716614,0.34552291035652,16.02731323242188,-0.04539909586310,0.54576194286346,9.85619544982910,1.26454925537109,0.02220754139125,-0.40669000148773
13,1793279605,3.09438467025757,0.34496188163757,16.02755546569824,-0.06479773670435,0.52344501018524,9.85786819458008,1.36490559577942,0.00960533786565,-0.29252734780312
14,1793287938,3.09452128410339,0.34445598721504,16.02788734436035,-0.04878973960876,0.54700642824173,9.82958602905273,1.30076754093170,0.01009200792760,-0.44459906220436
15,1793296271,3.09365940093994,0.34492263197899,16.02727890014648,-0.09323763102293,0.52485400438309,9.84859752655029,1.18217372894287,0.12732836604118,-0.40284785628319
16,1793304604,3.09405755996704,0.34489697217941,16.02850151062012,-0.07892456650734,0.54991763830185,9.86529254913330,1.33017289638519,0.07768797874451,-0.21676045656204
17,1793312937,3.09455561637878,0.34518706798553,16.02831649780273,-0.07766573131084,0.51252973079681,9.87499904632568,1.34497797489166,0.10968016088009,-0.34939101338387
18,1793321270,3.09473752975464,0.34575757384300,16.02591896057129,-0.06982619315386,0.56060397624969,9.85118770599365,1.30486595630646,0.14489971101284,-0.30940714478493
19,1793329603,3.09452557563782,0.34588104486465,16.02532386779785,-0.06689338386059,0.54792207479477,9.83543777465820,1.25998973846436,0.08593574911356,-0.39780184626579
20,1793337936,3.09408926963806,0.34544709324837,16.02719688415527,-0.07027685642242,0.52939611673355,9.85788917541504,1.23025166988373,0.02999426983297,-0.20595122873783
21,1793346269,3.09497141838074,0.34553435444832,16.02669715881348,-0.04900430887938,0.54295080900192,9.85006427764893,1.39116036891937,0.08209361881018,-0.38706952333450
22,1793354602,3.09495615959167,0.34627130627632,16.02994155883789,-0.05419720336795,0.53524714708328,9.84466361999512,1.28142893314362,0.16849043965340,-0.26084256172180
23,1793362935,3.09529709815979,0.34595984220505,16.02875709533691,-0.05893942713737,0.56184148788452,9.84525203704834,1.32686853408813,0.03007111139596,-0.46631991863251
24,1793371268,3.09501099586487,0.34602311253548,16.02651596069336,-0.04764508828521,0.51296615600586,9.86022281646729,1.24984657764435,0.07978834211826,-0.39646995067596
25,1793379601,3.09491658210754,0.34530895948410,16.02643203735352,-0.05364632233977,0.56090450286865,9.85713291168213,1.27379584312439,-0.01120622735471,-0.33212697505951
26,1793387934,3.09589767456055,0.34507736563683,16.02603530883789,-0.04908280819654,0.51974701881409,9.86432075500488,1.40099608898163,0.05010144412518,-0.28947925567627
27,1793396267,3.09607195854187,0.34587720036507,16.02645492553711,-0.04079266265035,0.53659194707870,9.84801292419434,1.30550622940063,0.17384380102158,-0.28217920660973
28,1793404600,3.09546589851379,0.34558555483818,16.02346611022949,-0.06413239240646,0.53328019380569,9.84011554718018,1.21040070056915,0.04267331585288,-0.28199991583824
29,1793412933,3.09622693061829,0.34537497162819,16.02346420288086,-0.06858146190643,0.55882298946381,9.84610271453857,1.37638092041016,0.04966600239277,-0.32523673772812
30,1793421266,3.09577870368958,0.34534665942192,16.02353096008301,-0.05026302859187,0.54959583282471,9.83247661590576,1.22968828678131,0.07010615617037,-0.38535335659981
31,1793429599,3.09562921524048,0.34524929523468,16.02404785156250,-0.07049819082022,0.54423844814301,9.85578155517578,1.26667511463165,0.06600788235664,-0.26604226231575
32,1793437932,3.09578895568848,0.34439861774445,16.02429771423340,-0.05346750095487,0.55194914340973,9.85257625579834,1.30314970016479,-0.02780425176024,-0.35197797417641
33,1793446265,3.09517621994019,0.34439024329185,16.02542304992676,-0.08382400870323,0.51460421085358,9.85199832916260,1.21070814132690,0.08275959640741,-0.19112062454224
34,1793454598,3.09428286552429,0.34401634335518,16.02598762512207,-0.08194296807051,0.55697041749954,9.87557220458984,1.17605197429657,0.03037848137319,-0.34662464261055
35,1793462931,3.09419107437134,0.34464362263680,16.02623367309570,-0.06389634311199,0.52870953083038,9.86246871948242,1.27387261390686,0.15086781978607,-0.30016040802002
36,1793471264,3.09454250335693,0.34421470761299,16.02723312377930,-0.04055662080646,0.56327921152115,9.85073089599609,1.32528054714203,0.02809881418943,-0.26850116252899
37,1793479597,3.09493303298950,0.34457257390022,16.02688217163086,-0.06744398176670,0.53005433082581,9.87867069244385,1.33224761486053,0.11539214104414,-0.37003606557846
38,1793487930,3.09484505653381,0.34503638744354,16.03105735778809,-0.03954091668129,0.55330818891525,9.83139705657959,1.27202856540680,0.13993056118488,-0.18891778588295
39,1793496263,3.09497475624084,0.34448930621147,16.03049087524414,-0.05088532343507,0.53366643190384,9.84460067749023,1.30102384090424,0.00686461431906,-0.39022007584572
40,1793504596,3.09414243698120,0.34471574425697,16.03082656860352,-0.04341775551438,0.54708516597748,9.85931396484375,1.18340301513672,0.10660643875599,-0.25943377614021
41,1793512929,3.09433293342590,0.34450736641884,16.03062057495117,-0.05960464105010,0.54428130388260,9.84209060668945,1.30811882019043,0.04923055320978,-0.35044112801552
42,1793521262,3.09498715400696,0.34443286061287,16.03061294555664,-0.06903924047947,0.52813017368317,9.84470844268799,1.36144793033600,0.07133565098047,-0.23904486000538
43,1793529595,3.09504294395447,0.34495243430138,16.03062438964844,-0.05311686918139,0.55186337232590,9.85907936096191,1.29159772396088,0.13742038607597,-0.32956555485725
44,1793537928,3.09433221817017,0.34483432769775,16.03062248229980,-0.10032577812672,0.50759434700012,9.83364963531494,1.19802904129028,0.06203768029809,-0.30789589881897
45,1793546261,3.09407138824463,0.34431636333466,16.03029632568359,-0.07463991641998,0.56694865226746,9.85019397735596,1.25407302379608,0.01219237688929,-0.36250546574593
46,1793554594,3.09454083442688,0.34436100721359,16.03220939636230,-0.06273043155670,0.52433913946152,9.86084461212158,1.33939397335052,0.08296450972557,-0.28379288315773
47,1793562927,3.09506869316101,0.34442597627640,16.03076553344727,-0.06707935780287,0.54159182310104,9.85043716430664,1.34946048259735,0.07410198450089,-0.50061738491058
48,1793571260,3.09560346603394,0.34469783306122,16.03215980529785,-0.06682901084423,0.54741424322128,9.84912109375000,1.34805142879486,0.10665766894817,-0.37592729926109
49,1793579593,3.09518980979919,0.34503307938576,16.03314399719238,-0.05129303783178,0.52782261371613,9.84315586090088,1.23470854759216,0.12105286121368,-0.21130461990833
50,1793587926,3.09521365165710,0.34536731243134,16.03192520141602,-0.04585672169924,0.53836596012115,9.86485195159912,1.28634679317474,0.11467492580414,-0.34951904416084
51,1793596259,3.09550452232361,0.34565910696983,16.03239440917969,-0.04767369851470,0.52163535356522,9.87650203704834,1.31954288482666,0.11290753632784,-0.27270194888115
52,1793604592,3.09525036811829,0.34530732035637,16.03322029113770,-0.05032740160823,0.55318659543991,9.86845588684082,1.25307393074036,0.03337534517050,-0.33922210335732
53,1793612925,3.09632110595703,0.34536641836166,16.03289222717285,-0.04489124193788,0.52917444705963,9.85088062286377,1.41386735439301,0.08046710491180,-0.36589929461479
54,1793621258,3.09624743461609,0.34577912092209,16.03126335144043,-0.05414701998234,0.54648435115814,9.85540866851807,1.27510225772858,0.11890126764774,-0.45269316434860
55,1793629591,3.09636831283569,0.34534355998039,16.03144073486328,-0.04073544219136,0.53647035360336,9.86042308807373,1.29935884475708,0.02430790849030,-0.30274745821953
56,1793637924,3.09542775154114,0.34585487842560,16.03192329406738,-0.05381083860993,0.54924535751343,9.87174606323242,1.17005813121796,0.14305549860001,-0.21174006164074
57,1793646257,3.09549975395203,0.34583097696304,16.03231239318848,-0.07301621884108,0.54479628801346,9.83206939697266,1.29331409931183,0.07374338805676,-0.27872133255005
58,1793654590,3.09498167037964,0.34562849998474,16.03252792358398,-0.08177845180035,0.54435282945633,9.85220432281494,1.22103059291840,0.05583903566003,-0.26924404501915
59,1793662923,3.09484314918518,0.34638366103172,16.03277587890625,-0.08101322501898,0.54998916387558,9.86203098297119,1.26816070079803,0.16774760186672,-0.30185091495514
60,1793671256,3.09427261352539,0.34689033031464,16.03174781799316,-0.06320252269506,0.52240073680878,9.84545230865479,1.21513915061951,0.13419295847416,-0.35656294226646
61,1793679589,3.09418869018555,0.34701740741730,16.03135871887207,-0.08855935186148,0.54219263792038,9.85638141632080,1.27523028850555,0.08767752349377,-0.37454411387444
62,1793687922,3.09436583518982,0.34633755683899,16.03239250183105,-0.07440387457609,0.53396689891815,9.87284755706787,1.30422568321228,-0.00339388591237,-0.29014524817467
63,1793696255,3.09358334541321,0.34602394700050,16.03276252746582,-0.06137854605913,0.55612641572952,9.86467170715332,1.19088256359100,0.04047048836946,-0.28146201372147
64,1793704588,3.09365797042847,0.34556472301483,16.03240776062012,-0.06487613916397,0.53871643543243,9.83548259735107,1.29249417781830,0.02054261602461,-0.33245995640755
65,1793712921,3.09362220764160,0.34596517682076,16.03170967102051,-0.04036349430680,0.55132681131363,9.81989479064941,1.28132629394531,0.11833776533604,-0.41171038150787
66,1793721254,3.09313988685608,0.34559926390648,16.03380012512207,-0.04396137222648,0.52384561300278,9.81872177124023,1.22589731216431,0.02920022979379,-0.37018978595734
67,1793729587,3.09315252304077,0.34530535340309,16.03443336486816,-0.03165859356523,0.53720706701279,9.81839847564697,1.28603959083557,0.04385157302022,-0.24972599744797
68,1793737920,3.09336376190186,0.34571015834808,16.03362655639648,-0.04566387832165,0.53292250633240,9.85474205017090,1.30804204940796,0.12566344439983,-0.29936635494232
69,1793746253,3.09261584281921,0.34584572911263,16.03448677062988,-0.04852488636971,0.52423900365829,9.86408519744873,1.19464790821075,0.09656565636396,-0.22413735091686
70,1793754586,3.10046911239624,0.34977483749390,16.03358840942383,-0.04855332896113,0.56315052509308,9.85343551635742,1.31060361862183,0.07425566762686,-0.37777155637741
71,1793762919,3.10026431083679,0.34928151965141,16.03355216979980,-0.06622817367315,0.52730041742325,9.84565258026123,1.26042520999908,0.01554783992469,-0.32902762293816
72,1793771252,3.10014033317566,0.34905549883842,16.03222274780273,-0.07489006966352,0.56465262174606,9.85161209106445,1.26898038387299,0.04152067378163,-0.45228329300880
73,1793779585,3.10015010833740,0.34919324517250,16.03334426879883,-0.07673553377390,0.51431095600128,9.86337852478027,1.28468191623688,0.09876849502325,-0.19411748647690
74,1793787918,3.10026264190674,0.34948673844337,16.03375816345215,-0.07810904830694,0.54998922348022,9.87444210052490,1.29710483551025,0.10832259058952,-0.40277105569839
75,1793796251,3.09988927841187,0.35028296709061,16.03375053405762,-0.08745066076517,0.51483303308487,9.84434318542480,1.23972892761230,0.17030903697014,-0.33266484737396
76,1793804584,3.09926342964172,0.35064354538918,16.03388214111328,-0.07590597122908,0.55347269773483,9.85002231597900,1.20803129673004,0.11899092793465,-0.32796466350555
77,1793812917,3.09929347038269,0.35109844803810,16.03321838378906,-0.08117046207190,0.52848064899445,9.84566688537598,1.28837037086487,0.12404975295067,-0.40786826610565
78,1793821250,3.09881854057312,0.35159102082253,16.03331184387207,-0.05650030821562,0.54614102840424,9.86798381805420,1.22615349292755,0.13296350836754,-0.39137274026871
79,1793829583,3.09933710098267,0.35143283009529,16.03289604187012,-0.06152160093188,0.54318690299988,9.85423564910889,1.34692466259003,0.05212497338653,-0.37515887618065
80,1793837916,3.09939527511597,0.35069659352303,16.03191566467285,-0.05185811221600,0.54262894392014,9.87392044067383,1.28959977626801,-0.00841427594423,-0.25712847709656
81,1793846249,3.09991121292114,0.35093355178833,16.03163719177246,-0.01944142766297,0.54282212257385,9.85981464385986,1.34638655185699,0.10056149214506,-0.36291527748108
82,1793854582,3.09960722923279,0.35117867588997,16.03225898742676,-0.04579250141978,0.52885973453522,9.85028743743896,1.24700319766998,0.10412185639143,-0.37587606906891
83,1793862915,3.09947967529297,0.35133302211761,16.03125953674316,-0.03630764037371,0.53559064865112,9.84706974029541,1.26992797851562,0.08542347699404,-0.44700679183006
84,1793871248,3.09941840171814,0.35109287500381,16.02953910827637,-0.05995513126254,0.51450401544571,9.83264827728271,1.27551198005676,0.04958916082978,-0.29178452491760
85,1793879581,3.09982991218567,0.35093262791634,16.03013229370117,-0.07141410559416,0.55592602491379,9.85037899017334,1.33337461948395,0.05980923771858,-0.25559166073799
86,1793887914,3.09992218017578,0.35127940773964,16.02869224548340,-0.08234366774559,0.52073407173157,9.86862564086914,1.29415929317474,0.11713389307261,-0.32613325119019
87,1793896247,3.09968471527100,0.35072058439255,16.02879142761230,-0.07065578550100,0.54163473844528,9.88061523437500,1.25584042072296,0.00781234167516,-0.31122577190399
88,1793904580,3.10023093223572,0.35179725289345,16.02850723266602,-0.08683551102877,0.52984684705734,9.88424873352051,1.34881985187531,0.20345386862755,-0.35315623879433
89,1793912913,3.10057115554810,0.35060474276543,16.02855491638184,-0.07780848443508,0.54883056879044,9.84029579162598,1.32522916793823,-0.06691718101501,-0.31327489018440
90,1793921246,3.10022115707397,0.35073482990265,16.02760314941406,-0.07424671202898,0.54142010211945,9.86087417602539,1.24195730686188,0.08365608751774,-0.46803611516953
91,1793929579,3.10070919990540,0.35080260038376,16.02860450744629,-0.07561270147562,0.53183531761169,9.86268997192383,1.34231400489807,0.09005965292454,-0.20718075335026
92,1793937912,3.10137963294983,0.35054403543472,16.02791976928711,-0.04956920072436,0.56267124414444,9.83695411682129,1.36352252960205,0.04267331212759,-0.37269988656044
93,1793946245,3.10065650939941,0.35124528408051,16.02829551696777,-0.04924017190933,0.52003312110901,9.83523082733154,1.19738876819611,0.16078054904938,-0.28653365373611
94,1793954578,3.10016775131226,0.35251185297966,16.02590179443359,-0.03497024998069,0.55133396387100,9.83770561218262,1.22561550140381,0.22117890417576,-0.44534182548523
95,1793962911,3.10117340087891,0.35304185748100,16.02573776245117,-0.03083606995642,0.52891689538956,9.83362007141113,1.40514564514160,0.13724108040333,-0.34939095377922
96,1793971244,3.10063743591309,0.35300472378731,16.02609062194824,-0.04554245248437,0.52549785375595,9.85523605346680,1.21893012523651,0.07031106948853,-0.36650127172470
97,1793979577,3.10077023506165,0.35298761725426,16.02632141113281,-0.05400383099914,0.54679912328720,9.86774158477783,1.29997348785400,0.07353846728802,-0.29992988705635
98,1793987910,3.10160446166992,0.35254630446434,16.02660560607910,-0.06273742020130,0.53898823261261,9.86442279815674,1.38388586044312,0.02243807166815,-0.34001618623734
99,1793996243,3.10184192657471,0.35305398702621,16.02595710754395,-0.07359559834003,0.55134111642838,9.84211158752441,1.31339550018311,0.13227191567421,-0.40758648514748
100,1794004576,3.10226845741272,0.35276743769646,16.02868843078613,-0.05918977409601,0.52728611230850,9.86535167694092,1.33340036869049,0.04674597829580,-0.23504903912544
101,1794012909,3.10233497619629,0.35335808992386,16.02877807617188,-0.06561303138733,0.53986084461212,9.86153125762939,1.29231476783752,0.14630849659443,-0.31883314251900
102,1794021242,3.10271024703979,0.35335761308670,16.02616500854492,-0.05587800964713,0.53386676311493,9.85623836517334,1.32761132717133,0.07776481658220,-0.26883420348167
103,1794029575,3.10232734680176,0.35409790277481,16.02606201171875,-0.07237961888313,0.53438174724579,9.86556625366211,1.23844826221466,0.16293214261532,-0.34465235471725
104,1794037908,3.10221266746521,0.35341435670853,16.02543640136719,-0.06189354881644,0.53608411550522,9.85779762268066,1.27005624771118,-0.01182096917182,-0.40822687745094
105,1794046241,3.10244989395142,0.35317122936249,16.02515220642090,-0.06702197343111,0.53217875957489,9.83835792541504,1.31316483020782,0.04454315081239,-0.36014890670776
106,1794054574,3.10216593742371,0.35341492295265,16.02484893798828,-0.06348131597042,0.53365218639374,9.83811283111572,1.24918055534363,0.10238009691238,-0.37920588254929
107,1794062907,3.10244345664978,0.35323941707611,16.02497673034668,-0.06391766667366,0.53796535730362,9.86994457244873,1.31767320632935,0.05522428825498,-0.30986821651459
108,1794071240,3.10207128524780,0.35349771380424,16.02789115905762,-0.03703006356955,0.55251425504684,9.86380767822266,1.23752605915070,0.11078155040741,-0.24493610858917
109,1794079573,3.10196876525879,0.35321488976479,16.02849006652832,-0.04012029618025,0.54900932312012,9.85180377960205,1.27166986465454,0.04528596624732,-0.25384986400604
110,1794087906,3.10251712799072,0.35311096906662,16.02775382995605,-0.06355301290751,0.54420262575150,9.84007263183594,1.34912741184235,0.05965555459261,-0.39073237776756
111,1794096239,3.10177516937256,0.35337921977043,16.02758979797363,-0.05781643092632,0.52572679519653,9.85888481140137,1.19546759128571,0.10637592524290,-0.34836640954018
112,1794104572,3.10178303718567,0.35379105806351,16.02952384948730,-0.05333159863949,0.53952461481094,9.84945774078369,1.28391349315643,0.12471570819616,-0.33189642429352
113,1794112905,3.10177302360535,0.35426694154739,16.02924728393555,-0.05685079470277,0.53627008199692,9.87272548675537,1.28337574005127,0.12881399691105,-0.36286407709122
114,1794121238,3.10137248039246,0.35324978828430,16.02986907958984,-0.04252365231514,0.55284321308136,9.82639694213867,1.23470866680145,-0.04219945520163,-0.24516665935516
115,1794129571,3.10077476501465,0.35351374745369,16.02976989746094,-0.06421822309494,0.51909613609314,9.84347820281982,1.21280837059021,0.10652961581945,-0.34209093451500
116,1794137904,3.10104632377625,0.35336011648178,16.02983283996582,-0.07225071638823,0.55397343635559,9.87656784057617,1.31541895866394,0.05806746706367,-0.32431462407112
117,1794146237,3.10058736801147,0.35332867503166,16.02918815612793,-0.06370321661234,0.51964688301086,9.82611751556396,1.22989296913147,0.06593103706837,-0.40482014417648
118,1794154570,3.10059285163879,0.35332784056664,16.02828979492188,-0.05180075764656,0.53209292888641,9.81999588012695,1.28355491161346,0.07748305797577,-0.29588282108307
119,1794162903,3.10036277770996,0.35255599021912,16.02853965759277,-0.07332379370928,0.53996813297272,9.82133293151855,1.25658309459686,-0.01684135943651,-0.29129788279533
120,1794171236,3.10044717788696,0.35272285342216,16.02749633789062,-0.06471161544323,0.54476058483124,9.84373664855957,1.29341638088226,0.09431160986423,-0.35079970955849
121,1794179569,3.09993219375610,0.35337111353874,16.02707672119141,-0.06052735820413,0.53408849239349,9.84900665283203,1.22292602062225,0.15002256631851,-0.38010242581367
122,1794187902,3.09974932670593,0.35318094491959,16.02709960937500,-0.06406801193953,0.52664953470230,9.83829879760742,1.26129627227783,0.05151022970676,-0.32720905542374
123,1794196235,3.09956645965576,0.35319322347641,16.02822303771973,-0.04391130432487,0.52773672342300,9.83947944641113,1.26155233383179,0.07504970580339,-0.39787867665291
124,1794204568,3.09998941421509,0.35364151000977,16.02771949768066,-0.05137887224555,0.53797960281372,9.86309814453125,1.33560299873352,0.12443393468857,-0.38873443007469
125,1794212901,3.10016441345215,0.35323601961136,16.02726173400879,-0.03831062838435,0.54123419523239,9.86845588684082,1.30571115016937,0.02330895140767,-0.37948766350746
126,1794221234,3.10013842582703,0.35326567292213,16.02781677246094,-0.05896106362343,0.54605513811111,9.85258960723877,1.28055810928345,0.07481917738914,-0.40968689322472
127,1794229567,3.10027384757996,0.35231935977936,16.02791023254395,-0.05347465351224,0.53240758180618,9.85183238983154,1.30051159858704,-0.03769134730101,-0.30984258651733
128,1794237900,3.10089087486267,0.35197362303734,16.02937507629395,-0.06025544926524,0.52784413099289,9.83791446685791,1.35658097267151,0.04080347344279,-0.21414780616760
129,1794246233,3.10083508491516,0.35203063488007,16.02953910827637,-0.05484800040722,0.54682767391205,9.88108730316162,1.27766370773315,0.08214484900236,-0.30874124169350
130,1794254566,3.10051393508911,0.35216024518013,16.02935409545898,-0.04944045096636,0.54011833667755,9.85915660858154,1.24423706531525,0.09443968534470,-0.27254825830460
131,1794262899,3.10088634490967,0.35236448049545,16.03024482727051,-0.07077033072710,0.55611199140549,9.84319019317627,1.32853353023529,0.10560748726130,-0.22203698754311
132,1794271232,3.10075736045837,0.35164737701416,16.02928924560547,-0.06494066119194,0.54002535343170,9.85872077941895,1.26777648925781,-0.01197465416044,-0.34196281433105
133,1794279565,3.10080289840698,0.35219556093216,16.02901649475098,-0.05551337078214,0.54816520214081,9.84639453887939,1.29011213779449,0.13975125551224,-0.36212125420570
134,1794287898,3.10034537315369,0.35173395276070,16.02803611755371,-0.04615729674697,0.52873098850250,9.86877059936523,1.22822809219360,0.01969734579325,-0.31745001673698
135,1794296231,3.09952974319458,0.35135969519615,16.02881431579590,-0.05851721763611,0.53551197052002,9.86972332000732,1.18588793277740,0.03542448952794,-0.23159112036228
136,1794304564,3.10007166862488,0.35163605213165,16.02715110778809,-0.05831009894609,0.53767913579941,9.82892799377441,1.34730875492096,0.11178051680326,-0.27454614639282
137,1794312897,3.10010480880737,0.35165119171143,16.02714347839355,-0.05589231476188,0.53099131584167,9.87191772460938,1.28852403163910,0.07643287628889,-0.32897642254829
138,1794321230,3.09999370574951,0.35079833865166,16.02760314941406,-0.06235864385962,0.53923130035400,9.83402061462402,1.27008187770844,-0.02836776711047,-0.36780762672424
139,1794329563,3.10046172142029,0.35032042860985,16.02778434753418,-0.05991950258613,0.52956783771515,9.83397769927979,1.34041857719421,0.01869839243591,-0.30115938186646
140,1794337896,3.10113120079041,0.34992024302483,16.02711486816406,-0.07842376828194,0.54257172346115,9.84894275665283,1.36426556110382,0.02110613137484,-0.43962997198105
141,1794346229,3.10144495964050,0.34976026415825,16.02719879150391,-0.06231571361423,0.53112000226974,9.87607955932617,1.32195055484772,0.05548043176532,-0.31627175211906
142,1794354562,3.10179758071899,0.35021322965622,16.02626800537109,-0.06329562515020,0.53243613243103,9.85553646087646,1.32489633560181,0.13511510193348,-0.26089379191399
143,1794362895,3.10126900672913,0.35028651356697,16.02642059326172,-0.04333907365799,0.54795068502426,9.86073780059814,1.22082555294037,0.08363047242165,-0.30761414766312
144,1794371228,3.10114884376526,0.34958520531654,16.02703475952148,-0.04532756656408,0.53639882802963,9.85126018524170,1.26880109310150,-0.00831182021648,-0.32664552330971
145,1794379561,3.10145735740662,0.34848180413246,16.02629089355469,-0.05887486413121,0.52899569272995,9.86119651794434,1.32202756404877,-0.06133328378201,-0.40717667341232
146,1794387894,3.10169363021851,0.34774279594421,16.02544403076172,-0.07099926471710,0.54458165168762,9.84120178222656,1.31121814250946,-0.01369080692530,-0.33097431063652
147,1794396227,3.10127997398376,0.34800621867180,16.02548789978027,-0.05447605252266,0.53721427917480,9.86526584625244,1.23493921756744,0.10696505010128,-0.32257285714149
148,1794404560,3.10047721862793,0.34784150123596,16.02683258056641,-0.04065700247884,0.53143471479416,9.86741733551025,1.18627202510834,0.05717097222805,-0.30236321687698
149,1794412893,3.10033679008484,0.34754726290703,16.02701187133789,-0.05966927483678,0.54723531007767,9.86246013641357,1.26749491691589,0.04113646224141,-0.30325973033905
150,1794421226,3.10103678703308,0.34804937243462,16.02849006652832,-0.05816691741347,0.55136257410049,9.89600849151611,1.36667311191559,0.13765089213848,-0.30420744419098
151,1794429559,3.10068845748901,0.34745055437088,16.02919387817383,-0.06335988640785,0.55609059333801,9.85568809509277,1.24216234683990,0.00806848332286,-0.23776412010193
152,1794437892,3.10010337829590,0.34698626399040,16.03008270263672,-0.05949712172151,0.53484672307968,9.83169078826904,1.21275722980499,0.02228438295424,-0.27411073446274
153,1794446225,3.10021853446960,0.34648248553276,16.03093147277832,-0.08127775788307,0.52873098850250,9.86424922943115,1.29756581783295,0.02028647251427,-0.22288225591183
154,1794454558,3.10146546363831,0.34696298837662,16.03309440612793,-0.05185797438025,0.54094815254211,9.83354377746582,1.43245041370392,0.13590912520885,-0.28719958662987
155,1794462891,3.10174417495728,0.34748002886772,16.03305625915527,-0.06659997254610,0.54433858394623,9.83581161499023,1.31772434711456,0.13603720068932,-0.33476522564888
156,1794471224,3.10135173797607,0.34774914383888,16.03323364257812,-0.05265207588673,0.53445327281952,9.85400676727295,1.23596358299255,0.10980822145939,-0.29595968127251
157,1794479557,3.10096502304077,0.34800574183464,16.03253746032715,-0.06737978011370,0.53782939910889,9.85446453094482,1.23849952220917,0.10168851912022,-0.41186407208443
158,1794487890,3.10131287574768,0.34793815016747,16.02983856201172,-0.03478427603841,0.53885942697525,9.84611034393311,1.32525503635406,0.06506016105413,-0.38297128677368
159,1794496223,3.10139799118042,0.34780082106590,16.02947998046875,-0.06224403902888,0.52736479043961,9.84463691711426,1.29467141628265,0.05591587722301,-0.36988234519958
160,1794504556,3.10129642486572,0.34806755185127,16.03002357482910,-0.04170107468963,0.55535387992859,9.82757663726807,1.27156734466553,0.10611976683140,-0.36268472671509
161,1794512889,3.10201311111450,0.34738931059837,16.03024101257324,-0.06283772736788,0.52034789323807,9.86694622039795,1.37023329734802,-0.00636513717473,-0.29662564396858
162,1794521222,3.10213375091553,0.34703621268272,16.02948188781738,-0.05190805718303,0.55033266544342,9.83183383941650,1.29728400707245,0.03601361438632,-0.27920794487000
163,1794529555,3.10172176361084,0.34696370363235,16.02977180480957,-0.07013362646103,0.54352307319641,9.81605339050293,1.23481106758118,0.06833878159523,-0.29073438048363
164,1794537888,3.10106039047241,0.34728196263313,16.02780342102051,-0.06851708143950,0.54349446296692,9.86563777923584,1.20417630672455,0.11247210204601,-0.37595289945602
165,1794546221,3.10047411918640,0.34664571285248,16.02765464782715,-0.07442533224821,0.54427415132523,9.86369132995605,1.21408927440643,-0.00252300244756,-0.34160429239273
166,1794554554,3.10003924369812,0.34582144021988,16.02913284301758,-0.07775830477476,0.53700691461563,9.85124015808105,1.23099446296692,-0.02150315046310,-0.29711228609085
167,1794562887,3.10001063346863,0.34687995910645,16.02865028381348,-0.06075624749064,0.54236429929733,9.85128879547119,1.28124964237213,0.19807489216328,-0.39062985777855
168,1794571220,3.10011243820190,0.34650900959969,16.02531433105469,-0.05112136900425,0.53034037351608,9.86188220977783,1.29490220546722,0.03183849528432,-0.28766068816185
169,1794579553,3.10014843940735,0.34629830718040,16.02424621582031,-0.05077087879181,0.53579086065292,9.86230373382568,1.28947186470032,0.04415893927217,-0.45456308126450
170,1794587886,3.09990048408508,0.34643238782883,16.02476119995117,-0.06891763955355,0.51773709058762,9.83379268646240,1.25340700149536,0.08985473215580,-0.35200363397598
171,1794596219,3.10003042221069,0.34665590524673,16.02492523193359,-0.05843157321215,0.54102671146393,9.85695362091064,1.29994809627533,0.10376327484846,-0.30720433592796
172,1794604552,3.09957456588745,0.34661069512367,16.02412796020508,-0.02574308216572,0.53118443489075,9.83403587341309,1.22843301296234,0.06877422332764,-0.33666071295738
173,1794612885,3.09979271888733,0.34616044163704,16.02410888671875,-0.04231607541442,0.53838026523590,9.82215690612793,1.31044983863831,0.02059384249151,-0.32646620273590
174,1794621218,3.09960198402405,0.34608361124992,16.02504539489746,-0.04572097212076,0.54613387584686,9.86183929443359,1.26011788845062,0.06792894750834,-0.30425867438316
175,1794629551,3.09919929504395,0.34662184119225,16.02460670471191,-0.07213642448187,0.52686411142349,9.86113834381104,1.23642468452454,0.13744598627090,-0.38284316658974
176,1794637884,3.09935855865479,0.34659799933434,16.02482414245605,-0.07190022617579,0.55486756563187,9.84632587432861,1.30256068706512,0.07212968915701,-0.32759323716164
177,1794646217,3.09942698478699,0.34746301174164,16.02401924133301,-0.07063432782888,0.54048311710358,9.88084411621094,1.29321146011353,0.17374137043953,-0.42882075905800
178,1794654550,3.09918642044067,0.34795209765434,16.02515983581543,-0.04990538582206,0.56184864044189,9.84422206878662,1.25445723533630,0.13260489702225,-0.37528696656227
179,1794662883,3.09993100166321,0.34741911292076,16.02538681030273,-0.06451864540577,0.52349513769150,9.82385063171387,1.37353765964508,0.01157763320953,-0.29508876800537
180,1794671216,3.10004067420959,0.34821465611458,16.02555084228516,-0.08944617211819,0.54748582839966,9.83302116394043,1.29646444320679,0.17243504524231,-0.29736849665642
181,1794679549,3.10028648376465,0.34838983416557,16.02497673034668,-0.08185731619596,0.54798638820648,9.84921360015869,1.31434321403503,0.09277475625277,-0.39541977643967
182,1794687882,3.10057044029236,0.34836938977242,16.02573204040527,-0.05599245429039,0.51629221439362,9.85480117797852,1.31723761558533,0.07535707950592,-0.29129785299301
183,1794696215,3.10063815116882,0.34802645444870,16.02588844299316,-0.05893227458000,0.54245012998581,9.85639572143555,1.29239189624786,0.03491220623255,-0.30528327822685
184,1794704548,3.10072231292725,0.34823119640350,16.02571678161621,-0.05152181163430,0.52863806486130,9.85573196411133,1.29308342933655,0.10327660292387,-0.27093458175659
185,1794712881,3.10070991516113,0.34821137785912,16.02596282958984,-0.05540592223406,0.54807227849960,9.85266876220703,1.28270959854126,0.07438373565674,-0.29736846685410
186,1794721214,3.10033822059631,0.34817796945572,16.02800941467285,-0.02895470894873,0.53584808111191,9.86476421356201,1.23916542530060,0.06721175462008,-0.39439520239830
187,1794729547,3.09998178482056,0.34786716103554,16.02823066711426,-0.04653639718890,0.56091880798340,9.87208175659180,1.24141955375671,0.03888240829110,-0.29767581820488
188,1794737880,3.09972095489502,0.34726536273956,16.03151893615723,-0.07554832845926,0.53459632396698,9.87047290802002,1.25163948535919,0.00614741677418,-0.28527852892876
189,1794746213,3.09978604316711,0.34760656952858,16.03189277648926,-0.06111389026046,0.53531163930893,9.86619567871094,1.29200768470764,0.11910620331764,-0.28456133604050
190,1794754546,3.09961438179016,0.34770873188972,16.03065872192383,-0.07283024489880,0.52555513381958,9.83880710601807,1.26275610923767,0.08639680594206,-0.35874015092850
191,1794762879,3.09954714775085,0.34848931431770,16.03137016296387,-0.06493350863457,0.54760736227036,9.84695434570312,1.27587068080902,0.17325468361378,-0.24601191282272
192,1794771212,3.10052037239075,0.34775930643082,16.03020477294922,-0.08190720528364,0.54091942310333,9.86823368072510,1.40009975433350,-0.01573994755745,-0.37295606732368
193,1794779545,3.10035562515259,0.34764298796654,16.03009223937988,-0.06562003493309,0.54166334867477,9.86386299133301,1.26457476615906,0.06021906435490,-0.33917084336281
194,1794787878,3.09991598129272,0.34673956036568,16.03331375122070,-0.05849594995379,0.54601228237152,9.85286235809326,1.23058462142944,-0.02898250706494,-0.28410029411316
195,1794796211,3.09978938102722,0.34707927703857,16.03409194946289,-0.06860291957855,0.55026108026505,9.86999320983887,1.26859617233276,0.12031006067991,-0.23630410432816
196,1794804544,3.09967517852783,0.34676563739777,16.03236961364746,-0.06274473667145,0.53612703084946,9.83234786987305,1.26918542385101,0.03680765628815,-0.33768528699875
197,1794812877,3.09948968887329,0.34688881039619,16.03269195556641,-0.05369639024138,0.53361636400223,9.84254074096680,1.26193642616272,0.09305651485920,-0.28909504413605
198,1794821210,3.09931993484497,0.34688764810562,16.03246116638184,-0.04347497969866,0.54498940706253,9.84540939331055,1.26209020614624,0.07925043255091,-0.25561723113060
199,1794829543,3.09930849075317,0.34658133983612,16.03167724609375,-0.03791006654501,0.54467469453812,9.85597419738770,1.28360605239868,0.03334973379970,-0.41867747902870
200,1794837876,3.09893083572388,0.34636893868446,16.03188133239746,-0.05964755639434,0.55708485841751,9.83749771118164,1.23742365837097,0.04910248517990,-0.32316198945045
201,1794846209,3.09948992729187,0.34593012928963,16.03091239929199,-0.05024177208543,0.53250765800476,9.87233066558838,1.35212421417236,0.01623942516744,-0.44060322642326
202,1794854542,3.09890222549438,0.34626424312592,16.03067588806152,-0.03738075867295,0.52458947896957,9.85206794738770,1.21298766136169,0.11311245709658,-0.37267434597015
203,1794862875,3.09869551658630,0.34657758474350,16.03114700317383,-0.07462584227324,0.53565490245819,9.86890506744385,1.25934946537018,0.11508475244045,-0.27113947272301
204,1794871208,3.09858131408691,0.34645578265190,16.02798652648926,-0.06461162865162,0.54498225450516,9.87331962585449,1.26912128925323,0.06005256995559,-0.34087422490120
205,1794879541,3.09918165206909,0.34674617648125,16.02697753906250,-0.06194362044334,0.54558306932449,9.85264015197754,1.35711896419525,0.10376325994730,-0.44941455125809
206,1794887874,3.09882354736328,0.34643074870110,16.02288246154785,-0.08855935186148,0.53353768587112,9.82714080810547,1.23988270759583,0.03847257792950,-0.31399208307266
207,1794896207,3.09911727905273,0.34623599052429,16.02308464050293,-0.06813811510801,0.56014621257782,9.85963439941406,1.31944048404694,0.05289339274168,-0.30092886090279
208,1794904540,3.09971404075623,0.34600076079369,16.02503013610840,-0.07530495524406,0.53152066469193,9.85729789733887,1.35512101650238,0.04477368295193,-0.37946206331253
209,1794912873,3.09999918937683,0.34604841470718,16.02508926391602,-0.06295202672482,0.53078395128250,9.85284233093262,1.31854391098022,0.08060799539089,-0.32039567828178
210,1794921206,3.09937000274658,0.34607955813408,16.02416229248047,-0.03703026846051,0.54588353633881,9.87062263488770,1.20806980133057,0.07515216618776,-0.41626968979836
211,1794929539,3.10002517700195,0.34602478146553,16.02355766296387,-0.05209434032440,0.51528358459473,9.86084365844727,1.36334323883057,0.06367699056864,-0.39798116683960
212,1794937872,3.10069060325623,0.34530067443848,16.02204322814941,-0.04706570506096,0.53202128410339,9.85712528228760,1.36352264881134,-0.01369080878794,-0.37362205982208
213,1794946205,3.10141491889954,0.34334254264832,16.02052497863770,-0.04768800362945,0.53162074089050,9.84745502471924,1.37233364582062,-0.17047552764416,-0.49621170759201
214,1794954538,3.10153675079346,0.34301412105560,16.01927947998047,-0.05725869163871,0.54606944322586,9.84559345245361,1.29838562011719,0.03181287646294,-0.40909776091576
215,1794962871,3.10111713409424,0.34332707524300,16.02025032043457,-0.03246658295393,0.55010378360748,9.86371421813965,1.23345339298248,0.11920864135027,-0.21289269626141
216,1794971204,3.10111904144287,0.34298858046532,16.01783370971680,-0.04753063991666,0.55237829685211,9.85846996307373,1.28327322006226,0.03296552225947,-0.34119442105293
217,1794979537,3.10135746002197,0.34343737363815,16.01730918884277,-0.06928958743811,0.54219979047775,9.85536575317383,1.31339538097382,0.12684167921543,-0.39127022027969
218,1794987870,3.10050868988037,0.34358271956444,16.01815223693848,-0.06626421958208,0.54616957902908,9.83699607849121,1.18099558353424,0.09077684581280,-0.35879138112068
219,1794996203,3.10019540786743,0.34352427721024,16.01770782470703,-0.06226549670100,0.53085541725159,9.84926414489746,1.24720835685730,0.06554683297873,-0.37966701388359
220,1795004536,3.10096883773804,0.34336167573929,16.01832389831543,-0.04848183318973,0.54233574867249,9.84832859039307,1.37551009654999,0.05747834965587,-0.29150283336639
221,1795012869,3.10133409500122,0.34382632374763,16.01821517944336,-0.08125629276037,0.52482557296753,9.86848449707031,1.32840538024902,0.13091434538364,-0.34186032414436
222,1795021202,3.10086464881897,0.34432694315910,16.01996994018555,-0.06489774584770,0.53285104036331,9.85035896301270,1.22676825523376,0.13613966107368,-0.33663508296013
223,1795029535,3.10024237632751,0.34442371129990,16.02021789550781,-0.05714406073093,0.55516791343689,9.85656738281250,1.20958089828491,0.08847156167030,-0.29846987128258
224,1795037868,3.09983277320862,0.34426897764206,16.01943016052246,-0.05297365412116,0.54498946666718,9.85845756530762,1.23422181606293,0.05504499003291,-0.36035382747650
225,1795046201,3.10047268867493,0.34377986192703,16.01897239685059,-0.05382531881332,0.52868801355362,9.84113788604736,1.36162698268890,0.01303764525801,-0.37818136811256
226,1795054534,3.10052609443665,0.34345775842667,16.01807785034180,-0.04170107468963,0.53094840049744,9.87037277221680,1.28970217704773,0.03411816060543,-0.38881126046181
227,1795062867,3.10043001174927,0.34311538934708,16.01792716979980,-0.03198751434684,0.54279351234436,9.85662460327148,1.27300202846527,0.03201779723167,-0.34273129701614
228,1795071200,3.10025072097778,0.34240666031837,16.01451301574707,-0.05433299392462,0.54360175132751,9.85503005981445,1.26152670383453,-0.00892656017095,-0.31225031614304
229,1795079533,3.10004186630249,0.34175717830658,16.01470756530762,-0.03235230967402,0.55851542949677,9.86360549926758,1.25922143459320,-0.00144720426761,-0.29864919185638
230,1795087866,3.10043621063232,0.34131538867950,16.01040458679199,-0.05991221219301,0.52579832077026,9.86687469482422,1.33076179027557,0.01739206537604,-0.39388284087181
231,1795096199,3.10015892982483,0.34135663509369,16.01078605651855,-0.07780170440674,0.53654181957245,9.85725975036621,1.25084555149078,0.08339995145798,-0.28128275275230
232,1795104532,3.10117053985596,0.34137913584709,16.01023674011230,-0.08494000881910,0.53305846452713,9.83258438110352,1.40488958358765,0.07392268627882,-0.38952848315239
233,1795112865,3.10182929039001,0.34190407395363,16.01042175292969,-0.08139219880104,0.52838766574860,9.85183906555176,1.36342012882233,0.13985371589661,-0.30720430612564
234,1795121198,3.10114765167236,0.34097078442574,16.00908660888672,-0.06763012707233,0.55297195911407,9.86552333831787,1.20133316516876,-0.03728151693940,-0.33133292198181
235,1795129531,3.10075807571411,0.34057119488716,16.00909233093262,-0.06712970882654,0.53701394796371,9.82980060577393,1.23755168914795,0.02774021588266,-0.32421216368675
236,1795137864,3.10103058815002,0.34059244394302,16.01190757751465,-0.03754509612918,0.53854477405548,9.83454513549805,1.31621301174164,0.07515216618776,-0.38484105467796
237,1795146197,3.10112929344177,0.34110844135284,16.01129150390625,-0.05639318749309,0.52442491054535,9.87338256835938,1.29682302474976,0.13342455029488,-0.40379559993744
238,1795154530,3.10074138641357,0.34158030152321,16.01153755187988,-0.05431127548218,0.53222167491913,9.86847782135010,1.23621964454651,0.13245120644569,-0.31404331326485
239,1795162863,3.10111474990845,0.34146738052368,16.01187896728516,-0.05210845917463,0.52878820896149,9.84915733337402,1.32894325256348,0.06462471932173,-0.28522732853889
240,1795171196,3.10173225402832,0.34158587455750,16.01162528991699,-0.05117161199450,0.54249298572540,9.84319782257080,1.35773360729218,0.08614066243172,-0.38637787103653
241,1795179529,3.10132241249084,0.34202682971954,16.01089286804199,-0.06951132416725,0.52092009782791,9.86810493469238,1.23578429222107,0.12269218266010,-0.41670519113541
242,1795187862,3.10098361968994,0.34196171164513,16.01194381713867,-0.04599278047681,0.53169941902161,9.83540916442871,1.24223911762238,0.06698123365641,-0.34959590435028
243,1795196195,3.10092020034790,0.34204044938087,16.01095390319824,-0.05477647110820,0.54524689912796,9.86662483215332,1.27748429775238,0.07784166187048,-0.44493204355240
244,1795204528,3.10077214241028,0.34196776151657,16.01009368896484,-0.03703742101789,0.53360921144485,9.84033012390137,1.26536870002747,0.06623841077089,-0.33199891448021
245,1795212861,3.10048365592957,0.34192052483559,16.01051330566406,-0.06608511507511,0.55076891183853,9.86138153076172,1.24946224689484,0.07174547016621,-0.27703070640564
246,1795221194,3.10058283805847,0.34152194857597,16.00871276855469,-0.06275188922882,0.52792990207672,9.87643051147461,1.29446637630463,0.02812442742288,-0.30190214514732
247,1795229527,3.10101270675659,0.34166896343231,16.00832176208496,-0.06508371978998,0.53858762979507,9.83874225616455,1.33629465103149,0.08977788686752,-0.37423679232597
248,1795237860,3.10100603103638,0.34159809350967,16.00869560241699,-0.07944676280022,0.55336529016495,9.86650848388672,1.28237664699554,0.06882544606924,-0.31058540940285
249,1795246193,3.10098123550415,0.34138625860214,16.00903511047363,-0.05857463181019,0.54589068889618,9.86286163330078,1.28122401237488,0.05235549435019,-0.28366482257843
250,1795254526,3.10065412521362,0.34026667475700,16.00833892822266,-0.04539909586310,0.53133463859558,9.81968784332275,1.24336612224579,-0.05800343304873,-0.27539142966270
251,1795262859,3.10087847709656,0.34017777442932,16.00830078125000,-0.04190835729241,0.53838741779327,9.84790706634521,1.31139755249023,0.06529068946838,-0.33099994063377
252,1795271192,3.10110449790955,0.33936920762062,16.00716972351074,-0.04966914653778,0.55363726615906,9.85156917572021,1.31091082096100,-0.02875197865069,-0.42915368080139
253,1795279525,3.10069727897644,0.33880609273911,16.00651168823242,-0.04355366155505,0.54068338871002,9.86047267913818,1.23614287376404,0.00312493671663,-0.40128538012505
254,1795287858,3.10085010528564,0.33840507268906,16.00965309143066,-0.04816724359989,0.55277884006500,9.85627460479736,1.30092144012451,0.02953321486712,-0.30349028110504
255,1795296191,3.10127043724060,0.33756521344185,16.00997734069824,-0.04253795742989,0.52595567703247,9.84309196472168,1.33447599411011,-0.02460247278214,-0.28279396891594
256,1795304524,3.10145497322083,0.33760395646095,16.01168251037598,-0.05072065070271,0.55179184675217,9.85181903839111,1.30553185939789,0.07932728528976,-0.36614266037941
257,1795312857,3.10156917572021,0.33774089813232,16.01144599914551,-0.07324495166540,0.53983944654465,9.83380126953125,1.29835999011993,0.09067439287901,-0.35712647438049
258,1795321190,3.10118460655212,0.33785918354988,16.01057434082031,-0.06589198857546,0.54248589277267,9.83548069000244,1.23709058761597,0.08818981051445,-0.34324353933334
259,1795329523,3.10057592391968,0.33876156806946,16.01065635681152,-0.08295152336359,0.55655556917191,9.84104537963867,1.21127152442932,0.18362843990326,-0.32198372483253
260,1795337856,3.10077810287476,0.33827507495880,16.00998687744141,-0.06184348091483,0.54664170742035,9.85558032989502,1.30735051631927,0.01644433848560,-0.33566173911095
261,1795346189,3.10056471824646,0.33820274472237,16.00907135009766,-0.05936878919601,0.53681367635727,9.85761260986328,1.25952875614166,0.06155100464821,-0.43568530678749
262,1795354522,3.09995317459106,0.33847445249557,16.00761032104492,-0.05323145911098,0.53634876012802,9.88478565216064,1.20955538749695,0.10681135207415,-0.32843852043152
263,1795362855,3.09989738464355,0.33894816040993,16.00851821899414,-0.05395389348269,0.55300056934357,9.82566738128662,1.27717709541321,0.13923898339272,-0.22211386263371
264,1795371188,3.09936881065369,0.33854988217354,16.00833129882812,-0.04501314088702,0.54175627231598,9.86246776580811,1.21969854831696,0.02597283199430,-0.36002084612846
265,1795379521,3.09918212890625,0.33805531263351,16.00790023803711,-0.04359641298652,0.55568295717239,9.86759757995605,1.26214134693146,0.01144956238568,-0.37462097406387
266,1795387854,3.09898567199707,0.33772984147072,16.00775146484375,-0.03709464520216,0.52823030948639,9.82851409912109,1.25919580459595,0.03780660778284,-0.32037001848221
267,1795396187,3.09875035285950,0.33852726221085,16.00765037536621,-0.04546346887946,0.52931040525436,9.85620975494385,1.25617337226868,0.16948938369751,-0.34495973587036
268,1795404520,3.09856081008911,0.33824521303177,16.00871658325195,-0.02938387915492,0.55472445487976,9.83106040954590,1.26063024997711,0.04000943899155,-0.35638365149498
269,1795412853,3.09867262840271,0.33824405074120,16.00860595703125,-0.06998341530561,0.54873037338257,9.85487937927246,1.29789876937866,0.07471672445536,-0.33829998970032
270,1795421186,3.09895038604736,0.33873084187508,16.00841903686523,-0.07914620637894,0.53189969062805,9.86367702484131,1.31639242172241,0.13324524462223,-0.31683528423309
271,1795429519,3.09924173355103,0.33800134062767,16.00940895080566,-0.06743708997965,0.54165613651276,9.86430549621582,1.31885123252869,-0.00557109573856,-0.20379965007305
272,1795437852,3.09931993484497,0.33806836605072,16.00977516174316,-0.06036999449134,0.52476119995117,9.85982894897461,1.29200756549835,0.08447574079037,-0.30625659227371
273,1795446185,3.09927034378052,0.33767414093018,16.01032257080078,-0.05361033231020,0.54581207036972,9.89337730407715,1.27797102928162,0.03127497807145,-0.25843480229378
274,1795454518,3.09911942481995,0.33730873465538,16.01092338562012,-0.06207952275872,0.52679973840714,9.87422752380371,1.26483082771301,0.03306797891855,-0.30256813764572
275,1795462851,3.09950137138367,0.33752271533012,16.01097679138184,-0.07044835388660,0.53509700298309,9.82897186279297,1.33032643795013,0.10145798325539,-0.32065179944038
276,1795471184,3.09952759742737,0.33788490295410,16.01024627685547,-0.06853138655424,0.54281497001648,9.87017250061035,1.28627002239227,0.11621177196503,-0.38814529776573
277,1795479517,3.10015106201172,0.33746737241745,16.00949859619141,-0.02849692665040,0.52602720260620,9.86497879028320,1.35978293418884,0.02005594596267,-0.41329845786095
278,1795487850,3.10067272186279,0.33717197179794,16.01005935668945,-0.03093604557216,0.52250802516937,9.86609554290771,1.34533655643463,0.04326244443655,-0.27016615867615
279,1795496183,3.10084176063538,0.33754953742027,16.01047325134277,-0.03574990853667,0.54597651958466,9.87617301940918,1.30437922477722,0.12156514823437,-0.27787598967552
280,1795504516,3.10053181648254,0.33730399608612,16.00992965698242,-0.03335392102599,0.54454588890076,9.85529327392578,1.24500548839569,0.05094671249390,-0.25500249862671
281,1795512849,3.10054516792297,0.33720281720161,16.00978088378906,-0.04191565886140,0.54953861236572,9.86685371398926,1.28616750240326,0.06080819293857,-0.34388390183449
282,1795521182,3.10073637962341,0.33773946762085,16.00882911682129,-0.04989835619926,0.53343749046326,9.85362625122070,1.30586469173431,0.14331164956093,-0.28474062681198
283,1795529515,3.10022449493408,0.33737432956696,16.00912666320801,-0.06783016771078,0.53274381160736,9.82960224151611,1.22284924983978,0.03273499384522,-0.28704592585564
284,1795537848,3.10064005851746,0.33789369463921,16.00842094421387,-0.06592775136232,0.53516852855682,9.88306903839111,1.33211958408356,0.14164671301842,-0.25400355458260
285,1795546181,3.10057497024536,0.33755415678024,16.00858116149902,-0.07973989099264,0.54315114021301,9.84525871276855,1.27645969390869,0.03593676909804,-0.30574429035187
286,1795554514,3.10041809082031,0.33773109316826,16.00867652893066,-0.07974004000425,0.53122729063034,9.83607292175293,1.26413941383362,0.09618145972490,-0.33806949853897
287,1795562847,3.10029172897339,0.33763539791107,16.00885963439941,-0.06087069213390,0.54556876420975,9.86848449707031,1.26898038387299,0.06418927013874,-0.30382323265076
288,1795571180,3.10021519660950,0.33725813031197,16.00690841674805,-0.06675732880831,0.53058367967606,9.85905075073242,1.27394950389862,0.02799636125565,-0.36207005381584
289,1795579513,3.09931564331055,0.33702948689461,16.00727272033691,-0.06017664447427,0.53682810068130,9.87779808044434,1.17618012428284,0.05135654658079,-0.28192308545113
290,1795587846,3.09928584098816,0.33742350339890,16.00703811645508,-0.05544168502092,0.53275090456009,9.87504291534424,1.27884185314178,0.12686727941036,-0.23438301682472
291,1795596179,3.09950065612793,0.33771896362305,16.00671577453613,-0.03487710282207,0.52662813663483,9.86059570312500,1.31037294864655,0.10847628116608,-0.36588653922081
292,1795604512,3.09919810295105,0.33786869049072,16.00559234619141,-0.06979047507048,0.54340857267380,9.87600231170654,1.24702906608582,0.08844595402479,-0.41388761997223
293,1795612845,3.09855651855469,0.33768633008003,16.00478363037109,-0.03549240529537,0.53184962272644,9.84766197204590,1.20806980133057,0.04828283190727,-0.42236590385437
294,1795621178,3.09872508049011,0.33802372217178,16.00547027587891,-0.04912572726607,0.52767950296402,9.84716129302979,1.30320096015930,0.11792793869972,-0.29772707819939
295,1795629511,3.09858131408691,0.33751291036606,16.00547027587891,-0.06511218845844,0.53959625959396,9.83940887451172,1.26708507537842,0.01449765823781,-0.32321321964264
296,1795637844,3.09839129447937,0.33722534775734,16.00468444824219,-0.06322398036718,0.54347300529480,9.83582401275635,1.26098871231079,0.03770415112376,-0.37602975964546
297,1795646177,3.09859442710876,0.33708173036575,16.00527000427246,-0.06132120639086,0.54419553279877,9.84292125701904,1.30827260017395,0.06080819293857,-0.25515618920326
298,1795654510,3.09936952590942,0.33692836761475,16.00536918640137,-0.06446857005358,0.52981108427048,9.85752582550049,1.37609910964966,0.05793940275908,-0.32216304540634
299,1795662843,3.09967803955078,0.33656007051468,16.00566101074219,-0.06666449457407,0.53641313314438,9.83588123321533,1.32123351097107,0.03263253718615,-0.28999155759811
300,1795671176,3.09936738014221,0.33727470040321,16.00532913208008,-0.07595631480217,0.52367383241653,9.82683181762695,1.24579954147339,0.16075494885445,-0.33053886890411
301,1795679509,3.09882521629333,0.33711484074593,16.00567054748535,-0.08011183887720,0.52907431125641,9.86231136322021,1.21908402442932,0.05742711573839,-0.28376731276512
302,1795687842,3.09815597534180,0.33630445599556,16.00517845153809,-0.07704327255487,0.55953830480576,9.86745452880859,1.20266532897949,-0.02352667413652,-0.37377569079399
303,1795696175,3.09687829017639,0.33623021841049,16.00493431091309,-0.08759371191263,0.53956037759781,9.84099578857422,1.13127827644348,0.06472717225552,-0.35605067014694
304,1795704508,3.09680581092834,0.33585229516029,16.00425338745117,-0.05472640320659,0.55267870426178,9.85447216033936,1.27441060543060,0.02797074429691,-0.36358121037483
305,1795712841,3.09722185134888,0.33566626906395,16.00468063354492,-0.03358975052834,0.52228629589081,9.87217521667480,1.33398926258087,0.05578780174255,-0.27562192082405
306,1795721174,3.09748601913452,0.33579695224762,16.00509452819824,-0.04411158338189,0.53699970245361,9.85168933868408,1.31449687480927,0.09244176745415,-0.29444840550423
307,1795729507,3.09698367118835,0.33535560965538,16.00548934936523,-0.05306002125144,0.51916760206223,9.86971282958984,1.22384822368622,0.02543493732810,-0.27580127120018
308,1795737840,3.09680056571960,0.33604201674461,16.00576591491699,-0.06599237769842,0.56385844945908,9.84738159179688,1.26080954074860,0.15926931798458,-0.29140037298203
309,1795746173,3.09672427177429,0.33582571148872,16.00611495971680,-0.04266670718789,0.52846634387970,9.84230518341064,1.27505123615265,0.05115162953734,-0.28325501084328
310,1795754506,3.10304379463196,0.34747409820557,16.01704406738281,-0.03738803043962,0.54350870847702,9.85103702545166,1.41603171825409,0.13378314673901,-0.24903438985348
311,1795762839,3.10349845886230,0.34796780347824,16.01678657531738,-0.05215853080153,0.54415965080261,9.86031532287598,1.33936822414398,0.13283541798592,-0.35991838574409
312,1795771172,3.10305118560791,0.34843847155571,16.01844024658203,-0.07319486886263,0.51911765336990,9.87221908569336,1.22843301296234,0.13824002444744,-0.21161201596260
313,1795779505,3.10269403457642,0.34832373261452,16.01776123046875,-0.08127775788307,0.54090511798859,9.85069465637207,1.24147069454193,0.05522428825498,-0.40735596418381
314,1795787838,3.10260915756226,0.34796026349068,16.01821327209473,-0.08125629276037,0.53444612026215,9.82565307617188,1.27231025695801,0.03355464711785,-0.28906944394112
315,1795796171,3.10233330726624,0.34845882654190,16.01797294616699,-0.07989725470543,0.53244334459305,9.82505226135254,1.25099921226501,0.13255366683006,-0.36025139689445
316,1795804504,3.10250473022461,0.34842407703400,16.01773071289062,-0.06275188922882,0.51688587665558,9.84649658203125,1.30335462093353,0.07015738636255,-0.35313066840172
317,1795812837,3.10288310050964,0.34895655512810,16.01791381835938,-0.07295899838209,0.54293656349182,9.85501575469971,1.32917380332947,0.13852177560329,-0.30838257074356
318,1795821170,3.10324096679688,0.34885862469673,16.01976966857910,-0.04723737388849,0.54065477848053,9.81880092620850,1.32530617713928,0.06872299313545,-0.23510023951530
319,1795829503,3.10354185104370,0.34893250465393,16.01983833312988,-0.05624995753169,0.54242151975632,9.82809925079346,1.32013189792633,0.08378415554762,-0.31970405578613
320,1795837836,3.10339760780334,0.34887996315956,16.01895904541016,-0.03692297637463,0.54421693086624,9.85889911651611,1.26539433002472,0.06961948424578,-0.30981695652008
321,1795846169,3.10297513008118,0.34900355339050,16.01873397827148,-0.04215170443058,0.53705692291260,9.84495830535889,1.23337662220001,0.08713961392641,-0.35602506995201
322,1795854502,3.10344552993774,0.34887412190437,16.01772689819336,-0.04485532268882,0.53441756963730,9.83701324462891,1.33926582336426,0.05770887061954,-0.34119439125061
323,1795862835,3.10253143310547,0.34962287545204,16.01779174804688,-0.06979744136333,0.52505445480347,9.84537315368652,1.17428457736969,0.16408477723598,-0.32449391484261
324,1795871168,3.10283088684082,0.34954017400742,16.01786804199219,-0.05931137502193,0.55875861644745,9.84692573547363,1.31856966018677,0.06687877327204,-0.31063663959503
325,1795879501,3.10340189933777,0.35003453493118,16.01752090454102,-0.06229427829385,0.52755784988403,9.86331844329834,1.35279011726379,0.13106803596020,-0.37159851193428
326,1795887834,3.10316896438599,0.34931087493896,16.01859092712402,-0.05465487390757,0.55880868434906,9.84247684478760,1.25430333614349,-0.00495635345578,-0.20372280478477
327,1795896167,3.10274243354797,0.34905529022217,16.01832008361816,-0.07358098775148,0.53878796100616,9.84026050567627,1.23283874988556,0.04121330380440,-0.35863772034645
328,1795904500,3.10286664962769,0.34935548901558,16.01840591430664,-0.05503397434950,0.54207104444504,9.84176826477051,1.29800128936768,0.11034612357616,-0.33261364698410
329,1795912833,3.10331845283508,0.35026285052299,16.01761436462402,-0.05136456340551,0.51787298917770,9.87176036834717,1.33870220184326,0.17771154642105,-0.42789852619171
330,1795921166,3.10338354110718,0.35078659653664,16.01751136779785,-0.06597067415714,0.53697109222412,9.83154678344727,1.29098320007324,0.13478210568428,-0.38040977716446
331,1795929499,3.10386776924133,0.35138607025146,16.01715469360352,-0.07753681391478,0.56864386796951,9.84065914154053,1.34239077568054,0.14489971101284,-0.37398061156273
332,1795937832,3.10404491424561,0.35109332203865,16.01610755920410,-0.06592757999897,0.52679979801178,9.88871383666992,1.30430245399475,0.03565501421690,-0.38450810313225
333,1795946165,3.10347270965576,0.35127735137939,16.01574134826660,-0.03883278369904,0.54825109243393,9.86998653411865,1.21549797058105,0.09390179812908,-0.37182906270027
334,1795954498,3.10285806655884,0.35123914480209,16.01570701599121,-0.04027050733566,0.52370256185532,9.85769748687744,1.20891511440277,0.06977317482233,-0.34670150279999
335,1795962831,3.10363626480103,0.35068175196648,16.01583290100098,-0.05966171622276,0.55364441871643,9.85571765899658,1.37730300426483,0.00778672657907,-0.30815204977989
336,1795971164,3.10385012626648,0.35068812966347,16.01444435119629,-0.04075689986348,0.53191399574280,9.83405017852783,1.30845201015472,0.07528024166822,-0.33302348852158
337,1795979497,3.10377621650696,0.35082873702049,16.01413154602051,-0.06408962607384,0.55264288187027,9.85319709777832,1.27530705928802,0.08865085989237,-0.36465701460838
338,1795987830,3.10392475128174,0.35118117928505,16.01369094848633,-0.06688623130322,0.54761451482773,9.85053062438965,1.30084443092346,0.11828653514385,-0.33046203851700
339,1795996163,3.10357570648193,0.35208255052567,16.01357078552246,-0.05926845595241,0.52428907155991,9.88609409332275,1.24208545684814,0.17988876998425,-0.34754672646523
340,1796004496,3.10381007194519,0.35193011164665,16.01631927490234,-0.07065578550100,0.55546116828918,9.84902858734131,1.31121826171875,0.05302147194743,-0.40822687745094
341,1796012829,3.10375308990479,0.35224723815918,16.01666450500488,-0.06677179038525,0.54471045732498,9.84187602996826,1.27692079544067,0.11552019417286,-0.28758379817009
342,1796021162,3.10304069519043,0.35242104530334,16.01728630065918,-0.06929673999548,0.55979579687119,9.84148979187012,1.19667148590088,0.09753900766373,-0.27423882484436
343,1796029495,3.10290265083313,0.35297086834908,16.01715278625488,-0.05763775855303,0.52373111248016,9.87004184722900,1.26744353771210,0.13903406262398,-0.34688076376915
344,1796037828,3.10297513008118,0.35414049029350,16.01815223693848,-0.04435477778316,0.53147768974304,9.87030792236328,1.29105973243713,0.22038488090038,-0.26540187001228
345,1796046161,3.10295867919922,0.35438817739487,16.01797485351562,-0.07785869389772,0.52550506591797,9.83872127532959,1.28212046623230,0.10217518359423,-0.34910923242569
346,1796054494,3.10234975814819,0.35381576418877,16.02066993713379,-0.07714340835810,0.54719251394272,9.85925674438477,1.20950412750244,0.00801725592464,-0.30233758687973
347,1796062827,3.10188937187195,0.35405716300011,16.02055358886719,-0.04574242979288,0.53006142377853,9.86558055877686,1.22902226448059,0.10291799157858,-0.34175792336464
348,1796071160,3.10188508033752,0.35441762208939,16.01987266540527,-0.03550671413541,0.52770096063614,9.85925674438477,1.28176176548004,0.12164200097322,-0.25438776612282
349,1796079493,3.10231518745422,0.35409775376320,16.02036666870117,-0.04032760486007,0.54540431499481,9.83709144592285,1.33529543876648,0.03893363475800,-0.26614466309547
350,1796087826,3.10256981849670,0.35418707132339,16.01962852478027,-0.05746576189995,0.52245801687241,9.84379386901855,1.31354916095734,0.08245220780373,-0.40820124745369
351,1796096159,3.10282063484192,0.35409227013588,16.01917839050293,-0.06332411617041,0.55262148380280,9.86171054840088,1.31434321403503,0.05939940735698,-0.37982067465782
352,1796104492,3.10313606262207,0.35386177897453,16.01763916015625,-0.05959748849273,0.53985369205475,9.85620975494385,1.32056748867035,0.04677159339190,-0.33458590507507
353,1796112825,3.10283160209656,0.35372087359428,16.01801681518555,-0.03224501758814,0.52509021759033,9.84628200531006,1.24708032608032,0.05922010913491,-0.28192308545113
354,1796121158,3.10281229019165,0.35468766093254,16.01734352111816,-0.06795915961266,0.54045450687408,9.84109592437744,1.28081429004669,0.18944290280342,-0.35087662935257
355,1796129491,3.10271382331848,0.35443684458733,16.01688003540039,-0.04625028371811,0.56838637590408,9.86919975280762,1.27251529693604,0.04198173061013,-0.38186982274055
356,1796137824,3.10325741767883,0.35461106896400,16.01682472229004,-0.07370306551456,0.54687052965164,9.83762550354004,1.34823083877563,0.09367126226425,-0.37672135233879
357,1796146157,3.10284948348999,0.35459467768669,16.01700592041016,-0.05564911663532,0.54131287336349,9.85472202301025,1.23486220836639,0.07264196872711,-0.30566745996475
358,1796154490,3.10298037528992,0.35512226819992,16.01703262329102,-0.06647852063179,0.55906617641449,9.87135982513428,1.29879546165466,0.13596035540104,-0.38197228312492
359,1796162823,3.10216212272644,0.35502362251282,16.01734733581543,-0.08175699412823,0.51134961843491,9.84769821166992,1.18555486202240,0.06444541364908,-0.28899261355400
360,1796171156,3.10245156288147,0.35452950000763,16.01549530029297,-0.06257325410843,0.55983865261078,9.84127330780029,1.31818544864655,0.01144956331700,-0.40868791937828
361,1796179489,3.10287761688232,0.35483840107918,16.01483345031738,-0.04820301011205,0.52626329660416,9.82960128784180,1.33555197715759,0.10591486841440,-0.40881606936455
362,1796187822,3.10308980941772,0.35519659519196,16.01624488830566,-0.04307455569506,0.55476009845734,9.85256767272949,1.30811893939972,0.11984899640083,-0.30574426054955
363,1796196155,3.10378456115723,0.35528147220612,16.01691627502441,-0.06021967157722,0.54240012168884,9.82916641235352,1.36669862270355,0.08900947123766,-0.24731823801994
364,1796204488,3.10394716262817,0.35426965355873,16.01749038696289,-0.05791644006968,0.54099106788635,9.85810661315918,1.30217659473419,-0.04504263401031,-0.29142597317696
365,1796212821,3.10364365577698,0.35388949513435,16.01702690124512,-0.05097863450646,0.51980417966843,9.85902690887451,1.24774622917175,0.02497387863696,-0.37905225157738
366,1796221154,3.10335779190063,0.35367405414581,16.01555442810059,-0.03113615140319,0.54442435503006,9.83334255218506,1.24905252456665,0.04467122629285,-0.41086515784264
367,1796229487,3.10368752479553,0.35328498482704,16.01507949829102,-0.04840328916907,0.55393046140671,9.84735488891602,1.32376921176910,0.02446159534156,-0.38169053196907
368,1796237820,3.10309791564941,0.35388427972794,16.01590919494629,-0.03902617096901,0.54003238677979,9.84718132019043,1.21173262596130,0.14717939496040,-0.32431462407112
369,1796246153,3.10342741012573,0.35484746098518,16.01642417907715,-0.06233702600002,0.53350192308426,9.84299850463867,1.32320582866669,0.19282396137714,-0.27078089118004
370,1796254486,3.10441374778748,0.35508722066879,16.01786613464355,-0.04769531264901,0.52657079696655,9.87662315368652,1.40081679821014,0.10314852744341,-0.32915571331978
371,1796262819,3.10511565208435,0.35524210333824,16.01691246032715,-0.05233735218644,0.54895925521851,9.84565258026123,1.36879897117615,0.08619190007448,-0.44313898682594
372,1796271152,3.10500311851501,0.35488426685333,16.01698303222656,-0.06250869482756,0.54258602857590,9.84671115875244,1.26918530464172,0.03322165831923,-0.30810081958771
373,1796279485,3.10505938529968,0.35552293062210,16.01648330688477,-0.06325259059668,0.53398120403290,9.85838413238525,1.29103410243988,0.14661586284637,-0.39114215970039
374,1796287818,3.10512828826904,0.35563051700592,16.01725769042969,-0.06656452268362,0.54441714286804,9.85006427764893,1.29090619087219,0.08767752349377,-0.36463144421577
375,1796296151,3.10530638694763,0.35530579090118,16.01654434204102,-0.07358825951815,0.53452485799789,9.84517383575439,1.30573689937592,0.03025041520596,-0.41227397322655
376,1796304484,3.10494923591614,0.35573399066925,16.01648330688477,-0.06541990488768,0.55227100849152,9.87975025177002,1.23993396759033,0.12807118892670,-0.30100569128990
377,1796312817,3.10476565361023,0.35561677813530,16.01717567443848,-0.05894657969475,0.52938193082809,9.87871265411377,1.26150119304657,0.06303662806749,-0.24232348799706
378,1796321150,3.10412430763245,0.35607483983040,16.01868629455566,-0.04406151175499,0.54963159561157,9.82867813110352,1.20548272132874,0.13096559047699,-0.32336691021919
379,1796329483,3.10436129570007,0.35704046487808,16.01880455017090,-0.06935410201550,0.53867340087891,9.83330535888672,1.31242215633392,0.19103096425533,-0.31850019097328
380,1796337816,3.10422539710999,0.35684996843338,16.01958084106445,-0.03655818104744,0.53291541337967,9.85562324523926,1.26634216308594,0.05560850352049,-0.26232817769051
381,1796346149,3.10442781448364,0.35659191012383,16.01860427856445,-0.05065643414855,0.52849495410919,9.84043025970459,1.30896413326263,0.03650028631091,-0.44155097007751
382,1796354482,3.10421419143677,0.35646721720695,16.01856231689453,-0.04592149332166,0.52199298143387,9.84486389160156,1.25678813457489,0.06231943890452,-0.28655925393105
383,1796362815,3.10405039787292,0.35674992203712,16.01863098144531,-0.04213024675846,0.55667716264725,9.86288356781006,1.26429295539856,0.10816891491413,-0.32208621501923
384,1796371148,3.10366249084473,0.35669630765915,16.01908683776855,-0.06441134959459,0.53780794143677,9.87029361724854,1.23652720451355,0.06733983010054,-0.36332514882088
385,1796379481,3.10313200950623,0.35673135519028,16.01976585388184,-0.06139285117388,0.55207788944244,9.87143135070801,1.21974980831146,0.08191432803869,-0.24724140763283
386,1796387814,3.10319232940674,0.35586744546890,16.01860427856445,-0.03872529044747,0.53162080049515,9.84826469421387,1.29088056087494,-0.03600080683827,-0.45315423607826
387,1796396147,3.10270190238953,0.35530415177345,16.01897621154785,-0.04896836355329,0.55811488628387,9.85280513763428,1.22494959831238,0.00924673769623,-0.27733811736107
388,1796404480,3.10242581367493,0.35477080941200,16.02059173583984,-0.09037616848946,0.50898200273514,9.81329250335693,1.24984645843506,0.00842708349228,-0.38128066062927
389,1796412813,3.10283541679382,0.35418218374252,16.02124023437500,-0.07271580398083,0.57488828897476,9.81950187683105,1.33273410797119,0.00870884023607,-0.24598629772663
390,1796421146,3.10238814353943,0.35404372215271,16.01820373535156,-0.06999772042036,0.54849427938461,9.82191944122314,1.22989308834076,0.04928178340197,-0.48573553562164
391,1796429479,3.10250377655029,0.35363870859146,16.01858901977539,-0.08542640507221,0.54446727037430,9.82154750823975,1.29759144783020,0.02866232953966,-0.27892619371414
392,1796437812,3.10252499580383,0.35323488712311,16.01818656921387,-0.04235913604498,0.56557530164719,9.84276294708252,1.28591144084930,0.02064507268369,-0.43202248215675
393,1796446145,3.10214519500732,0.35313251614571,16.01803016662598,-0.07133530080318,0.53479659557343,9.84726905822754,1.23842251300812,0.05968116596341,-0.34398636221886
394,1796454478,3.10275673866272,0.35320505499840,16.01698303222656,-0.04846766218543,0.55606913566589,9.81371498107910,1.35583829879761,0.08255466818810,-0.36242857575417
395,1796462811,3.10298037528992,0.35300391912460,16.01799201965332,-0.05469788238406,0.52399575710297,9.84520721435547,1.30998885631561,0.05706851184368,-0.20364595949650
396,1796471144,3.10244631767273,0.35274705290794,16.01460075378418,-0.02549249865115,0.55386614799500,9.86759853363037,1.21841788291931,0.04592632129788,-0.28028377890587
397,1796479477,3.10217261314392,0.35208818316460,16.01439285278320,-0.04693695530295,0.51325225830078,9.85072326660156,1.25117862224579,-0.00654443772510,-0.34908363223076
398,1796487810,3.10213589668274,0.35232412815094,16.01484489440918,-0.04411873593926,0.54753583669662,9.83733367919922,1.27820146083832,0.10483906418085,-0.30277305841446
399,1796496143,3.10260796546936,0.35252583026886,16.01430130004883,-0.05542737990618,0.53255063295364,9.88729572296143,1.34098196029663,0.09474705159664,-0.39444640278816
400,1796504476,3.10327029228210,0.35251292586327,16.01600265502930,-0.06798776984215,0.54760020971298,9.86118793487549,1.36165261268616,0.07720129936934,-0.26243063807487
401,1796512809,3.10355591773987,0.35202515125275,16.01566696166992,-0.07081297785044,0.54305821657181,9.85495948791504,1.31851840019226,0.01380607392639,-0.36373496055603
402,1796521142,3.10244202613831,0.35160019993782,16.01799201965332,-0.08584823459387,0.54295092821121,9.85313510894775,1.14841413497925,0.02904654107988,-0.23407568037510
403,1796529475,3.10218882560730,0.35262966156006,16.01699447631836,-0.08428910374641,0.54533988237381,9.84387111663818,1.25427782535553,0.19082604348660,-0.45261630415916
404,1796537808,3.10275030136108,0.35203185677528,16.01702880859375,-0.10629848390818,0.50611364841461,9.86952686309814,1.34938347339630,0.01086043566465,-0.17190994322300
405,1796546141,3.10195922851562,0.35294982790947,16.01678657531738,-0.06014110520482,0.55904471874237,9.82941532135010,1.18926906585693,0.18293687701225,-0.36173707246780
406,1796554474,3.10261797904968,0.35310173034668,16.01711654663086,-0.07996162772179,0.52336639165878,9.85357093811035,1.36106371879578,0.09797444939613,-0.24993091821671
407,1796562807,3.10295987129211,0.35311558842659,16.01755142211914,-0.05766634270549,0.57858622074127,9.87124347686768,1.32469129562378,0.07804657518864,-0.27500721812248
408,1796571140,3.10281252861023,0.35359758138657,16.01779174804688,-0.05583509057760,0.52159959077835,9.82834911346436,1.26516389846802,0.13140101730824,-0.36196756362915
409,1796579473,3.10317111015320,0.35330760478973,16.01818084716797,-0.05182937160134,0.54425275325775,9.83762073516846,1.32671499252319,0.04198173061013,-0.27849078178406
410,1796587806,3.10339045524597,0.35265246033669,16.01781845092773,-0.01763175800443,0.53343039751053,9.85575199127197,1.30952775478363,-0.00846550427377,-0.40405172109604
411,1796596139,3.10400271415710,0.35232982039452,16.01820182800293,-0.03250238671899,0.54348737001419,9.82549667358398,1.35717022418976,0.03885679319501,-0.27905425429344
412,1796604472,3.10373544692993,0.35249221324921,16.01455307006836,-0.05140032991767,0.55248558521271,9.84859180450439,1.25061500072479,0.09528494626284,-0.31429946422577
413,1796612805,3.10301423072815,0.35253822803497,16.01519584655762,-0.03313932195306,0.51983278989792,9.84097290039062,1.19695317745209,0.08339994400740,-0.25167265534401
414,1796621138,3.10321974754333,0.35248062014580,16.01617050170898,-0.04991953819990,0.53477519750595,9.85543823242188,1.30722236633301,0.06731420755386,-0.33937579393387
415,1796629471,3.10295701026917,0.35267096757889,16.01663017272949,-0.06550573557615,0.51036965847015,9.85674667358398,1.25210058689117,0.09974182397127,-0.27293246984482
416,1796637804,3.10329771041870,0.35329768061638,16.01610946655273,-0.06494066119194,0.54333710670471,9.83947181701660,1.32402539253235,0.14807589352131,-0.39483061432838
417,1796646137,3.10389208793640,0.35299855470657,16.01531219482422,-0.08261533826590,0.51712191104889,9.84247684478760,1.35578703880310,0.03278622031212,-0.42218661308289
418,1796654470,3.10400629043579,0.35363411903381,16.01816749572754,-0.08401013910770,0.57509571313858,9.85714721679688,1.29602909088135,0.15565770864487,-0.25113475322723
419,1796662803,3.10392880439758,0.35376265645027,16.01748657226562,-0.08256526291370,0.53236466646194,9.87653064727783,1.27510225772858,0.08547469973564,-0.40866231918335
420,1796671136,3.10367345809937,0.35304245352745,16.01965522766113,-0.07646413892508,0.55138397216797,9.84485721588135,1.25171637535095,-0.00795321911573,-0.28807049989700
421,1796679469,3.10388112068176,0.35280686616898,16.01881217956543,-0.06574177742004,0.53962475061417,9.87816238403320,1.30947661399841,0.04021434858441,-0.42615687847137
422,1796687802,3.10416698455811,0.35244119167328,16.02128028869629,-0.05089247599244,0.53582662343979,9.84406471252441,1.31654596328735,0.03478413075209,-0.25397795438766
423,1796696135,3.10432505607605,0.35281652212143,16.02171897888184,-0.03736644983292,0.55642682313919,9.86573791503906,1.30250942707062,0.12207744270563,-0.27744057774544
424,1796704468,3.10381078720093,0.35274940729141,16.02016448974609,-0.04129369929433,0.52742910385132,9.84429931640625,1.22174775600433,0.06319031864405,-0.40417981147766
425,1796712801,3.10368680953979,0.35254320502281,16.01961326599121,-0.01436290889978,0.54350876808167,9.83950042724609,1.26944148540497,0.04549087956548,-0.39249968528748
426,1796721134,3.10427331924438,0.35238435864449,16.02023887634277,-0.03873282298446,0.51598459482193,9.86283206939697,1.35355865955353,0.05225303769112,-0.38169053196907
427,1796729467,3.10469841957092,0.35225859284401,16.02119636535645,-0.02549282647669,0.56143373250961,9.85746765136719,1.33421981334686,0.06477839499712,-0.21161198616028
428,1796737800,3.10413432121277,0.35247650742531,16.02065849304199,-0.03855382278562,0.52598428726196,9.85585975646973,1.21462690830231,0.10404501855373,-0.28865963220596
429,1796746133,3.10423803329468,0.35142749547958,16.02107048034668,-0.06753702461720,0.55290770530701,9.85513782501221,1.29605472087860,-0.04883353784680,-0.27070403099060
430,1796754466,3.10474848747253,0.35196554660797,16.02044486999512,-0.08768670260906,0.55744248628616,9.84835624694824,1.34487521648407,0.13485893607140,-0.41711497306824
431,1796762799,3.10403037071228,0.35203242301941,16.02072525024414,-0.09320869296789,0.52490425109863,9.84688949584961,1.19749104976654,0.08380977064371,-0.29432034492493
432,1796771132,3.10381317138672,0.35272151231766,16.01897621154785,-0.07252983003855,0.55272877216339,9.84149646759033,1.25689053535461,0.15809106826782,-0.32938626408577
433,1796779465,3.10309576988220,0.35303846001625,16.01854324340820,-0.08876708894968,0.53590524196625,9.86019229888916,1.19815695285797,0.10924471169710,-0.38179293274879
434,1796787798,3.10323190689087,0.35303339362144,16.01751518249512,-0.08503299951553,0.56496727466583,9.89941978454590,1.29912841320038,0.07049038261175,-0.39816045761108
435,1796796131,3.10364866256714,0.35246580839157,16.01760101318359,-0.08079136162996,0.53167080879211,9.85538005828857,1.33401489257812,0.00719759939238,-0.31286504864693
436,1796804464,3.10339498519897,0.35251048207283,16.01948738098145,-0.06273758411407,0.54811519384384,9.85812664031982,1.25187015533447,0.08245222270489,-0.28850594162941
437,1796812797,3.10336446762085,0.35189080238342,16.01979637145996,-0.05144324526191,0.53343755006790,9.86356258392334,1.28019940853119,0.00210036709905,-0.28617504239082
438,1796821130,3.10330247879028,0.35169726610184,16.01983070373535,-0.03290307894349,0.54246443510056,9.84535884857178,1.27515339851379,0.04979407042265,-0.35274639725685
439,1796829463,3.10393357276917,0.35172793269157,16.02062797546387,-0.02313944697380,0.53215718269348,9.84573078155518,1.35906577110291,0.08263152092695,-0.23069460690022
440,1796837796,3.10338330268860,0.35130345821381,16.02113151550293,-0.04346782714128,0.54990339279175,9.85676097869873,1.21700906753540,0.02225876972079,-0.36972865462303
441,1796846129,3.10341811180115,0.35081577301025,16.02111816406250,-0.02866859547794,0.55418795347214,9.85290527343750,1.28813993930817,0.01500994246453,-0.32503184676170
442,1796854462,3.10310053825378,0.35099580883980,16.01878547668457,-0.04192281141877,0.54614818096161,9.87422084808350,1.24377608299255,0.10086886584759,-0.25133970379829
443,1796862795,3.10329890251160,0.35041993856430,16.01782226562500,-0.05435445532203,0.52599859237671,9.84473705291748,1.30860555171967,-0.00055070605595,-0.43768322467804
444,1796871128,3.10325074195862,0.35039690136909,16.01631927490234,-0.06537698209286,0.52662807703018,9.85026550292969,1.27676701545715,0.07169424742460,-0.33046206831932
445,1796879461,3.10268211364746,0.35117653012276,16.01625823974609,-0.06861722469330,0.52908861637115,9.86683940887451,1.21560025215149,0.16715848445892,-0.34001615643501
446,1796887794,3.10260462760925,0.35106950998306,16.01583480834961,-0.07672139257193,0.53659909963608,9.83250522613525,1.27389812469482,0.05965555459261,-0.35215726494789
447,1796896127,3.10214614868164,0.35132429003716,16.01589202880859,-0.08147088438272,0.54054033756256,9.85477256774902,1.22897100448608,0.10486467927694,-0.32165074348450
448,1796904460,3.10143089294434,0.35147067904472,16.01570510864258,-0.07745073735714,0.53687816858292,9.82832908630371,1.19705569744110,0.09418353438377,-0.30533447861671
449,1796912793,3.10163140296936,0.35100308060646,16.01578903198242,-0.09343029558659,0.54031866788864,9.84713459014893,1.30788838863373,0.01849347539246,-0.31509345769882
450,1796921126,3.10057735443115,0.35116028785706,16.01575469970703,-0.06549858301878,0.52345222234726,9.85941410064697,1.15609848499298,0.09561793506145,-0.29160523414612
451,1796929459,3.09994983673096,0.35131213068962,16.01593971252441,-0.05599270388484,0.53746455907822,9.83450698852539,1.20840287208557,0.09364564716816,-0.30543696880341
452,1796937792,3.09933876991272,0.35213869810104,16.01411628723145,-0.02908345870674,0.53502547740936,9.82977294921875,1.21014451980591,0.16654376685619,-0.46483430266380
453,1796946125,3.09990715980530,0.35188636183739,16.01389694213867,-0.03994862735271,0.54684197902679,9.87314033508301,1.35230350494385,0.04262208938599,-0.35228535532951
454,1796954458,3.10018038749695,0.35170567035675,16.01344871520996,-0.04515589773655,0.51895308494568,9.86120223999023,1.31585443019867,0.05194566771388,-0.33663508296013
455,1796962791,3.10116028785706,0.35175973176956,16.01401138305664,-0.03358987346292,0.53482514619827,9.83638763427734,1.40109860897064,0.08370731770992,-0.26068887114525
456,1796971124,3.10108518600464,0.35181677341461,16.01542472839355,-0.03517768159509,0.53797960281372,9.84560203552246,1.27359092235565,0.08614066243172,-0.24742069840431
457,1796979457,3.10128927230835,0.35170415043831,16.01562881469727,-0.05705823004246,0.54144161939621,9.85163211822510,1.30829823017120,0.06221697479486,-0.30162042379379
458,1796987790,3.10082960128784,0.35216069221497,16.01543807983398,-0.05099977180362,0.54491788148880,9.86809825897217,1.22751092910767,0.12971048057079,-0.32539039850235
459,1796996123,3.10030078887939,0.35274749994278,16.01583290100098,-0.07197190821171,0.53081965446472,9.84124660491943,1.22028768062592,0.14789658784866,-0.28340870141983
460,1797004456,3.10020661354065,0.35228753089905,16.01490974426270,-0.08449669182301,0.54222118854523,9.82940673828125,1.27141380310059,0.01700785383582,-0.35233661532402
461,1797012789,3.10006380081177,0.35177037119865,16.01513671875000,-0.09312286227942,0.52692848443985,9.84449386596680,1.26677763462067,0.01475380081683,-0.29657441377640
462,1797021122,3.10068488121033,0.35163164138794,16.01506233215332,-0.06262314319611,0.55378741025925,9.86073017120361,1.35701644420624,0.06003975868225,-0.30712747573853
463,1797029455,3.10086679458618,0.35134613513947,16.01512718200684,-0.08633481711149,0.54976749420166,9.82931518554688,1.30571103096008,0.04006065800786,-0.31732195615768
464,1797037788,3.10138368606567,0.35139930248260,16.01469421386719,-0.07283739745617,0.54940986633301,9.85999393463135,1.34490108489990,0.08127397298813,-0.32733711600304
465,1797046121,3.10136365890503,0.35120528936386,16.01460075378418,-0.05996958538890,0.53588378429413,9.85270404815674,1.28158259391785,0.05030634999275,-0.33783891797066
466,1797054454,3.10086345672607,0.35154297947884,16.01662254333496,-0.05290242657065,0.52713590860367,9.88092327117920,1.22282373905182,0.11726196855307,-0.29962256550789
467,1797062787,3.10059046745300,0.35156291723251,16.01740837097168,-0.04516305029392,0.53840166330338,9.86864185333252,1.25058948993683,0.08173502236605,-0.23248760402203
468,1797071120,3.10082674026489,0.35161787271500,16.01971626281738,-0.05383944883943,0.54898786544800,9.86215400695801,1.31111574172974,0.08132518827915,-0.32861781120300
469,1797079453,3.10112857818604,0.35269168019295,16.01972770690918,-0.05312431231141,0.52870231866837,9.83982181549072,1.32023453712463,0.20265981554985,-0.33322837948799
470,1797087786,3.10209131240845,0.35295253992081,16.02146148681641,-0.05317423492670,0.54777187108994,9.85412120819092,1.39822983741760,0.10860434919596,-0.29890531301498
471,1797096119,3.10169458389282,0.35305646061897,16.02254486083984,-0.07026969641447,0.54330843687057,9.86298274993896,1.23557937145233,0.09415791928768,-0.19883047044277
472,1797104452,3.10150051116943,0.35317480564117,16.02368164062500,-0.05803840234876,0.54020410776138,9.86218833923340,1.25883722305298,0.09146842360497,-0.27651846408844
473,1797112785,3.10190343856812,0.35428184270859,16.02313613891602,-0.06609226763248,0.54529696702957,9.83312797546387,1.33265733718872,0.20332579314709,-0.40072187781334
474,1797121118,3.10231304168701,0.35420390963554,16.02297019958496,-0.06741554290056,0.56478130817413,9.86584472656250,1.33204257488251,0.06754474341869,-0.29975059628487
475,1797129451,3.10220456123352,0.35418212413788,16.02283096313477,-0.06379620730877,0.53966766595840,9.83203315734863,1.27105522155762,0.07077213376760,-0.34334599971771
476,1797137784,3.10184407234192,0.35380372405052,16.02306747436523,-0.07211521267891,0.53311562538147,9.83136653900146,1.23929369449615,0.03109568357468,-0.30187660455704
477,1797146117,3.10141801834106,0.35372757911682,16.02356910705566,-0.08607753366232,0.52031916379929,9.84499263763428,1.23242890834808,0.06764719635248,-0.26560679078102
478,1797154450,3.10138392448425,0.35370573401451,16.02151107788086,-0.07242253422737,0.52943915128708,9.85075950622559,1.27835536003113,0.07512655109167,-0.26263558864594
479,1797162783,3.10109877586365,0.35376879572868,16.02169799804688,-0.07424651086330,0.53603404760361,9.84008693695068,1.24964165687561,0.08329749107361,-0.30469414591789
480,1797171116,3.10106468200684,0.35381975769997,16.02211189270020,-0.08376694470644,0.53981792926788,9.82749843597412,1.27881622314453,0.08147887140512,-0.33463716506958
481,1797179449,3.10174894332886,0.35438099503517,16.02152633666992,-0.04625743627548,0.54591929912567,9.84168243408203,1.36649382114410,0.13752281665802,-0.40067064762115
482,1797187782,3.10255813598633,0.35365986824036,16.02172470092773,-0.05421139672399,0.52187144756317,9.85234737396240,1.37955701351166,-0.01025850046426,-0.30203023552895
483,1797196115,3.10295081138611,0.35339072346687,16.02194404602051,-0.04939766973257,0.53913116455078,9.84058666229248,1.33081316947937,0.04292945563793,-0.29918706417084
484,1797204448,3.10366344451904,0.35376518964767,16.02168655395508,-0.04566374793649,0.54250019788742,9.84053802490234,1.36810743808746,0.12148831039667,-0.29624143242836
485,1797212781,3.10346269607544,0.35404911637306,16.02157211303711,-0.02644406072795,0.55599761009216,9.89984226226807,1.26004099845886,0.10729802399874,-0.34145057201385
486,1797221114,3.10375738143921,0.35350096225739,16.02161788940430,-0.05934713780880,0.55012512207031,9.87586593627930,1.31810843944550,0.00740251364186,-0.37613222002983
487,1797229447,3.10346269607544,0.35268995165825,16.02171897888184,-0.05406860262156,0.53637731075287,9.85776805877686,1.24848902225494,-0.02327053062618,-0.30909976363182
488,1797237780,3.10376191139221,0.35253739356995,16.02108001708984,-0.05969047546387,0.54191368818283,9.84156131744385,1.31882560253143,0.05422532558441,-0.35763874650002
489,1797246113,3.10329985618591,0.35302293300629,16.02114486694336,-0.05726566165686,0.52507591247559,9.86369895935059,1.22843289375305,0.13275855779648,-0.32361021637917
490,1797254446,3.10330128669739,0.35402187705040,16.02159881591797,-0.05354632809758,0.54860866069794,9.86353302001953,1.28283774852753,0.19469380378723,-0.33645579218864
491,1797262779,3.10287308692932,0.35330870747566,16.02175903320312,-0.07569113373756,0.54182791709900,9.83742809295654,1.23248016834259,-0.00964375957847,-0.30333656072617
492,1797271112,3.10233855247498,0.35328188538551,16.02134323120117,-0.06677894294262,0.54903793334961,9.87252521514893,1.21867406368256,0.06713490933180,-0.39354991912842
493,1797279445,3.10213351249695,0.35319197177887,16.02153015136719,-0.05975484848022,0.50102090835571,9.84049510955811,1.25924694538116,0.06470155715942,-0.30384883284569
494,1797287778,3.10199928283691,0.35357192158699,16.02122688293457,-0.07036948949099,0.52796572446823,9.83907985687256,1.26721286773682,0.11646792292595,-0.41181284189224
495,1797296111,3.10218763351440,0.35430440306664,16.02186012268066,-0.06330970674753,0.50845992565155,9.84254932403564,1.30601847171783,0.16557039320469,-0.25587341189384
496,1797304444,3.10197830200195,0.35426196455956,16.02211952209473,-0.05470494180918,0.56507462263107,9.83950042724609,1.25760757923126,0.06949141621590,-0.33804386854172
497,1797312777,3.10201191902161,0.35398647189140,16.02219963073730,-0.06645706295967,0.53731441497803,9.85370635986328,1.28778123855591,0.04082909226418,-0.31660476326942
498,1797321110,3.10196542739868,0.35394471883774,16.02258491516113,-0.05079948902130,0.54318690299988,9.87567234039307,1.27745866775513,0.07166863232851,-0.29549860954285
499,1797329443,3.10255455970764,0.35297918319702,16.02265739440918,-0.04211593791842,0.51398897171021,9.83787727355957,1.35458326339722,-0.04143102839589,-0.31263455748558
500,1797337776,3.10190534591675,0.35331222414970,16.02369308471680,-0.04262379184365,0.53123450279236,9.83171844482422,1.20407378673553,0.12328131496906,-0.18566477298737
501,1797346109,3.10121297836304,0.35417687892914,16.02419853210449,-0.05572064593434,0.55602622032166,9.88158798217773,1.20056474208832,0.18122071027756,-0.27203598618507
502,1797354442,3.10024690628052,0.35507079958916,16.02459335327148,-0.07247239351273,0.54900228977203,9.84985923767090,1.16619050502777,0.18593372404575,-0.26640087366104
503,1797362775,3.10026192665100,0.35450017452240,16.02392959594727,-0.06474735587835,0.53648477792740,9.85577487945557,1.28632116317749,0.00166492525022,-0.40195134282112
504,1797371108,3.09966921806335,0.35395863652229,16.02210044860840,-0.06678609549999,0.52604150772095,9.82714080810547,1.21147644519806,0.00806848332286,-0.34974956512451
505,1797379441,3.09984779357910,0.35388463735580,16.02192497253418,-0.04160093516111,0.53202843666077,9.85811233520508,1.30550622940063,0.06426610797644,-0.34867376089096
506,1797387774,3.10067582130432,0.35472431778908,16.01928710937500,-0.06820235401392,0.51948237419128,9.81695461273193,1.38176000118256,0.17450979351997,-0.32216304540634
507,1797396107,3.10094404220581,0.35483130812645,16.01888275146484,-0.07211495935917,0.55064731836319,9.84871387481689,1.31646919250488,0.08455258607864,-0.37590169906616
508,1797404440,3.10019850730896,0.35491406917572,16.02025794982910,-0.07220051437616,0.53403133153915,9.84892940521240,1.19370007514954,0.08462942391634,-0.35300257802010
509,1797412773,3.10051894187927,0.35483714938164,16.01975822448730,-0.07438974827528,0.53425294160843,9.84691715240479,1.32279586791992,0.06167907640338,-0.38671094179153
510,1797421106,3.10042834281921,0.35478705167770,16.02054405212402,-0.05294534191489,0.54532557725906,9.79749965667725,1.27146506309509,0.06961949169636,-0.31844899058342
511,1797429439,3.10039687156677,0.35509583353996,16.02128028869629,-0.06256591528654,0.53443896770477,9.82964420318604,1.27961039543152,0.11539212614298,-0.24111960828304
512,1797437772,3.10078406333923,0.35476735234261,16.02043151855469,-0.05791641399264,0.51750826835632,9.80403804779053,1.32922518253326,0.03511711955070,-0.34680396318436
513,1797446105,3.10065031051636,0.35404986143112,16.01997947692871,-0.06119257211685,0.54429560899734,9.86663913726807,1.26823770999908,-0.01492029149085,-0.37761786580086
514,1797454438,3.10064864158630,0.35419112443924,16.02133178710938,-0.04451929405332,0.55103355646133,9.85373497009277,1.28278636932373,0.08913753181696,-0.36867848038673
515,1797462771,3.10123085975647,0.35370716452599,16.02143096923828,-0.06486928462982,0.53715699911118,9.84360504150391,1.35366106033325,0.01618819497526,-0.31330052018166
516,1797471104,3.10140466690063,0.35361582040787,16.02101516723633,-0.04218014329672,0.52549797296524,9.84744930267334,1.30409765243530,0.06080819293857,-0.38484108448029
517,1797479437,3.10142540931702,0.35467976331711,16.02029418945312,-0.02903356961906,0.54484629631042,9.86683750152588,1.28696143627167,0.19610255956650,-0.42039355635643
518,1797487770,3.10088396072388,0.35529145598412,16.02117729187012,-0.04326039552689,0.53984653949738,9.85362052917480,1.21775197982788,0.14833204448223,-0.33266490697861
519,1797496103,3.10060834884644,0.35481971502304,16.02092170715332,-0.05742302164435,0.54544717073441,9.86881351470947,1.25099933147430,0.01616258360445,-0.35466751456261
520,1797504436,3.10010266304016,0.35448074340820,16.01901054382324,-0.06453295052052,0.55708485841751,9.84576702117920,1.22266995906830,0.03073708154261,-0.39813485741615
521,1797512769,3.10000824928284,0.35389497876167,16.01880455017090,-0.07467567920685,0.53270798921585,9.83827781677246,1.27274572849274,0.00176738214213,-0.34736740589142
522,1797521102,3.10014438629150,0.35395124554634,16.01854324340820,-0.06152875348926,0.53172802925110,9.85789775848389,1.29889786243439,0.08345117419958,-0.32800310850143
523,1797529435,3.10048818588257,0.35405829548836,16.01858329772949,-0.07313066720963,0.53409564495087,9.84153938293457,1.32515239715576,0.08698593825102,-0.32323881983757
524,1797537768,3.10092973709106,0.35365623235703,16.01969718933105,-0.08235783129930,0.55237829685211,9.85576629638672,1.33521878719330,0.03191533684731,-0.22864547371864
525,1797546101,3.10094857215881,0.35336670279503,16.01973152160645,-0.07368858903646,0.53426730632782,9.84105968475342,1.28616738319397,0.03944592177868,-0.32134339213371
526,1797554434,3.10141658782959,0.35248818993568,16.02019882202148,-0.05431868880987,0.55531096458435,9.87880611419678,1.33890736103058,-0.03031444363296,-0.32462200522423
527,1797562767,3.10166907310486,0.35205587744713,16.02041625976562,-0.05577058345079,0.53222882747650,9.84553909301758,1.31406140327454,0.02407738007605,-0.29767581820488
528,1797571100,3.10172438621521,0.35260009765625,16.02220344543457,-0.04885406047106,0.54277908802032,9.86801815032959,1.28942048549652,0.13982810080051,-0.32902765274048
529,1797579433,3.10208821296692,0.35270735621452,16.02219390869141,-0.04552069306374,0.54709947109222,9.85516548156738,1.32758581638336,0.08701155334711,-0.32818236947060
530,1797587766,3.10171961784363,0.35180765390396,16.02158927917480,-0.03863965719938,0.55992454290390,9.87229633331299,1.23839724063873,-0.03277341648936,-0.30538576841354
531,1797596099,3.10107541084290,0.35202351212502,16.02215766906738,-0.03331794217229,0.53877359628677,9.87582302093506,1.20635366439819,0.10501836985350,-0.26038148999214
532,1797604432,3.10081386566162,0.35239011049271,16.02148628234863,-0.03884708881378,0.54802936315536,9.85622406005859,1.25128090381622,0.11462368816137,-0.39682850241661
533,1797612765,3.10024499893188,0.35256040096283,16.02112388610840,-0.05243749171495,0.52541923522949,9.85450744628906,1.21603584289551,0.09236492961645,-0.37100940942764
534,1797621098,3.10027432441711,0.35279873013496,16.02145004272461,-0.06633546203375,0.53776502609253,9.85367774963379,1.28625726699829,0.10577399283648,-0.29407703876495
535,1797629431,3.10075283050537,0.35287782549858,16.02140426635742,-0.06525554507971,0.55471003055573,9.84735298156738,1.34141731262207,0.08327187597752,-0.33340767025948
536,1797637764,3.10021424293518,0.35315722227097,16.02101516723633,-0.05861070379615,0.53227156400681,9.84341239929199,1.21831548213959,0.10542818903923,-0.37369886040688
537,1797646097,3.10037183761597,0.35258698463440,16.02095031738281,-0.06090645864606,0.54596221446991,9.85895633697510,1.30289351940155,0.00455933343619,-0.33099991083145
538,1797654430,3.09899187088013,0.35183522105217,16.02156066894531,-0.07444711774588,0.53374505043030,9.81766223907471,1.11770272254944,-0.01919786818326,-0.42643857002258
539,1797662763,3.09876132011414,0.35189208388329,16.02092933654785,-0.08532609045506,0.54927402734756,9.84273433685303,1.25676238536835,0.07679147273302,-0.40325769782066
540,1797671096,3.09871578216553,0.35174092650414,16.02190589904785,-0.05685079470277,0.51991868019104,9.85254001617432,1.27658784389496,0.06173030287027,-0.24475681781769
541,1797679429,3.09808969497681,0.35092362761497,16.02277183532715,-0.05251617357135,0.55133396387100,9.84540176391602,1.20806980133057,-0.01814768463373,-0.21891205012798
542,1797687762,3.09898066520691,0.35127270221710,16.02613067626953,-0.03688005730510,0.54453164339066,9.84066677093506,1.38859879970551,0.12276902049780,-0.21919380128384
543,1797696095,3.09869456291199,0.35118481516838,16.02629470825195,-0.06036999449134,0.54973173141479,9.85230445861816,1.24951350688934,0.06354891508818,-0.30505272746086
544,1797704428,3.09958100318909,0.35134348273277,16.02586555480957,-0.03632944449782,0.53443890810013,9.85226058959961,1.38877809047699,0.09428600221872,-0.33684000372887
545,1797712761,3.09927153587341,0.35130104422569,16.02553558349609,-0.04165815562010,0.52264392375946,9.84571647644043,1.24705457687378,0.06754473596811,-0.36565598845482
546,1797721094,3.09877228736877,0.35196098685265,16.02585411071777,-0.03924022987485,0.52903151512146,9.85509490966797,1.22272109985352,0.15445382893085,-0.32930940389633
547,1797729427,3.09860491752625,0.35260024666786,16.02523231506348,-0.05795250460505,0.51772987842560,9.83053016662598,1.26413929462433,0.14541201293468,-0.40569105744362
548,1797737760,3.09794497489929,0.35319495201111,16.02745246887207,-0.07613468915224,0.52514034509659,9.82754230499268,1.20271635055542,0.15299381315708,-0.21904012560844
549,1797746093,3.09757375717163,0.35269770026207,16.02696990966797,-0.07416782528162,0.54092657566071,9.85966491699219,1.23962640762329,0.01098850648850,-0.38076838850975
550,1797754426,3.10127067565918,0.34756165742874,16.02636909484863,-0.07031244784594,0.50774455070496,9.85324192047119,1.30545508861542,0.04559333249927,-0.28986346721649
551,1797762759,3.10145282745361,0.34754016995430,16.02641868591309,-0.07325927913189,0.52180713415146,9.84124755859375,1.30578815937042,0.07133565098047,-0.32021638751030
552,1797771092,3.10207438468933,0.34772095084190,16.02484893798828,-0.07387471199036,0.51808035373688,9.84257507324219,1.35701644420624,0.09830743074417,-0.31655350327492
553,1797779425,3.10201549530029,0.34814396500587,16.02384567260742,-0.08404590189457,0.55777156352997,9.81790637969971,1.27722823619843,0.11836338043213,-0.44944018125534
554,1797787758,3.10197520256042,0.34821361303329,16.02337837219238,-0.07373150438070,0.54538279771805,9.84775543212891,1.27822721004486,0.08127397298813,-0.37697750329971
555,1797796091,3.10150575637817,0.34804478287697,16.02323722839355,-0.05185811221600,0.54463177919388,9.85436439514160,1.22745966911316,0.05279092863202,-0.34121999144554
556,1797804424,3.10086369514465,0.34797808527946,16.02201652526855,-0.04176545143127,0.51778000593185,9.85380649566650,1.20617413520813,0.05896396934986,-0.48530003428459
557,1797812757,3.10098862648010,0.34831988811493,16.02297210693359,-0.03899729996920,0.52528333663940,9.87243270874023,1.29805254936218,0.12207745015621,-0.21309761703014
558,1797821090,3.10124254226685,0.34859549999237,16.02244186401367,-0.05755876749754,0.53669935464859,9.84036064147949,1.31301128864288,0.10691381245852,-0.35994401574135
559,1797829423,3.10171580314636,0.34869796037674,16.02174949645996,-0.05218714103103,0.53531879186630,9.85275459289551,1.34090507030487,0.08114589005709,-0.41058334708214
560,1797837756,3.10170793533325,0.34857243299484,16.02133941650391,-0.03568567335606,0.52164959907532,9.84201717376709,1.28171074390411,0.06108994781971,-0.32344374060631
561,1797846089,3.10220313072205,0.34865757822990,16.02172470092773,-0.05107129737735,0.53318005800247,9.85578060150146,1.34274935722351,0.08634558320045,-0.28228166699409
562,1797854422,3.10215377807617,0.34867188334465,16.02210426330566,-0.05158613994718,0.53393834829330,9.84641170501709,1.27712559700012,0.07451180368662,-0.37216198444366
563,1797862755,3.10297703742981,0.34852123260498,16.02162170410156,-0.06377474963665,0.52132064104080,9.85837745666504,1.38286125659943,0.05353374779224,-0.38402143120766
564,1797871088,3.10319590568542,0.34856873750687,16.02113342285156,-0.08173541724682,0.55141991376877,9.84962368011475,1.30814468860626,0.08421961218119,-0.26873177289963
565,1797879421,3.10248947143555,0.34846788644791,16.02134704589844,-0.07602731883526,0.54311543703079,9.82848644256592,1.19889986515045,0.06421488523483,-0.30105689167976
566,1797887754,3.10164308547974,0.34929010272026,16.02239418029785,-0.06715804338455,0.53956753015518,9.83884239196777,1.18114924430847,0.17335714399815,-0.34624037146568
567,1797896087,3.10196447372437,0.34981635212898,16.02189636230469,-0.06616380065680,0.51532655954361,9.83872795104980,1.32256531715393,0.13375753164291,-0.39032250642776
568,1797904420,3.10207056999207,0.35024884343147,16.02259254455566,-0.05665778368711,0.52389562129974,9.83522891998291,1.29482507705688,0.13073505461216,-0.26532503962517
569,1797912753,3.10186934471130,0.35089683532715,16.02301025390625,-0.05952619388700,0.53958892822266,9.82513713836670,1.25924694538116,0.15427452325821,-0.28053987026215
570,1797921086,3.10250115394592,0.35105910897255,16.02309799194336,-0.05037747323513,0.53717136383057,9.84658241271973,1.35786175727844,0.10020288825035,-0.22769773006439
571,1797929419,3.10209918022156,0.35111919045448,16.02273750305176,-0.04931854084134,0.55417370796204,9.84016036987305,1.23568201065063,0.07968588173389,-0.37147042155266
572,1797937752,3.10185074806213,0.35138648748398,16.02276039123535,-0.03517795726657,0.54112678766251,9.87545013427734,1.25274085998535,0.10673451423645,-0.32311075925827
573,1797946085,3.10205245018005,0.35210224986076,16.02237129211426,-0.02756007015705,0.52973234653473,9.86877632141113,1.30819571018219,0.15860332548618,-0.37782275676727
574,1797954418,3.10154652595520,0.35296270251274,16.02223014831543,-0.04966934025288,0.52521896362305,9.83012390136719,1.22174775600433,0.17550872266293,-0.36962616443634
575,1797962751,3.10185360908508,0.35319727659225,16.02260208129883,-0.06731553375721,0.55817204713821,9.82885646820068,1.32028567790985,0.10553064942360,-0.28281956911087
576,1797971084,3.10216426849365,0.35315191745758,16.02117729187012,-0.06260899454355,0.54712802171707,9.84980010986328,1.32036256790161,0.06846684962511,-0.35144013166428
577,1797979417,3.10260510444641,0.35327899456024,16.02074241638184,-0.05736580118537,0.54644143581390,9.85308361053467,1.33683264255524,0.08667857944965,-0.37892419099808
578,1797987750,3.10224986076355,0.35335567593575,16.01933860778809,-0.05858161672950,0.55554705858231,9.85715389251709,1.24072790145874,0.08058238029480,-0.40594717860222
579,1797996083,3.10164880752563,0.35354617238045,16.01969337463379,-0.06241570785642,0.53735733032227,9.85759735107422,1.21122026443481,0.09925515204668,-0.28666171431541
580,1798004416,3.10169243812561,0.35361218452454,16.02013778686523,-0.04765939339995,0.55103355646133,9.82313537597656,1.28816545009613,0.07935290038586,-0.38681337237358
581,1798012749,3.10122299194336,0.35320055484772,16.02019882202148,-0.07644958794117,0.54059040546417,9.82643985748291,1.22722935676575,0.02566546574235,-0.31724512577057
582,1798021082,3.10114645957947,0.35382598638535,16.02051925659180,-0.05994082242250,0.55588316917419,9.84896373748779,1.27312994003296,0.15478681027889,-0.26424923539162
583,1798029415,3.10212159156799,0.35281196236610,16.02016448974609,-0.05897518992424,0.53202128410339,9.84525871276855,1.40084266662598,-0.04988372325897,-0.36281284689903
584,1798037748,3.10207295417786,0.35289016366005,16.02051925659180,-0.04600721597672,0.55508202314377,9.84263229370117,1.27638292312622,0.08693470060825,-0.30264499783516
585,1798046081,3.10228562355042,0.35364258289337,16.02023696899414,-0.04254510998726,0.51828783750534,9.83619594573975,1.30932295322418,0.16303461790085,-0.36616834998131
586,1798054414,3.10185837745667,0.35343092679977,16.02088928222656,-0.06222258135676,0.54265755414963,9.85818386077881,1.23102009296417,0.05084425583482,-0.29011961817741
587,1798062747,3.10271334648132,0.35285440087318,16.02095794677734,-0.05482639372349,0.52514034509659,9.86031723022461,1.38637042045593,0.00668531516567,-0.31478613615036
588,1798071080,3.10278916358948,0.35293203592300,16.02018356323242,-0.04673649743199,0.54513251781464,9.82638359069824,1.29226374626160,0.07986517995596,-0.41142863035202
589,1798079413,3.10300493240356,0.35322606563568,16.01865959167480,-0.05675758048892,0.53362363576889,9.84760665893555,1.31068038940430,0.10043341666460,-0.51273292303085
590,1798087746,3.10331296920776,0.35295805335045,16.01783561706543,-0.05178670957685,0.51094180345535,9.84944248199463,1.31900501251221,0.04646421968937,-0.27982267737389
591,1798096079,3.10377430915833,0.35317447781563,16.01806449890137,-0.05358194559813,0.52820169925690,9.87059402465820,1.33877944946289,0.10038219392300,-0.30118498206139
592,1798104412,3.10338521003723,0.35319307446480,16.01845550537109,-0.08084858208895,0.52336639165878,9.84304904937744,1.23588681221008,0.08101782202721,-0.26458224654198
593,1798112745,3.10300827026367,0.35330164432526,16.01806449890137,-0.07936794310808,0.55684882402420,9.86336231231689,1.23867869377136,0.08606382459402,-0.37439042329788
594,1798121078,3.10281848907471,0.35323500633240,16.01696395874023,-0.05769483000040,0.52556228637695,9.82944393157959,1.25970804691315,0.06826192885637,-0.31120011210442
595,1798129411,3.10287880897522,0.35332307219505,16.01678657531738,-0.07331664115191,0.53542608022690,9.84121036529541,1.29095768928528,0.08283644169569,-0.34887874126434
596,1798137744,3.10300254821777,0.35356715321541,16.01702880859375,-0.06153590977192,0.52458232641220,9.84921455383301,1.29754006862640,0.10176534950733,-0.38607051968575
597,1798146077,3.10227179527283,0.35466396808624,16.01681900024414,-0.04100724682212,0.53670644760132,9.83101749420166,1.19603097438812,0.20414544641972,-0.36027699708939
598,1798154410,3.10298418998718,0.35442459583282,16.01752090454102,-0.05366778001189,0.55616933107376,9.85985088348389,1.36767196655273,0.05048565194011,-0.27024298906326
599,1798162743,3.10278224945068,0.35392183065414,16.01792335510254,-0.05610689893365,0.53964620828629,9.83473014831543,1.25909340381622,0.01634188182652,-0.27674901485443
600,1798171076,3.10254287719727,0.35331839323044,16.01845550537109,-0.05528432503343,0.54812949895859,9.84422206878662,1.25361192226410,0.00394459208474,-0.29339826107025
601,1798179409,3.10233569145203,0.35305342078209,16.01792335510254,-0.05662889033556,0.53284388780594,9.85406398773193,1.25922155380249,0.03957399725914,-0.38927233219147
602,1798187742,3.10238790512085,0.35304892063141,16.01707839965820,-0.06283772736788,0.54576909542084,9.86213207244873,1.28931808471680,0.07125879824162,-0.39675167202950
603,1798196075,3.10257387161255,0.35369122028351,16.01740837097168,-0.07682153582573,0.52247226238251,9.84234809875488,1.30558323860168,0.15260961651802,-0.29257860779762
604,1798204408,3.10281586647034,0.35386443138123,16.01714897155762,-0.06916799396276,0.54681336879730,9.85453605651855,1.31129515171051,0.10163728892803,-0.24665230512619
605,1798212741,3.10325336456299,0.35361537337303,16.01658439636230,-0.05855317413807,0.55054003000259,9.83782005310059,1.33647394180298,0.03934346511960,-0.39329373836517
606,1798221074,3.10371685028076,0.35301196575165,16.01527023315430,-0.04713008180261,0.55669146776199,9.84141826629639,1.33813881874084,0.00402143504471,-0.31409457325935
607,1798229407,3.10403633117676,0.35256338119507,16.01433181762695,-0.06664303690195,0.54775041341782,9.83734035491943,1.32266795635223,0.01506117079407,-0.43663302063942
608,1798237740,3.10422682762146,0.35257354378700,16.01481056213379,-0.04603581130505,0.51232945919037,9.84366226196289,1.30489158630371,0.07930167019367,-0.25710287690163
609,1798246073,3.10386610031128,0.35214787721634,16.01466560363770,-0.05728711932898,0.54930973052979,9.85882759094238,1.24029242992401,0.02246368303895,-0.34183478355408
610,1798254406,3.10411882400513,0.35176655650139,16.01510238647461,-0.04829599708319,0.53723573684692,9.83015251159668,1.31275510787964,0.03219709545374,-0.28494554758072
611,1798262739,3.10492348670959,0.35231718420982,16.01493644714355,-0.03057824075222,0.57234913110733,9.83176994323730,1.38029980659485,0.13949511945248,-0.35141450166702
612,1798271072,3.10494589805603,0.35195004940033,16.01558113098145,-0.05471209436655,0.50217247009277,9.87352657318115,1.28552734851837,0.02909776940942,-0.35692155361176
613,1798279405,3.10521245002747,0.35216867923737,16.01602172851562,-0.03790291398764,0.54869461059570,9.87035083770752,1.31526529788971,0.10401940345764,-0.27610865235329
614,1798287738,3.10487318038940,0.35211732983589,16.01516151428223,-0.07117078453302,0.50062030553818,9.83295631408691,1.24193167686462,0.06600788235664,-0.37172657251358
615,1798296071,3.10499310493469,0.35165444016457,16.01538658142090,-0.07109210640192,0.54231423139572,9.84265518188477,1.29795014858246,0.02177209779620,-0.29818812012672
616,1798304404,3.10505056381226,0.35156065225601,16.01633071899414,-0.07706473022699,0.55463147163391,9.86166763305664,1.28988170623779,0.05968116596341,-0.39869838953018
617,1798312737,3.10444283485413,0.35180336236954,16.01561164855957,-0.05288812145591,0.55717068910599,9.87397003173828,1.21127164363861,0.09986991435289,-0.41463041305542
618,1798321070,3.10444450378418,0.35153520107269,16.01058769226074,-0.06931819766760,0.53966051340103,9.88218879699707,1.28370857238770,0.03212024644017,-0.50947993993759
619,1798329403,3.10539221763611,0.35188972949982,16.01046943664551,-0.08182120323181,0.51972562074661,9.83330726623535,1.39743578433990,0.11552019417286,-0.34406319260597
620,1798337736,3.10641217231750,0.35169449448586,16.01299667358398,-0.05592092499137,0.56287151575089,9.84435081481934,1.40481269359589,0.05245795845985,-0.33286979794502
621,1798346069,3.10657477378845,0.35165882110596,16.01309776306152,-0.04696556553245,0.52605581283569,9.83252716064453,1.30309855937958,0.07136125862598,-0.31476050615311
622,1798354402,3.10639715194702,0.35220840573311,16.01307487487793,-0.03924765065312,0.56608313322067,9.86025810241699,1.26132166385651,0.13762527704239,-0.38125503063202
623,1798362735,3.10678720474243,0.35192933678627,16.01325035095215,-0.05579217523336,0.53555482625961,9.84018707275391,1.33017277717590,0.04190488532186,-0.30443796515465
624,1798371068,3.10661649703979,0.35148382186890,16.01183509826660,-0.04776668548584,0.54364466667175,9.84763336181641,1.26175713539124,0.02338579669595,-0.29432037472725
625,1798379401,3.10628223419189,0.35163053870201,16.01071548461914,-0.04265240207314,0.52327340841293,9.84060192108154,1.24431395530701,0.08488557487726,-0.46137639880180
626,1798387734,3.10582494735718,0.35235765576363,16.01319503784180,-0.04484832659364,0.55474591255188,9.87167453765869,1.22751092910767,0.16695356369019,-0.26514571905136
627,1798396067,3.10708260536194,0.35213202238083,16.01248359680176,-0.06957570463419,0.53376662731171,9.85786247253418,1.43498623371124,0.04187927395105,-0.41060897707939
628,1798404400,3.10737681388855,0.35245504975319,16.01270675659180,-0.06740135699511,0.54358023405075,9.84715270996094,1.31772434711456,0.11826091259718,-0.25764077901840
629,1798412733,3.10722756385803,0.35276597738266,16.01178169250488,-0.04122880101204,0.55226391553879,9.84693431854248,1.26647019386292,0.10619661957026,-0.43965551257133
630,1798421066,3.10772657394409,0.35196435451508,16.01118659973145,-0.07262996584177,0.50546282529831,9.87761878967285,1.34218597412109,-0.02063226699829,-0.31778299808502
631,1798429399,3.10809779167175,0.35165694355965,16.01156806945801,-0.06843125075102,0.55749970674515,9.86386299133301,1.32786750793457,0.03970206156373,-0.27979707717896
632,1798437732,3.10749626159668,0.35199064016342,16.01129531860352,-0.07343797385693,0.52071988582611,9.80655574798584,1.21017003059387,0.11536651104689,-0.32879713177681
633,1798446065,3.10735440254211,0.35264635086060,16.01180839538574,-0.06879604607821,0.55215656757355,9.89248180389404,1.26621413230896,0.15545280277729,-0.26911595463753
634,1798454398,3.10738372802734,0.35297060012817,16.01171302795410,-0.06105650588870,0.55183476209641,9.85174083709717,1.28601384162903,0.11324052512646,-0.37405750155449
635,1798462731,3.10714030265808,0.35231217741966,16.01211547851562,-0.05548483878374,0.54133421182632,9.83246135711670,1.25409865379333,-0.00311212940142,-0.27513527870178
636,1798471064,3.10745239257812,0.35212454199791,16.01132202148438,-0.05210130661726,0.53200697898865,9.86100196838379,1.32028567790985,0.05089548602700,-0.37446728348732
637,1798479397,3.10774469375610,0.35219007730484,16.01207733154297,-0.04399008676410,0.52877384424210,9.84027194976807,1.31821084022522,0.08655048906803,-0.23722621798515
638,1798487730,3.10825943946838,0.35160788893700,16.01202201843262,-0.04867509752512,0.54920959472656,9.81196212768555,1.34446549415588,0.00540460320190,-0.31368473172188
639,1798496063,3.10889053344727,0.35105359554291,16.01281547546387,-0.03367558494210,0.53928858041763,9.86775493621826,1.35878384113312,0.01383168622851,-0.22818440198898
640,1798504396,3.10884332656860,0.35033705830574,16.01260757446289,-0.04614286497235,0.57315021753311,9.84402275085449,1.27692079544067,-0.00867041852325,-0.28865963220596
641,1798512729,3.10887980461121,0.35010838508606,16.01191329956055,-0.07111356407404,0.52650648355484,9.82881450653076,1.28849840164185,0.04339051619172,-0.40879037976265
642,1798521062,3.10875988006592,0.35019496083260,16.00881576538086,-0.06506226211786,0.54842990636826,9.85542297363281,1.26759719848633,0.08114589750767,-0.37467223405838
643,1798529395,3.10863327980042,0.35041347146034,16.00908660888672,-0.07708618789911,0.51990437507629,9.85751152038574,1.26828873157501,0.10191904008389,-0.29531931877136
644,1798537728,3.10811448097229,0.35073569417000,16.01022338867188,-0.07921089231968,0.54248583316803,9.85128021240234,1.22103059291840,0.11298438906670,-0.37989750504494
645,1798546061,3.10759043693542,0.35108360648155,16.00944328308105,-0.06074158847332,0.55701345205307,9.89005088806152,1.22133803367615,0.11083280295134,-0.42262208461761
646,1798554394,3.10811734199524,0.35066881775856,16.00975227355957,-0.07225787639618,0.52270120382309,9.86064624786377,1.34569501876831,0.02499949187040,-0.31140503287315
647,1798562727,3.10889458656311,0.35076883435249,16.00953674316406,-0.08388154953718,0.54529690742493,9.83807659149170,1.37709808349609,0.08547469228506,-0.35277202725410
648,1798571060,3.10941648483276,0.35074844956398,16.00992393493652,-0.08330187946558,0.50939691066742,9.85603904724121,1.34474742412567,0.07656094431877,-0.27385458350182
649,1798579393,3.10972976684570,0.35153526067734,16.00950241088867,-0.05645738914609,0.55905187129974,9.88187408447266,1.32151520252228,0.16595463454723,-0.38286879658699
650,1798587726,3.10995292663574,0.35200658440590,16.01024627685547,-0.04577091336250,0.54886633157730,9.84787082672119,1.30873346328735,0.13304033875465,-0.29813688993454
651,1798596059,3.10966134071350,0.35279515385628,16.01053810119629,-0.04477704316378,0.54317963123322,9.84916305541992,1.24838650226593,0.17018096148968,-0.29654878377914
652,1798604392,3.10894918441772,0.35312321782112,16.00941658020020,-0.03768117725849,0.52392429113388,9.85145282745361,1.19756805896759,0.11213912814856,-0.37462103366852
653,1798612725,3.10869979858398,0.35340628027916,16.00949478149414,-0.02450563944876,0.52966088056564,9.85680389404297,1.25379121303558,0.10983382910490,-0.31952473521233
654,1798621058,3.10921645164490,0.35355660319328,16.00992584228516,-0.04416165128350,0.51833075284958,9.86005115509033,1.34438872337341,0.09379933029413,-0.30290111899376
655,1798629391,3.10862755775452,0.35396915674210,16.01078987121582,-0.04967649281025,0.52043372392654,9.86556625366211,1.21239840984344,0.13055574893951,-0.22657071053982
656,1798637724,3.10784769058228,0.35441491007805,16.01065826416016,-0.06786617636681,0.55236399173737,9.84727573394775,1.18955075740814,0.12243605405092,-0.43993726372719
657,1798646057,3.10728621482849,0.35414847731590,16.00970077514648,-0.07927495986223,0.53331595659256,9.84078121185303,1.21688103675842,0.03583431616426,-0.44083377718925
658,1798654390,3.10728049278259,0.35420548915863,16.01070213317871,-0.07710777223110,0.53824418783188,9.84630870819092,1.28122401237488,0.08334871381521,-0.29585719108582
659,1798662723,3.10708642005920,0.35339316725731,16.01108169555664,-0.08242221176624,0.53747892379761,9.87001514434814,1.26014339923859,-0.01968453638256,-0.27539142966270
660,1798671056,3.10758042335510,0.35234975814819,16.01148986816406,-0.07916766405106,0.54232853651047,9.84067344665527,1.34205770492554,-0.05011424422264,-0.31965279579163
661,1798679389,3.10729241371155,0.35282456874847,16.01177406311035,-0.09288682043552,0.54332280158997,9.88296890258789,1.24897575378418,0.13403928279877,-0.29588285088539
662,1798687722,3.10715937614441,0.35240122675896,16.01179504394531,-0.06700052320957,0.53473943471909,9.85980224609375,1.26657271385193,0.02169525437057,-0.36132720112801
663,1798696055,3.10727095603943,0.35270425677299,16.01133918762207,-0.05278798192739,0.52930325269699,9.86821937561035,1.29738652706146,0.10791277140379,-0.38407260179520
664,1798704388,3.10759019851685,0.35287609696388,16.01118278503418,-0.02781025320292,0.53214287757874,9.84017276763916,1.32031130790710,0.09894778579473,-0.26793771982193
665,1798712721,3.10752177238464,0.35279291868210,16.01125335693359,-0.03048541583121,0.52700716257095,9.83791255950928,1.27535831928253,0.06616156548262,-0.31921738386154
666,1798721054,3.10732221603394,0.35325139760971,16.01221847534180,-0.02788178250194,0.53529733419418,9.85093784332275,1.25845301151276,0.13403928279877,-0.24831718206406
667,1798729387,3.10763645172119,0.35313045978546,16.01337623596191,-0.03312481567264,0.54542571306229,9.84036636352539,1.32046496868134,0.06733982264996,-0.18668934702873
668,1798737720,3.10713481903076,0.35272628068924,16.01435852050781,-0.03688005730510,0.54315114021301,9.85661029815674,1.22179901599884,0.02863671258092,-0.29985302686691
669,1798746053,3.10657095909119,0.35359227657318,16.01369667053223,-0.05579251423478,0.53684931993484,9.86747455596924,1.21629190444946,0.17289608716965,-0.41268375515938
670,1798754386,3.10607671737671,0.35418519377708,16.01048278808594,-0.06357447057962,0.53302270174026,9.88190269470215,1.22279775142670,0.14963835477829,-0.28371605277061
671,1798762719,3.10647702217102,0.35434022545815,16.01095008850098,-0.06225107237697,0.53755766153336,9.85993099212646,1.33129978179932,0.09525933116674,-0.27139559388161
672,1798771052,3.10658001899719,0.35462784767151,16.01086235046387,-0.06964007765055,0.54669177532196,9.83832073211670,1.29479956626892,0.10891172289848,-0.35768994688988
673,1798779385,3.10596656799316,0.35431107878685,16.01027488708496,-0.07935363799334,0.53693532943726,9.86715412139893,1.21040058135986,0.03147989138961,-0.39480498433113
674,1798787718,3.10624837875366,0.35513913631439,16.00990486145020,-0.08718615025282,0.55614060163498,9.86258220672607,1.31649470329285,0.17476592957973,-0.33822315931320
675,1798796051,3.10585308074951,0.35577633976936,16.00990867614746,-0.06001235172153,0.54197806119919,9.83913612365723,1.23624539375305,0.15022747218609,-0.32977044582367
676,1798804384,3.10516571998596,0.35556289553642,16.01048278808594,-0.07028358429670,0.53344476222992,9.84238433837891,1.19933521747589,0.05112601071596,-0.30551376938820
677,1798812717,3.10475873947144,0.35564351081848,16.01049041748047,-0.06416100263596,0.54395222663879,9.83894252777100,1.23496460914612,0.08452697098255,-0.32641497254372
678,1798821050,3.10445690155029,0.35609415173531,16.01176643371582,-0.04480540752411,0.53867346048355,9.83445072174072,1.24528741836548,0.13685685396194,-0.20377404987812
679,1798829383,3.10439753532410,0.35622391104698,16.01288032531738,-0.03317471966147,0.53494685888290,9.81183528900146,1.27564013004303,0.09592530876398,-0.19527013599873
680,1798837716,3.10367846488953,0.35656905174255,16.01292037963867,-0.05160060897470,0.53400981426239,9.82662582397461,1.19674825668335,0.11636546999216,-0.35313066840172
681,1798846049,3.10322189331055,0.35591870546341,16.01269531250000,-0.03469128906727,0.53473937511444,9.85365676879883,1.22902226448059,-0.00495635438710,-0.34977519512177
682,1798854382,3.10318922996521,0.35561662912369,16.01288986206055,-0.03421920165420,0.51958250999451,9.86005783081055,1.27835512161255,0.03934346139431,-0.30331096053123
683,1798862715,3.10344791412354,0.35599306225777,16.01326179504395,-0.05637883022428,0.54399508237839,9.85231781005859,1.31449687480927,0.12264096736908,-0.28366482257843
684,1798871048,3.10386610031128,0.35599312186241,16.01329612731934,-0.04885391891003,0.55305063724518,9.84141826629639,1.33252930641174,0.07743182778358,-0.28161570429802
685,1798879381,3.10431027412415,0.35617813467979,16.01370620727539,-0.05471936985850,0.55161285400391,9.84492874145508,1.33662760257721,0.09856357425451,-0.27956658601761
686,1798887714,3.10413980484009,0.35620161890984,16.01131057739258,-0.06480495631695,0.52066254615784,9.85809135437012,1.26255118846893,0.07274442166090,-0.43855410814285
687,1798896047,3.10403275489807,0.35574388504028,16.01125335693359,-0.07880987972021,0.51076310873032,9.85954475402832,1.27085041999817,0.01903137750924,-0.33164033293724
688,1798904380,3.10297322273254,0.35544511675835,16.01202201843262,-0.07071300595999,0.54323697090149,9.85707569122314,1.15571427345276,0.03913854807615,-0.34462672472000
689,1798912713,3.10255575180054,0.35479098558426,16.01156616210938,-0.06653574854136,0.53409564495087,9.84355640411377,1.23399114608765,-0.00790199078619,-0.37772026658058
690,1798921046,3.10242223739624,0.35467389225960,16.01349258422852,-0.06976883113384,0.53287965059280,9.87454986572266,1.26518940925598,0.07010615617037,-0.18917392194271
691,1798929379,3.10223579406738,0.35464593768120,16.01432037353516,-0.05444744229317,0.54911661148071,9.85100936889648,1.26063013076782,0.07609988749027,-0.22669878602028
692,1798937712,3.10279679298401,0.35480958223343,16.01274681091309,-0.04335316270590,0.55369448661804,9.84897994995117,1.35089468955994,0.08629435300827,-0.48355829715729
693,1798946045,3.10329604148865,0.35467863082886,16.01202011108398,-0.05295984074473,0.53049051761627,9.85337638854980,1.34408152103424,0.05373866856098,-0.41358029842377
694,1798954378,3.10338330268860,0.35504940152168,16.01320457458496,-0.05020580440760,0.53635591268539,9.88274002075195,1.29236626625061,0.12422904372215,-0.23904486000538
695,1798962711,3.10342502593994,0.35474491119385,16.01412773132324,-0.04782409593463,0.55615490674973,9.84675979614258,1.28801178932190,0.04508105292916,-0.21458324790001
696,1798971044,3.10363745689392,0.35529565811157,16.01530456542969,-0.07065589725971,0.55978858470917,9.81050205230713,1.30727362632751,0.14523270726204,-0.25351685285568
697,1798979377,3.10343766212463,0.35539105534554,16.01443099975586,-0.05413986742496,0.55056148767471,9.86089515686035,1.26024603843689,0.07917360961437,-0.43338006734848
698,1798987710,3.10372185707092,0.35515221953392,16.01526069641113,-0.05952595919371,0.52539062500000,9.81563854217529,1.31654608249664,0.04907687380910,-0.30013480782509
699,1798996043,3.10369586944580,0.35505759716034,16.01564598083496,-0.06674318015575,0.54536849260330,9.83667564392090,1.28002011775970,0.06498331576586,-0.27961778640747
