sep=,
DeviceTag:,left thigh
FirmwareVersion:,2.2.1
AppVersion:,2023.6.0
StartTime: ,2025-04-02_17:13:55_000 PDT
© Movella Technologies B. V. 2005-2025

PacketCounter,SampleTimeFine,Euler_X,Euler_Y,Euler_Z,Acc_X,Acc_Y,Acc_Z,Gyr_X,Gyr_Y,Gyr_Z
0,2289546119,-0.25295314192772,-0.44202652573586,56.02922058105469,0.00000000000000,0.00000000000000,0.00000000000000,0.00000000000000,0.00000000000000,0.00000000000000
1,2289554452,-0.25295361876488,-0.44600585103035,56.05124282836914,0.09173656255007,-0.05606539547443,10.14624023437500,0.02124700695276,-0.48843789100647,2.64091753959656
2,2289562785,-0.27102106809616,-0.45124295353889,56.02342605590820,0.08154653757811,-0.02488056756556,10.14990329742432,0.07862288504839,-0.50162917375565,2.64908814430237
3,2289571118,-0.27028888463974,-0.45493477582932,56.04523468017578,0.07849763333797,-0.05772168189287,10.14623451232910,0.10818172991276,-0.45577970147133,2.61463689804077
4,2289579451,-0.27220827341080,-0.45975786447525,56.05520629882812,0.09381787478924,-0.04851274192333,10.14255809783936,0.07211688160896,-0.47540020942688,2.68353962898254
5,2289587784,-0.27133530378342,-0.46472677588463,56.07696533203125,0.09453827887774,-0.05755752697587,10.12241458892822,0.12593239545822,-0.60826128721237,2.60810542106628
6,2289596117,-0.27449426054955,-0.47786182165146,56.09069442749023,0.06437142193317,-0.05181239545345,10.14440345764160,0.09301810711622,-0.66886460781097,2.55895185470581
7,2289604450,-0.27397212386131,-0.48225784301758,56.11255264282227,0.08538908511400,-0.05911011248827,10.17184829711914,0.08512891083956,-0.54097259044647,2.61958050727844
8,2289612783,-0.27765223383904,-0.48536664247513,56.14822387695312,0.07871782779694,-0.06447412818670,10.12789440155029,0.09519530832767,-0.43936097621918,2.60485243797302
9,2289621116,-0.27705410122871,-0.48932212591171,56.17004394531250,0.08307791501284,-0.05522694438696,10.12606334686279,0.09506724029779,-0.48692664504051,2.61632776260376
10,2289629449,-0.28181964159012,-0.49089577794075,56.18162536621094,0.08377591520548,-0.05328398197889,10.16999626159668,0.09860199689865,-0.38854232430458,2.57201504707336
11,2289637782,-0.28063300251961,-0.49501642584801,56.20342636108398,0.08993653953075,-0.03852180019021,10.13885974884033,0.16386705636978,-0.50677764415741,2.61461138725281
12,2289646115,-0.28242310881615,-0.49746337532997,56.21144104003906,0.07212951779366,-0.06387418508530,10.12606334686279,0.07890465855598,-0.40816289186478,2.59009885787964
13,2289654448,-0.28236496448517,-0.50099289417267,56.23326492309570,0.08556684106588,-0.06207506358624,10.14252948760986,0.02964847721159,-0.43587741255760,2.61799240112305
14,2289662781,-0.28479006886482,-0.50277096033096,56.24185562133789,0.06068103015423,-0.04533734917641,10.13705825805664,0.14752519130707,-0.47560507059097,2.63430881500244
15,2289671114,-0.28392890095711,-0.50662177801132,56.26398468017578,0.06296924501657,-0.07629388570786,10.14439010620117,0.12623974680901,-0.47552824020386,2.65239262580872
16,2289679447,-0.28657639026642,-0.50645738840103,56.26598739624023,0.06575890630484,-0.04501483961940,10.13886642456055,0.12588116526604,-0.56569039821625,2.62941670417786
17,2289687780,-0.28525012731552,-0.51061761379242,56.28788375854492,0.08115942776203,-0.05227190628648,10.14800834655762,0.18348759412766,-0.51346302032471,2.62444758415222
18,2289696113,-0.28752133250237,-0.50945025682449,56.29528427124023,0.08355723321438,-0.07227495312691,10.16265010833740,0.00500758318231,-0.45695790648460,2.59837198257446
19,2289704446,-0.28694882988930,-0.51307135820389,56.31759643554688,0.08445729315281,-0.03747732564807,10.13883113861084,0.09201914072037,-0.44753190875053,2.67534255981445
20,2289712779,-0.28804847598076,-0.51276433467865,56.32121658325195,0.09962597489357,-0.05397421866655,10.15162754058838,0.11491825431585,-0.45091298222542,2.64747452735901
21,2289721112,-0.28809589147568,-0.51685869693756,56.34342956542969,0.07791548967361,-0.09214436262846,10.13519001007080,0.01794277131557,-0.50452363491058,2.66394448280334
22,2289729445,-0.29025804996490,-0.51778703927994,56.35767364501953,0.08988388627768,-0.06473033875227,10.13514709472656,0.11309966444969,-0.48044624924660,2.60977053642273
23,2289737778,-0.28963497281075,-0.52248042821884,56.37952804565430,0.08899248391390,-0.04079863056540,10.11318016052246,0.09949849545956,-0.57706308364868,2.61965751647949
24,2289746111,-0.29144763946533,-0.52429103851318,56.38268661499023,0.08944375813007,-0.07548942416906,10.12416648864746,0.07193758338690,-0.50480538606644,2.55080652236938
25,2289754444,-0.29036357998848,-0.52949935197830,56.40473937988281,0.08642952144146,-0.08814197033644,10.13699245452881,0.15487647056580,-0.63968992233276,2.64419603347778
26,2289762777,-0.29311516880989,-0.53116947412491,56.41815948486328,0.06218164041638,-0.03641884028912,10.11871051788330,0.08049274235964,-0.44909438490868,2.57537055015564
27,2289771110,-0.29257196187973,-0.53488928079605,56.44017028808594,0.07165570557117,-0.06389794498682,10.12418937683105,0.09035421907902,-0.46062076091766,2.64094305038452
28,2289779443,-0.29351773858070,-0.53600662946701,56.46043395996094,0.07614920288324,-0.05826884880662,10.16994667053223,0.19857434928417,-0.46950891613960,2.70146942138672
29,2289787776,-0.29321384429932,-0.54018950462341,56.48220062255859,0.08048460632563,-0.05264219641685,10.12232208251953,0.06210170686245,-0.51620370149612,2.61148667335510
30,2289796109,-0.29479715228081,-0.54151087999344,56.48742675781250,0.09014593809843,-0.07466550916433,10.15160560607910,0.07693235576153,-0.50314044952393,2.60982179641724
31,2289804442,-0.29440462589264,-0.54548382759094,56.50951766967773,0.09463202208281,-0.06366180628538,10.14060497283936,0.07211688160896,-0.49161401391029,2.64919066429138
32,2289812775,-0.29694136977196,-0.54709279537201,56.51140975952148,0.09027881920338,-0.03425141051412,10.15523910522461,-0.01962050423026,-0.48282831907272,2.63617873191833
33,2289821108,-0.29671344161034,-0.55139094591141,56.53336715698242,0.07408513128757,-0.06151603162289,10.13698577880859,0.05377709120512,-0.53085505962372,2.63284873962402
34,2289829441,-0.29690632224083,-0.55221891403198,56.52947616577148,0.07657403498888,-0.06507697701454,10.14796638488770,0.19588485360146,-0.38764584064484,2.67196202278137
35,2289837774,-0.29653161764145,-0.55699306726456,56.55116653442383,0.08085931837559,-0.06494788080454,10.13330078125000,0.06968352943659,-0.58674532175064,2.60170197486877
36,2289846107,-0.29668170213699,-0.55933898687363,56.56106185913086,0.07828196883202,-0.04825541749597,10.13329505920410,0.20584879815578,-0.58285188674927,2.63592267036438
37,2289854440,-0.29589733481407,-0.56311368942261,56.58331680297852,0.08482736349106,-0.03346302732825,10.14791488647461,0.11992584913969,-0.46740853786469,2.66882395744324
38,2289862773,-0.29712128639221,-0.56526458263397,56.59514999389648,0.09809958934784,-0.05007189139724,10.14970970153809,0.00941323023289,-0.55667418241501,2.69360589981079
39,2289871106,-0.29723292589188,-0.56890934705734,56.61634063720703,0.06747908145189,-0.06422863155603,10.14430999755859,0.01169289834797,-0.45017018914223,2.54109859466553
40,2289879439,-0.29727086424828,-0.56997346878052,56.62784194946289,0.09376030415297,-0.06276962161064,10.14788627624512,0.14155705273151,-0.42337769269943,2.63597393035889
41,2289887772,-0.29634591937065,-0.57455480098724,56.64952087402344,0.07240653783083,-0.06587269157171,10.14247226715088,0.13702337443829,-0.56271916627884,2.59832096099854
42,2289896105,-0.29716151952744,-0.57635986804962,56.65446853637695,0.08788322657347,-0.06234632804990,10.14057636260986,0.05554447323084,-0.50949281454086,2.61158895492554
43,2289904438,-0.29715201258659,-0.58058983087540,56.67592239379883,0.09779081493616,-0.06065449491143,10.13503932952881,0.02749687992036,-0.52076303958893,2.57229685783386
44,2289912771,-0.29736253619194,-0.58166825771332,56.69483947753906,0.07883456349373,-0.04004865139723,10.17721366882324,0.12869873642921,-0.40035054087639,2.61466288566589
45,2289921104,-0.29594397544861,-0.58543592691422,56.71771240234375,0.09001653641462,-0.05291680246592,10.13323020935059,0.19880488514900,-0.46653774380684,2.74409151077271
46,2289929437,-0.29576677083969,-0.58821040391922,56.72834014892578,0.09048641473055,-0.06550376862288,10.12408828735352,0.14324760437012,-0.60211384296417,2.66230535507202
47,2289937770,-0.29568007588387,-0.59192383289337,56.75071334838867,0.07490240037441,-0.06686072051525,10.16259288787842,0.03976610302925,-0.46008294820786,2.68540954589844
48,2289946103,-0.29640251398087,-0.59463989734650,56.75607681274414,0.08720932900906,-0.03959104046226,10.16802120208740,0.04642579704523,-0.59627377986908,2.59199404716492
49,2289954436,-0.29542323946953,-0.59785211086273,56.77758789062500,0.07089497894049,-0.06478478759527,10.14978981018066,0.14511746168137,-0.39891609549522,2.58351588249207
50,2289962769,-0.29528316855431,-0.59934240579605,56.79291915893555,0.07346205413342,-0.05550268664956,10.14060497283936,0.13809914886951,-0.45782881975174,2.65733599662781
51,2289971102,-0.29412853717804,-0.60364502668381,56.81505203247070,0.07593301683664,-0.06082338094711,10.15707778930664,0.16681271791458,-0.53190523386002,2.65569663047791
52,2289979435,-0.29490029811859,-0.60566812753677,56.81761550903320,0.08976221084595,-0.04999789968133,10.16068172454834,0.02416703104973,-0.53528624773026,2.66414928436279
53,2289987768,-0.29456278681755,-0.60992753505707,56.83991622924805,0.09439725428820,-0.03907206654549,10.15149021148682,0.07024703919888,-0.52593708038330,2.68049120903015
54,2289996101,-0.29465675354004,-0.61160349845886,56.84370422363281,0.07815756648779,-0.05511862039566,10.12044811248779,0.08374574780464,-0.47857642173767,2.62470364570618
55,2290004434,-0.29384991526604,-0.61552023887634,56.86531448364258,0.07152815163136,-0.06029865518212,10.14792919158936,0.12623976171017,-0.48403224349022,2.59673261642456
56,2290012767,-0.29359492659569,-0.61789250373840,56.86069488525391,0.08724502474070,-0.04948709905148,10.16617584228516,0.12518955767155,-0.57414305210114,2.59350538253784
57,2290021100,-0.29327958822250,-0.62153840065002,56.88230133056641,0.08038632571697,-0.06019272655249,10.15704917907715,0.06602069735527,-0.45211690664291,2.60344386100769
58,2290029433,-0.29321685433388,-0.62274199724197,56.88151168823242,0.09020855277777,-0.05484453961253,10.13502597808838,0.09898620098829,-0.43285495042801,2.57713794708252
59,2290037766,-0.29284393787384,-0.62729263305664,56.90333175659180,0.07646541297436,-0.04524711892009,10.13507556915283,0.07291091978550,-0.56202757358551,2.62805914878845
60,2290046099,-0.29220640659332,-0.62877464294434,56.91537094116211,0.06049057468772,-0.05933839082718,10.15896701812744,0.16115196049213,-0.46635839343071,2.69831871986389
61,2290054432,-0.29173740744591,-0.63260287046432,56.93762588500977,0.07931721210480,-0.06147099286318,10.13691425323486,0.08560277521610,-0.47365847229958,2.67717432975769
62,2290062765,-0.29224759340286,-0.63423693180084,56.95063018798828,0.08017587661743,-0.06138321012259,10.16802883148193,0.02437194623053,-0.49753093719482,2.57078576087952
63,2290071098,-0.29152923822403,-0.63741564750671,56.97148895263672,0.08635725080967,-0.05963815003633,10.16433811187744,0.11408580839634,-0.39539414644241,2.51480555534363
64,2290079431,-0.29145401716232,-0.63916546106339,56.98000717163086,0.08924540132284,-0.03943870961666,10.14598274230957,0.09798725694418,-0.51154184341431,2.58541131019592
65,2290087764,-0.29167833924294,-0.64456951618195,57.00206756591797,0.07464787364006,-0.07009198516607,10.16073894500732,0.00434161256999,-0.66440767049789,2.65784835815430
66,2290096097,-0.29182294011116,-0.64661312103271,57.00703430175781,0.09354361891747,-0.07427965849638,10.12036132812500,0.06832598149776,-0.54558324813843,2.67731523513794
67,2290104430,-0.29106801748276,-0.65001887083054,57.02857589721680,0.07292445003986,-0.05525218322873,10.14607810974121,0.12057899683714,-0.42340329289436,2.60170149803162
68,2290112763,-0.29103156924248,-0.65193265676498,57.02776336669922,0.07546779513359,-0.05333614349365,10.14423847198486,0.09613022208214,-0.52961277961731,2.59364652633667
69,2290121096,-0.29062950611115,-0.65568274259567,57.04918289184570,0.08729951083660,-0.04988566413522,10.14782905578613,0.07900710403919,-0.46541064977646,2.59363341331482
70,2290129429,-0.29085251688957,-0.65693753957748,57.05076599121094,0.08754936605692,-0.06080537289381,10.12953281402588,0.05948906019330,-0.45201438665390,2.58387422561646
71,2290137762,-0.28957509994507,-0.66145157814026,57.07181549072266,0.07230957597494,-0.05099979415536,10.17720603942871,0.18251423537731,-0.55547028779984,2.55080628395081
72,2290146095,-0.28941699862480,-0.66195398569107,57.06240463256836,0.08202592283487,-0.05292754620314,10.16250705718994,0.10323818027973,-0.36413198709488,2.51486968994141
73,2290154428,-0.28845140337944,-0.66597336530685,57.08337402343750,0.07551213353872,-0.04341834411025,10.15338039398193,0.14562973380089,-0.49755656719208,2.54596543312073
74,2290162761,-0.28822523355484,-0.66755598783493,57.08624649047852,0.08329078555107,-0.05080087482929,10.14968204498291,0.10490310192108,-0.49527680873871,2.61822295188904
75,2290171094,-0.28683561086655,-0.67103111743927,57.10652542114258,0.08731216192245,-0.06169867515564,10.14600563049316,0.19719116389751,-0.43282932043076,2.46220660209656
76,2290179427,-0.28634080290794,-0.67276352643967,57.11614227294922,0.06632982194424,-0.04983942583203,10.15343761444092,0.13763810694218,-0.51049178838730,2.70013761520386
77,2290187760,-0.28452229499817,-0.67730253934860,57.13831710815430,0.09351082891226,-0.07793630659580,10.12217903137207,0.24995656311512,-0.56138730049133,2.68838095664978
78,2290196093,-0.28384065628052,-0.67886269092560,57.13836288452148,0.08444771915674,-0.04434140026569,10.13684940338135,0.16384144127369,-0.49289467930794,2.58694815635681
79,2290204426,-0.28253263235092,-0.68322449922562,57.15989685058594,0.07368370145559,-0.06023573502898,10.14059066772461,0.18943007290363,-0.53917962312698,2.61968302726746
80,2290212759,-0.28226232528687,-0.68466484546661,57.16570663452148,0.09422039240599,-0.07347766309977,10.15146255493164,0.11153719574213,-0.47896057367325,2.55920767784119
81,2290221092,-0.28222322463989,-0.68776035308838,57.18646240234375,0.07549344748259,-0.04711228236556,10.14056968688965,0.03588554263115,-0.38756901025772,2.52991819381714
82,2290229425,-0.28229412436485,-0.68951153755188,57.19694900512695,0.10155792534351,-0.05159408971667,10.13491725921631,0.07510093599558,-0.51602435112000,2.64136576652527
83,2290237758,-0.28212818503380,-0.69337683916092,57.21821212768555,0.08793867379427,-0.04734813049436,10.16063308715820,0.05254760012031,-0.48124024271965,2.59388947486877
84,2290246091,-0.28162470459938,-0.69418853521347,57.22900390625000,0.08101144433022,-0.04705864563584,10.12039089202881,0.13757406175137,-0.39579120278358,2.57225847244263
85,2290254424,-0.28181257843971,-0.69810020923615,57.24976348876953,0.07986587285995,-0.04870301857591,10.13870239257812,0.00960533786565,-0.48711869120598,2.52848362922668
86,2290262757,-0.28113040328026,-0.69922816753387,57.25815582275391,0.07510310411453,-0.05024284869432,10.15705680847168,0.15483805537224,-0.43550601601601,2.54602932929993
87,2290271090,-0.28061336278915,-0.70350897312164,57.27878570556641,0.08869834244251,-0.04687742143869,10.15329360961914,0.09408109635115,-0.52952313423157,2.51839184761047
88,2290279423,-0.28084284067154,-0.70598226785660,57.28341293334961,0.08561492711306,-0.05398472398520,10.16064643859863,0.04225068539381,-0.59911704063416,2.58584666252136
89,2290287756,-0.28009140491486,-0.70929467678070,57.30540466308594,0.06927005201578,-0.06252790242434,10.11682319641113,0.12454922497272,-0.41523236036301,2.68382120132446
90,2290296089,-0.28012517094612,-0.71010631322861,57.31210327148438,0.09184619784355,-0.06500750035048,10.13131332397461,0.06886386871338,-0.40439748764038,2.63973903656006
91,2290304422,-0.27962702512741,-0.71432393789291,57.33340072631836,0.06206553801894,-0.04913048073649,10.15348052978516,0.09281318634748,-0.52294027805328,2.60369992256165
92,2290312755,-0.27960529923439,-0.71600216627121,57.33126831054688,0.09510576725006,-0.06671129167080,10.14412307739258,0.07470392435789,-0.51118332147598,2.52667808532715
93,2290321088,-0.27939137816429,-0.71952396631241,57.35238265991211,0.07967536151409,-0.05506018176675,10.13872337341309,0.05984766408801,-0.44035995006561,2.58571887016296
94,2290329421,-0.27878952026367,-0.72079181671143,57.36180114746094,0.08404777944088,-0.05144458636642,10.12951850891113,0.14793500304222,-0.46008288860321,2.55920767784119
95,2290337754,-0.27815780043602,-0.72439581155777,57.38384246826172,0.08596760034561,-0.07143642753363,10.15883064270020,0.11089684069157,-0.45109233260155,2.69378542900085
96,2290346087,-0.27768343687057,-0.72655779123306,57.39725112915039,0.08135019242764,-0.06560345739126,10.15154170989990,0.13453875482082,-0.56635630130768,2.59704017639160
97,2290354420,-0.27666404843330,-0.73045843839645,57.41894149780273,0.07293378561735,-0.05780221521854,10.10946846008301,0.15759158134460,-0.48805367946625,2.65431356430054
98,2290362753,-0.27645418047905,-0.73277479410172,57.42851638793945,0.07352722436190,-0.06855098158121,10.14610576629639,0.10613257437944,-0.58879441022873,2.57752227783203
99,2290371086,-0.27592623233795,-0.73752647638321,57.45003128051758,0.07107598334551,-0.05551057681441,10.12596321105957,0.09817936271429,-0.58861511945724,2.63168334960938
100,2290379419,-0.27608594298363,-0.73884272575378,57.45463562011719,0.08073481917381,-0.05945801362395,10.11125659942627,0.06436856836081,-0.47478544712067,2.63501310348511
101,2290387752,-0.27527329325676,-0.74296420812607,57.47598266601562,0.07629764080048,-0.05724894627929,10.14790821075439,0.13401368260384,-0.51391124725342,2.61511111259460
102,2290396085,-0.27488410472870,-0.74482792615891,57.48007202148438,0.08041855692863,-0.06273677945137,10.13689231872559,0.13001786172390,-0.54339313507080,2.58237576484680
103,2290404418,-0.27389624714851,-0.74962311983109,57.50104141235352,0.08363316953182,-0.04799567908049,10.13502502441406,0.15351891517639,-0.59471136331558,2.57411551475525
104,2290412751,-0.27375805377960,-0.75074326992035,57.50119781494141,0.08651475608349,-0.04785836488008,10.16613388061523,0.10035657137632,-0.45429402589798,2.49062585830688
105,2290421084,-0.27344259619713,-0.75506246089935,57.52250289916992,0.08294171839952,-0.05680656060576,10.14053344726562,0.07285968959332,-0.53887224197388,2.61704468727112
106,2290429417,-0.27311328053474,-0.75639808177948,57.52715301513672,0.07994960248470,-0.06200537085533,10.16069698333740,0.12502309679985,-0.48088166117668,2.64630913734436
107,2290437750,-0.27257195115089,-0.76038706302643,57.54788970947266,0.06891074031591,-0.03388971462846,10.14609813690186,0.09967780113220,-0.49847862124443,2.55295777320862
108,2290446083,-0.27150675654411,-0.76116877794266,57.55474090576172,0.07588568329811,-0.05779564380646,10.14792346954346,0.20805162191391,-0.42043203115463,2.58528327941895
109,2290454416,-0.27088865637779,-0.76450097560883,57.57579040527344,0.08622356504202,-0.04154004156590,10.13315868377686,0.11133227497339,-0.41999664902687,2.59058523178101
110,2290462749,-0.27063116431236,-0.76666706800461,57.58653640747070,0.08308485895395,-0.04309279471636,10.11853027343750,0.10745170712471,-0.58720630407333,2.52520513534546
111,2290471082,-0.26936700940132,-0.77077692747116,57.60808944702148,0.09603841602802,-0.05992617458105,10.13128471374512,0.18986551463604,-0.51512789726257,2.64939546585083
112,2290479415,-0.26934063434601,-0.77293926477432,57.61354827880859,0.07292800396681,-0.06416729092598,10.14429569244385,0.07976271957159,-0.58491384983063,2.56631565093994
113,2290487748,-0.26896643638611,-0.77647733688354,57.63494873046875,0.07895956933498,-0.06436074525118,10.12043380737305,0.08313100039959,-0.44719895720482,2.63507747650146
114,2290496081,-0.26835033297539,-0.77760654687881,57.63024902343750,0.07743607461452,-0.07146608084440,10.11680030822754,0.15445384383202,-0.46530824899673,2.53475928306580
115,2290504414,-0.26747250556946,-0.78125905990601,57.65063476562500,0.08261831849813,-0.05131705477834,10.11124229431152,0.14135216176510,-0.46008294820786,2.51845574378967
116,2290512747,-0.26720941066742,-0.78223717212677,57.65889358520508,0.09048938006163,-0.06058425456285,10.15330886840820,0.11791513115168,-0.45116916298866,2.73663783073425
117,2290521080,-0.26708650588989,-0.78598713874817,57.68079757690430,0.07499521225691,-0.05422149226069,10.15892314910889,0.05329041555524,-0.47432434558868,2.69760155677795
118,2290529413,-0.26718664169312,-0.78739297389984,57.68769454956055,0.07332253456116,-0.06142621487379,10.13514041900635,0.07192477583885,-0.50271779298782,2.61557197570801
119,2290537746,-0.26646834611893,-0.79151034355164,57.70879364013672,0.09860616922379,-0.04416798055172,10.12574005126953,0.12402413785458,-0.51706176996231,2.60222697257996
120,2290546079,-0.26607459783554,-0.79225403070450,57.71339035034180,0.07754469662905,-0.04292923212051,10.14789390563965,0.13282263278961,-0.42540124058723,2.62014436721802
121,2290554412,-0.26573279500008,-0.79608315229416,57.73430633544922,0.07512014359236,-0.06107107177377,10.10766601562500,0.07877658307552,-0.48318696022034,2.58438682556152
122,2290562745,-0.26526108384132,-0.79747194051743,57.73843765258789,0.09495527297258,-0.05079635232687,10.14226436614990,0.14071181416512,-0.50762289762497,2.62186050415039
123,2290571078,-0.26475343108177,-0.80186545848846,57.75914764404297,0.07534451037645,-0.05334076657891,10.13329505920410,0.09837146848440,-0.55093663930893,2.55815744400024
124,2290579411,-0.26500838994980,-0.80338412523270,57.76250839233398,0.07829718291759,-0.05146689713001,10.16073989868164,0.05153584107757,-0.52354210615158,2.56654644012451
125,2290587744,-0.26420015096664,-0.80688154697418,57.78323745727539,0.09326380491257,-0.05397145077586,10.13129901885986,0.13544806838036,-0.44365140795708,2.56611084938049
126,2290596077,-0.26409700512886,-0.80765092372894,57.78912353515625,0.07602073252201,-0.04559779539704,10.13694286346436,0.09491354227066,-0.43600547313690,2.61386871337891
127,2290604410,-0.26209414005280,-0.81158101558685,57.81016159057617,0.10164440423250,-0.05764642730355,10.12756538391113,0.28029656410217,-0.49641659855843,2.60322594642639
128,2290612743,-0.26155629754066,-0.81307929754257,57.81533813476562,0.09181557595730,-0.05128891021013,10.14047527313232,0.14479729533195,-0.52256888151169,2.53012299537659
129,2290621076,-0.26111009716988,-0.81686240434647,57.83634948730469,0.07947246730328,-0.05778709053993,10.15341567993164,0.09374809265137,-0.48025414347649,2.60245752334595
130,2290629409,-0.26134675741196,-0.81673723459244,57.84153366088867,0.08407212793827,-0.05057853087783,10.14786529541016,0.05286778509617,-0.33005228638649,2.51562523841858
131,2290637742,-0.26077032089233,-0.82043439149857,57.86217880249023,0.10312487185001,-0.04596369713545,10.14217758178711,0.10854033380747,-0.47084090113640,2.55977153778076
132,2290646075,-0.26086926460266,-0.82127064466476,57.86423492431641,0.08011507242918,-0.07945109158754,10.14978885650635,0.06968352198601,-0.44525226950645,2.53041768074036
133,2290654408,-0.25978496670723,-0.82480210065842,57.88456344604492,0.08381366729736,-0.05202313140035,10.12956142425537,0.16790130734444,-0.45109227299690,2.52343773841858
134,2290662741,-0.25931107997894,-0.82526499032974,57.89099121093750,0.08163672685623,-0.07183068990707,10.13878917694092,0.14128811657429,-0.40286073088646,2.52184963226318
135,2290671074,-0.25927123427391,-0.82872271537781,57.91183090209961,0.07437813282013,-0.04383098334074,10.12416076660156,0.04542685300112,-0.44287016987801,2.58471965789795
136,2290679407,-0.25871211290359,-0.83065253496170,57.91466903686523,0.08825778216124,-0.04435159265995,10.16065311431885,0.15340366959572,-0.58347946405411,2.62699604034424
137,2290687740,-0.25805810093880,-0.83432745933533,57.93571472167969,0.08503823727369,-0.04404051229358,10.12589168548584,0.11864513903856,-0.47108417749405,2.61390733718872
138,2290696073,-0.25822243094444,-0.83574509620667,57.94221115112305,0.08489719778299,-0.06218133866787,10.13691329956055,0.06238346546888,-0.52378547191620,2.47813868522644
139,2290704406,-0.25748589634895,-0.83896642923355,57.96327590942383,0.07490555942059,-0.05961776897311,10.15898895263672,0.12997944653034,-0.41559097170830,2.61545681953430
140,2290712739,-0.25702983140945,-0.83929419517517,57.96440887451172,0.07951807975769,-0.07812240719795,10.11502742767334,0.14016109704971,-0.39787870645523,2.58260655403137
141,2290721072,-0.25567403435707,-0.84376883506775,57.98505020141602,0.08051525056362,-0.04844342172146,10.16807174682617,0.20432475209236,-0.56693267822266,2.56938958168030
142,2290729405,-0.25607612729073,-0.84471130371094,57.99158477783203,0.07757948338985,-0.04264747351408,10.13514041900635,0.03967645391822,-0.47379934787750,2.58324694633484
143,2290737738,-0.25603020191193,-0.84881472587585,58.01252746582031,0.09009594470263,-0.06341667473316,10.14785003662109,0.04819318652153,-0.52486127614975,2.60623550415039
144,2290746071,-0.25574418902397,-0.85015863180161,58.01745223999023,0.06962607055902,-0.05111018195748,10.15721416473389,0.12201341986656,-0.52532237768173,2.60749077796936
145,2290754404,-0.25528839230537,-0.85435694456100,58.03815460205078,0.07288062572479,-0.04010202735662,10.16082572937012,0.09696269035339,-0.53610599040985,2.57977604866028
146,2290762737,-0.25510260462761,-0.85506618022919,58.04374694824219,0.08047953993082,-0.06986327469349,10.10403251647949,0.10883489251137,-0.45452466607094,2.52387309074402
147,2290771070,-0.25486382842064,-0.85859179496765,58.06356048583984,0.09314853698015,-0.06296454370022,10.16064643859863,0.06912001222372,-0.45670184493065,2.47329783439636
148,2290779403,-0.25407576560974,-0.86025470495224,58.06618499755859,0.08915624767542,-0.04969974979758,10.16616821289062,0.18434566259384,-0.57147920131683,2.54987168312073
149,2290787736,-0.25321075320244,-0.86474221944809,58.08641052246094,0.09187733381987,-0.07894901186228,10.16071033477783,0.14478445053101,-0.57199150323868,2.52383470535278
150,2290796069,-0.25353375077248,-0.86510014533997,58.09387588500977,0.08784725517035,-0.06028598174453,10.12959003448486,0.05443025007844,-0.41842132806778,2.57177162170410
151,2290804402,-0.25350216031075,-0.86947524547577,58.11443328857422,0.06853038072586,-0.05902885645628,10.14078426361084,0.04697650671005,-0.55924844741821,2.56541919708252
152,2290812735,-0.25282281637192,-0.87016540765762,58.11713027954102,0.09327178448439,-0.05665671080351,10.13868045806885,0.17384383082390,-0.46147891879082,2.44485330581665
153,2290821068,-0.25278732180595,-0.87405622005463,58.13834381103516,0.08659289032221,-0.05971199274063,10.15707111358643,0.04743756353855,-0.50337094068527,2.64738488197327
154,2290829401,-0.25298392772675,-0.87482106685638,58.14425277709961,0.08905500173569,-0.05617001652718,10.13139915466309,0.07264196872711,-0.47308206558228,2.59308266639709
155,2290837734,-0.25258022546768,-0.87912911176682,58.16493606567383,0.07838550209999,-0.06453957408667,10.14253616333008,0.09310773760080,-0.55407428741455,2.58488607406616
156,2290846067,-0.25190401077271,-0.88108164072037,58.17005157470703,0.09765908867121,-0.06726346164942,10.16796398162842,0.17824946343899,-0.61894243955612,2.61895322799683
157,2290854400,-0.25206708908081,-0.88518178462982,58.19057083129883,0.08421473950148,-0.05352261662483,10.12780094146729,0.02485861629248,-0.53065007925034,2.56889009475708
158,2290862733,-0.25200140476227,-0.88622111082077,58.19702911376953,0.08752729743719,-0.04803185909986,10.16254997253418,0.10774627327919,-0.51179802417755,2.62091255187988
159,2290871066,-0.25143575668335,-0.89041209220886,58.21825027465820,0.08316946029663,-0.06239340081811,10.11685085296631,0.11193420737982,-0.54140806198120,2.65207219123840
160,2290879399,-0.25153756141663,-0.89137905836105,58.22463226318359,0.07806324958801,-0.04709009081125,10.16084003448486,0.08818981051445,-0.50794309377670,2.61610984802246
161,2290887732,-0.25123125314713,-0.89472848176956,58.24588775634766,0.08188753575087,-0.05093537643552,10.13698577880859,0.08393785357475,-0.44215297698975,2.65870666503906
162,2290896065,-0.25079664587975,-0.89509350061417,58.24733352661133,0.08726975321770,-0.06574773043394,10.15161323547363,0.15058609843254,-0.43946346640587,2.54679775238037
163,2290904398,-0.25036939978600,-0.89885729551315,58.26819610595703,0.08058383315802,-0.06511782854795,10.14986801147461,0.09687304496765,-0.49183177947998,2.61444520950317
164,2290912731,-0.25022903084755,-0.90037018060684,58.27432250976562,0.08626949787140,-0.06906325370073,10.12417507171631,0.11865795403719,-0.58269822597504,2.63576889038086
165,2290921064,-0.24996773898602,-0.90462410449982,58.29500961303711,0.08311289548874,-0.05025152117014,10.15163326263428,0.07677866518497,-0.55188429355621,2.59335160255432
166,2290929397,-0.24979630112648,-0.90564233064651,58.29909896850586,0.07492970675230,-0.04410768672824,10.13708591461182,0.12538169324398,-0.52714097499847,2.63076162338257
167,2290937730,-0.24866150319576,-0.90923541784286,58.32018661499023,0.07601051032543,-0.06958230584860,10.15177917480469,0.18293686211109,-0.47487515211105,2.64515662193298
168,2290946063,-0.24895133078098,-0.90956383943558,58.32365036010742,0.06922682374716,-0.07076838612556,10.15003967285156,0.06859492510557,-0.44990125298500,2.59333896636963
169,2290954396,-0.24881789088249,-0.91383087635040,58.34409713745117,0.09273874759674,-0.05391672998667,10.12407398223877,0.06173030287027,-0.55471467971802,2.57220697402954
170,2290962729,-0.24870164692402,-0.91482657194138,58.35115432739258,0.08109983056784,-0.07683541625738,10.13526916503906,0.12187252193689,-0.53523510694504,2.64069962501526
171,2290971062,-0.24735845625401,-0.91868370771408,58.37209320068359,0.06685605645180,-0.05000339448452,10.11524868011475,0.20797479152679,-0.50859630107880,2.63028740882874
172,2290979395,-0.24753828346729,-0.91987484693527,58.37799453735352,0.08113485574722,-0.07443678379059,10.15358734130859,0.08794647455215,-0.56528055667877,2.62462663650513
173,2290987728,-0.24756255745888,-0.92458117008209,58.39878845214844,0.09666797518730,-0.06992253661156,10.13140583038330,0.04373630508780,-0.60977250337601,2.61512374877930
174,2290996061,-0.24742262065411,-0.92505156993866,58.40308380126953,0.09863156080246,-0.05881150811911,10.16249179840088,0.12807118892670,-0.48148357868195,2.55373930931091
175,2291004394,-0.24694041907787,-0.92905288934708,58.42398452758789,0.07636870443821,-0.04247334599495,10.14626312255859,0.10727240890265,-0.52828079462051,2.63104319572449
176,2291012727,-0.24765722453594,-0.92973232269287,58.42869186401367,0.08566600829363,-0.05034055560827,10.13883018493652,0.02356509678066,-0.51074784994125,2.52825331687927
177,2291021060,-0.24771417677402,-0.93273001909256,58.44952774047852,0.09279178082943,-0.03789920359850,10.14604091644287,0.04251963272691,-0.40794509649277,2.62804603576660
178,2291029393,-0.24767506122589,-0.93410855531693,58.45209884643555,0.08405234664679,-0.03906372934580,10.13334369659424,0.11429072916508,-0.59915542602539,2.57371830940247
179,2291037726,-0.24753814935684,-0.93884891271591,58.47245788574219,0.08614959567785,-0.05000888928771,10.14433765411377,0.06443261355162,-0.61707252264023,2.57411551475525
180,2291046059,-0.24686288833618,-0.93984383344650,58.47969818115234,0.10059679299593,-0.06370606273413,10.13502502441406,0.18962216377258,-0.55748105049133,2.57976341247559
181,2291054392,-0.24680425226688,-0.94414162635803,58.49959945678711,0.06872922927141,-0.03188556432724,10.13172149658203,0.05437902361155,-0.56593376398087,2.51670098304749
182,2291062725,-0.24753326177597,-0.94432413578033,58.50696563720703,0.07687363773584,-0.05444687604904,10.11885356903076,0.02079875767231,-0.46624305844307,2.61034655570984
183,2291071058,-0.24677623808384,-0.94754594564438,58.52729797363281,0.06458251923323,-0.05708969011903,10.12635707855225,0.14128811657429,-0.43770888447762,2.57341098785400
184,2291079391,-0.24614556133747,-0.94780337810516,58.53119659423828,0.07474807649851,-0.03176583349705,10.15363025665283,0.18398705124855,-0.48191905021667,2.56990170478821
185,2291087724,-0.24547892808914,-0.95101183652878,58.55194854736328,0.09762648493052,-0.04796304926276,10.11855983734131,0.13022276759148,-0.43727338314056,2.62763643264771
186,2291096057,-0.24573987722397,-0.95165997743607,58.55707550048828,0.08571235090494,-0.06536807119846,10.09679412841797,0.07599744200706,-0.53371101617813,2.64623236656189
187,2291104390,-0.24560381472111,-0.95413655042648,58.57791519165039,0.08185336738825,-0.06292486190796,10.15544795989990,0.06782649457455,-0.35133767127991,2.63949561119080
188,2291112723,-0.24501946568489,-0.95395076274872,58.58258056640625,0.08316824585199,-0.04823533445597,10.13343048095703,0.17900508642197,-0.43751677870750,2.56502246856689
189,2291121056,-0.24490745365620,-0.95744609832764,58.60348892211914,0.06809401512146,-0.06160899251699,10.13184261322021,0.06498331576586,-0.47586125135422,2.64789700508118
190,2291129389,-0.24522271752357,-0.95688110589981,58.60809707641602,0.07317612320185,-0.05084508657455,10.12992572784424,0.07207844406366,-0.39918500185013,2.56085991859436
191,2291137722,-0.24514299631119,-0.96030688285828,58.62833786010742,0.07897803187370,-0.05845733731985,10.14818000793457,0.05983485281467,-0.46760061383247,2.57251453399658
192,2291146055,-0.24451562762260,-0.96033316850662,58.63410186767578,0.07569794356823,-0.06350757926702,10.15739345550537,0.18629232048988,-0.47712916135788,2.64546370506287
193,2291154388,-0.24443614482880,-0.96374386548996,58.65493392944336,0.06636879593134,-0.04611717164516,10.13735008239746,0.06198645010591,-0.46754941344261,2.64472103118896
194,2291162721,-0.24507178366184,-0.96340823173523,58.66251373291016,0.07479338347912,-0.06321492791176,10.12811660766602,0.03504027426243,-0.44030874967575,2.63506484031677
195,2291171054,-0.24450871348381,-0.96764004230499,58.68273162841797,0.06430437415838,-0.06775511801243,10.14110565185547,0.11835057288408,-0.56822615861893,2.57232236862183
196,2291179387,-0.24516849219799,-0.96806746721268,58.68543624877930,0.07399663329124,-0.04631249979138,10.13542652130127,0.03420780599117,-0.53879541158676,2.57946848869324
197,2291187720,-0.24518360197544,-0.97203147411346,58.70564651489258,0.09255012869835,-0.05496753752232,10.14067554473877,0.05060092359781,-0.53777086734772,2.57608771324158
198,2291196053,-0.24485625326633,-0.97171759605408,58.71010589599609,0.07248443365097,-0.04398064315319,10.16842937469482,0.15223820507526,-0.45631763339043,2.58016037940979
199,2291204386,-0.24411034584045,-0.97563493251801,58.73039245605469,0.06663624197245,-0.05616883561015,10.16305065155029,0.14118568599224,-0.53140574693680,2.58693552017212
200,2291212719,-0.24392750859261,-0.97563236951828,58.73472976684570,0.07080969959497,-0.05629985034466,10.14834403991699,0.13557614386082,-0.50169324874878,2.56070637702942
201,2291221052,-0.24373690783978,-0.97853291034698,58.75578689575195,0.09681883454323,-0.03612834587693,10.14242172241211,0.07761113345623,-0.41232514381409,2.68409013748169
202,2291229385,-0.24401611089706,-0.97820913791656,58.76276779174805,0.08196012675762,-0.04766070097685,10.14999675750732,0.07989080250263,-0.46829229593277,2.62013173103333
203,2291237718,-0.24438028037548,-0.98232263326645,58.78326416015625,0.09145098924637,-0.05019981414080,10.13521099090576,0.00906744040549,-0.55904352664948,2.61756992340088
204,2291246051,-0.24432682991028,-0.98330187797546,58.79045867919922,0.07279589772224,-0.04126625508070,10.13731479644775,0.12156514823437,-0.63063526153564,2.68580603599548
205,2291254384,-0.24364301562309,-0.98752540349960,58.81116867065430,0.08263321220875,-0.04905417189002,10.16283607482910,0.13501264154911,-0.57379728555679,2.64459323883057
206,2291262717,-0.24442186951637,-0.98708230257034,58.81400680541992,0.09130804985762,-0.05890618637204,10.12976074218750,0.01923628896475,-0.46588453650475,2.60760593414307
207,2291271050,-0.24351067841053,-0.98943638801575,58.83382415771484,0.07733974605799,-0.05764780566096,10.13180828094482,0.16284249722958,-0.35035151243210,2.54399299621582
208,2291279383,-0.24368797242641,-0.98841065168381,58.83989334106445,0.08626107871532,-0.06914790719748,10.14269351959229,0.09245458245277,-0.40150317549706,2.62009310722351
209,2291287716,-0.24330246448517,-0.99205070734024,58.86010360717773,0.06919858604670,-0.04180241003633,10.16303634643555,0.09951130300760,-0.50522804260254,2.59070062637329
210,2291296049,-0.24320089817047,-0.99296861886978,58.86313247680664,0.08572319895029,-0.04671952500939,10.13716316223145,0.12694415450096,-0.64249461889267,2.61208820343018
211,2291304382,-0.24305212497711,-0.99640327692032,58.88368225097656,0.07975973188877,-0.05897365882993,10.11898899078369,0.07289811968803,-0.48273873329163,2.63355326652527
212,2291312715,-0.24219013750553,-1.00030517578125,58.90345764160156,0.09657569229603,-0.06744810193777,10.13523197174072,0.15693841874599,-0.53558081388474,2.53457975387573
213,2291321048,-0.24247065186501,-0.99962806701660,58.90850448608398,0.09821788221598,-0.05814728885889,10.14618396759033,0.08173502981663,-0.46019819378853,2.59249377250671
214,2291329381,-0.24242846667767,-0.99986124038696,58.91418075561523,0.08005812764168,-0.06562334299088,10.15381622314453,0.11949039995670,-0.56849515438080,2.53496408462524
215,2291337714,-0.24214011430740,-1.00309741497040,58.93465805053711,0.08237362653017,-0.06929941475391,10.15744972229004,0.09018773585558,-0.46214485168457,2.63017225265503
216,2291346047,-0.24106192588806,-1.00326502323151,58.93934249877930,0.08323321491480,-0.04343131557107,10.14822959899902,0.25224900245667,-0.56718885898590,2.72427892684937
217,2291354380,-0.24012674391270,-1.00631344318390,58.95948410034180,0.08191391825676,-0.04482506215572,10.14092731475830,0.16788849234581,-0.44240909814835,2.59675836563110
218,2291362713,-0.24004806578159,-1.00591969490051,58.96508026123047,0.09848193824291,-0.05870196223259,10.17549610137939,0.12791749835014,-0.50469011068344,2.64643740653992
219,2291371046,-0.24017946422100,-1.01027321815491,58.98541259765625,0.07167678326368,-0.07115850597620,10.12653541564941,0.03995820507407,-0.60110199451447,2.62107896804810
220,2291379379,-0.24001418054104,-1.00957596302032,58.98856735229492,0.07886888086796,-0.04213904216886,10.14282226562500,0.14229989051819,-0.47414511442184,2.64301776885986
221,2291387712,-0.23964853584766,-1.01374316215515,59.00909805297852,0.07570470869541,-0.04891562834382,10.16488170623779,0.10015165805817,-0.57899701595306,2.64687275886536
222,2291396045,-0.23964560031891,-1.01416933536530,59.01364898681641,0.09392328560352,-0.05409685149789,10.12981033325195,0.12087357789278,-0.61775130033493,2.57461476325989
223,2291404378,-0.23842579126358,-1.01750969886780,59.03398132324219,0.09591716527939,-0.06495830416679,10.14811515808105,0.20429913699627,-0.48177811503410,2.62784123420715
224,2291412711,-0.23880766332150,-1.01685261726379,59.04010772705078,0.08469444513321,-0.05633225291967,10.16111183166504,0.07566445320845,-0.49103772640228,2.59777021408081
225,2291421044,-0.23931638896465,-1.02004086971283,59.06035995483398,0.07752498239279,-0.04090658575296,10.16119098663330,-0.00344511494040,-0.46462944149971,2.61974716186523
226,2291429377,-0.23915226757526,-1.01901590824127,59.06501770019531,0.08069927990437,-0.05214514583349,10.14837265014648,0.13868826627731,-0.45298776030540,2.48070025444031
227,2291437710,-0.23893018066883,-1.02203106880188,59.08502960205078,0.07187408953905,-0.09351976215839,10.13215827941895,0.08415555953979,-0.44548270106316,2.59273695945740
228,2291446043,-0.23951251804829,-1.02136969566345,59.08928680419922,0.06219450384378,-0.04292929917574,10.12668514251709,0.05531393736601,-0.50331968069077,2.58815193176270
229,2291454376,-0.23875719308853,-1.02522158622742,59.10865402221680,0.09531944990158,-0.03275512158871,10.13893032073975,0.14628289639950,-0.54849046468735,2.51862215995789
230,2291462709,-0.23871929943562,-1.02401614189148,59.11376571655273,0.08412799984217,-0.06279318034649,10.13920307159424,0.13129858672619,-0.44570052623749,2.73024702072144
231,2291471042,-0.23817625641823,-1.02693760395050,59.13381195068359,0.07022515684366,-0.07975644618273,10.13033485412598,0.12233358621597,-0.43896394968033,2.60235500335693
232,2291479375,-0.23774877190590,-1.02629983425140,59.14044189453125,0.07910045981407,-0.07289489358664,10.14667034149170,0.18047790229321,-0.52013546228409,2.72676324844360
233,2291487708,-0.23774032294750,-1.03021633625031,59.16033172607422,0.09397054463625,-0.03725240752101,10.13715648651123,0.05934818089008,-0.55924844741821,2.58836960792542
234,2291496041,-0.23799924552441,-1.03026378154755,59.16414260864258,0.07615673542023,-0.05582615733147,10.11371707916260,0.09664250165224,-0.60850459337234,2.60463452339172
235,2291504374,-0.23760448396206,-1.03372704982758,59.18388366699219,0.05918664112687,-0.05577302351594,10.14881706237793,0.10591486096382,-0.50722593069077,2.57481956481934
236,2291512707,-0.31474447250366,-0.45641604065895,56.61983489990234,0.07816705107689,-0.05364529788494,10.12834548950195,0.19652520120144,-0.56394857168198,2.53474617004395
237,2291521040,-0.31544989347458,-0.44922783970833,56.58052062988281,0.09219773113728,-0.05271173641086,10.15006828308105,0.16221494972706,-0.44885104894638,2.69899773597717
238,2291529373,-0.31511819362640,-0.44918888807297,56.58257675170898,0.06966444104910,-0.05968021973968,10.12119960784912,0.14694887399673,-0.49443158507347,2.50886321067810
239,2291537706,-0.31610125303268,-0.44894748926163,56.58199310302734,0.08055777847767,-0.06791516393423,10.11738014221191,-0.01243571098894,-0.46737015247345,2.53317117691040
240,2291546039,-0.31551361083984,-0.44906866550446,56.57659149169922,0.09255211055279,-0.05218112841249,10.15558338165283,0.17968384921551,-0.51388555765152,2.60217571258545
241,2291554372,-0.31586760282516,-0.44997504353523,56.57616806030273,0.06683600693941,-0.05697395280004,10.13775825500488,0.06167907640338,-0.60699331760406,2.55256080627441
242,2291562705,-0.31594595313072,-0.45096644759178,56.57256698608398,0.07443816959858,-0.04462762549520,10.14125537872314,0.09875568747520,-0.61691880226135,2.53092956542969
243,2291571038,-0.31530457735062,-0.45053187012672,56.57276535034180,0.05785803124309,-0.07225412875414,10.13981914520264,0.18147686123848,-0.44666099548340,2.62837910652161
244,2291579371,-0.31560507416725,-0.45011118054390,56.56891250610352,0.06529428809881,-0.04319119453430,10.16157722473145,0.07287250459194,-0.44979876279831,2.60804152488708
245,2291587704,-0.31588849425316,-0.44922453165054,56.56885910034180,0.08487769216299,-0.06720024347305,10.11551952362061,0.07060564309359,-0.39064273238182,2.59975552558899
246,2291596037,-0.31578204035759,-0.44903260469437,56.56507873535156,0.08253438025713,-0.04820847883821,10.15946674346924,0.12266656756401,-0.47677052021027,2.63229799270630
247,2291604370,-0.31552568078041,-0.44892805814743,56.56511306762695,0.08843731880188,-0.04682079330087,10.13554763793945,0.13514071702957,-0.48560750484467,2.60924530029297
248,2291612703,-0.31557047367096,-0.44972270727158,56.56175613403320,0.07570110261440,-0.05275421589613,10.13398170471191,0.10378888249397,-0.59565901756287,2.63114523887634
249,2291621036,-0.31564655900002,-0.44987121224403,56.56163406372070,0.08732656389475,-0.05549819022417,10.13562679290771,0.09584847092628,-0.51496142148972,2.59003472328186
250,2291629369,-0.31490555405617,-0.44974821805954,56.55540847778320,0.06744128465652,-0.04225021600723,10.14694976806641,0.19543661177158,-0.48535132408142,2.55463576316833
251,2291637702,-0.31576615571976,-0.45011490583420,56.55511474609375,0.07030396908522,-0.06828298419714,10.10119247436523,0.00253580929711,-0.53998649120331,2.57131075859070
252,2291646035,-0.31584528088570,-0.44976434111595,56.55307388305664,0.08335795253515,-0.05654256418347,10.11007690429688,0.09733409434557,-0.45910957455635,2.63921403884888
253,2291654368,-0.31536078453064,-0.44911313056946,56.55283355712891,0.07649315148592,-0.02965426631272,10.15958118438721,0.16272725164890,-0.41980454325676,2.57617759704590
254,2291662701,-0.31522363424301,-0.44742259383202,56.54987335205078,0.07416458427906,-0.04964988678694,10.11207294464111,0.12486939877272,-0.29800879955292,2.62884020805359
255,2291671034,-0.31567713618279,-0.44795209169388,56.55014038085938,0.08029974251986,-0.07206182181835,10.13584136962891,0.05129250138998,-0.56028568744659,2.63663959503174
256,2291679367,-0.31572479009628,-0.44751560688019,56.54399871826172,0.09021155536175,-0.05626547336578,10.14844417572021,0.10025411844254,-0.44799301028252,2.53588628768921
257,2291687700,-0.31607529520988,-0.44788619875908,56.54456329345703,0.09379544109106,-0.06382425874472,10.14840030670166,0.06403558701277,-0.54116475582123,2.67100119590759
258,2291696033,-0.31658288836479,-0.44782936573029,56.54200744628906,0.07291763275862,-0.05438212677836,10.12313747406006,0.04684843868017,-0.49429064989090,2.68918752670288
259,2291704366,-0.31740206480026,-0.44796404242516,56.54211807250977,0.07222104072571,-0.05412505567074,10.14330863952637,0.00745374150574,-0.51383441686630,2.61739063262939
260,2291712699,-0.31754314899445,-0.44738164544106,56.53837966918945,0.09312334656715,-0.05786920711398,10.16124057769775,0.09018772095442,-0.42940983176231,2.58690953254700
261,2291721032,-0.31642100214958,-0.44809958338737,56.53790664672852,0.10450990498066,-0.05882589146495,10.14820003509521,0.23800750076771,-0.58301836252213,2.54807853698730
262,2291729365,-0.31697151064873,-0.44711706042290,56.53390121459961,0.09282560646534,-0.03709092736244,10.15570449829102,0.04180243238807,-0.38097333908081,2.59387683868408
263,2291737698,-0.31813475489616,-0.44734427332878,56.53436660766602,0.08755736052990,-0.07342023402452,10.13760662078857,-0.03379798308015,-0.52474600076675,2.66060161590576
264,2291746031,-0.31811225414276,-0.44720798730850,56.53050231933594,0.09736497700214,-0.07434740662575,10.13559818267822,0.10909103602171,-0.48286673426628,2.61319017410278
265,2291754364,-0.31787171959877,-0.44744256138802,56.53097915649414,0.07394241541624,-0.04044131934643,10.13779354095459,0.13532002270222,-0.52515584230423,2.66231822967529
266,2291762697,-0.31840342283249,-0.44756770133972,56.52857208251953,0.07942606508732,-0.06657163053751,10.13961029052734,0.04275016114116,-0.51411610841751,2.53680825233459
267,2291771030,-0.31869783997536,-0.44734272360802,56.52921295166016,0.09592910856009,-0.07367110997438,10.13930320739746,0.06938896328211,-0.47085371613503,2.68257904052734
268,2291779363,-0.31906446814537,-0.44711232185364,56.52611160278320,0.07520473748446,-0.05288860946894,10.15797901153564,0.06499612331390,-0.46922722458839,2.56612396240234
269,2291787696,-0.31979319453239,-0.44725832343102,56.52585220336914,0.05807718262076,-0.04373125359416,10.13998985290527,0.01677732355893,-0.51432096958160,2.57325744628906
270,2291796029,-0.31999352574348,-0.44732236862183,56.52200317382812,0.06400695443153,-0.06627352535725,10.14910984039307,0.08283644169569,-0.50627815723419,2.56933832168579
271,2291804362,-0.32003688812256,-0.44737055897713,56.52269363403320,0.08857189863920,-0.06324560940266,10.13030529022217,0.10057429969311,-0.50370395183563,2.68735575675964
272,2291812695,-0.32022225856781,-0.44719627499580,56.51916122436523,0.09559125453234,-0.05820107087493,10.14297199249268,0.08605102449656,-0.47688579559326,2.57585716247559
273,2291821028,-0.31937777996063,-0.44596177339554,56.51958847045898,0.08741540461779,-0.04807604849339,10.11197280883789,0.20682214200497,-0.35009542107582,2.65646529197693
274,2291829361,-0.31919944286346,-0.44510716199875,56.51461029052734,0.08109024167061,-0.03578282892704,10.16519641876221,0.12781502306461,-0.39540696144104,2.54741263389587
275,2291837694,-0.31937828660011,-0.44425770640373,56.51477432250977,0.07994148135185,-0.06146983429790,10.12501144409180,0.08432205766439,-0.39462572336197,2.62340998649597
276,2291846027,-0.31925511360168,-0.44422489404678,56.51243209838867,0.09254253655672,-0.05698568373919,10.14855194091797,0.12146271020174,-0.49352225661278,2.59369754791260
277,2291854360,-0.31865248084068,-0.44412249326706,56.51268386840820,0.07090792059898,-0.03973576799035,10.13796520233154,0.17650769650936,-0.48485192656517,2.63421940803528
278,2291862693,-0.31849145889282,-0.44447663426399,56.51073837280273,0.08293335139751,-0.04422688484192,10.17437362670898,0.12691853940487,-0.54142087697983,2.57740688323975
279,2291871026,-0.31784799695015,-0.44423207640648,56.51016998291016,0.10131493955851,-0.05911434814334,10.12459659576416,0.18137440085411,-0.46729326248169,2.53565549850464
280,2291879359,-0.31705772876740,-0.44428831338882,56.50805282592773,0.08087223023176,-0.03443609178066,10.13411045074463,0.20151999592781,-0.50434428453445,2.61599445343018
281,2291887692,-0.31695908308029,-0.44392225146294,56.50744628906250,0.08434863388538,-0.06385786086321,10.15612697601318,0.11646793037653,-0.45230901241302,2.53145480155945
282,2291896025,-0.31702008843422,-0.44296652078629,56.50426483154297,0.09856784343719,-0.06903900951147,10.13021945953369,0.09815375506878,-0.38217720389366,2.61518788337708
283,2291904358,-0.31666558980942,-0.44275972247124,56.50417709350586,0.07628753036261,-0.03887848556042,10.11226558685303,0.14723061025143,-0.47192946076393,2.59523415565491
284,2291912691,-0.31673881411552,-0.44268441200256,56.50012588500977,0.09488940984011,-0.08287489414215,10.14316463470459,0.09771831333637,-0.48749014735222,2.49400687217712
285,2291921024,-0.31589919328690,-0.44263699650764,56.50032806396484,0.07059944421053,-0.07445316761732,10.13999843597412,0.20563107728958,-0.49146035313606,2.62922430038452
286,2291929357,-0.31592828035355,-0.44246014952660,56.49779891967773,0.07879708707333,-0.04004918783903,10.14156341552734,0.10258501768112,-0.47607901692390,2.58268356323242
287,2291937690,-0.31597664952278,-0.44273957610130,56.49771118164062,0.08086960762739,-0.04914329200983,10.16720676422119,0.09971622377634,-0.53007382154465,2.59431219100952
288,2291946023,-0.31595736742020,-0.44278207421303,56.49548339843750,0.09581322968006,-0.08207334578037,10.14135646820068,0.10811769217253,-0.50256413221359,2.62374305725098
289,2291954356,-0.31493502855301,-0.44367307424545,56.49530029296875,0.09640437364578,-0.03394927829504,10.14119815826416,0.22850459814072,-0.60297191143036,2.58171010017395
290,2291962689,-0.31484872102737,-0.44354161620140,56.49257659912109,0.06084997206926,-0.06459035724401,10.15306663513184,0.11644230782986,-0.48027968406677,2.51529216766357
291,2291971022,-0.31471762061119,-0.44343525171280,56.49169921875000,0.09038182348013,-0.06596582382917,10.13046264648438,0.11936233192682,-0.48373764753342,2.49889922142029
292,2291979355,-0.31455698609352,-0.44264674186707,56.48972702026367,0.08409553766251,-0.04835576191545,10.14703559875488,0.12699536979198,-0.40182331204414,2.62837910652161
293,2291987688,-0.31453958153725,-0.44314363598824,56.48957061767578,0.09314683079720,-0.04350440949202,10.16881465911865,0.10632468014956,-0.55673819780350,2.58626937866211
294,2291996021,-0.31512022018433,-0.44288140535355,56.48810195922852,0.08251333236694,-0.05526122450829,10.13063430786133,0.03642344474792,-0.46404033899307,2.62461400032043
295,2292004354,-0.31487053632736,-0.44252920150757,56.48786163330078,0.10088733583689,-0.05146982893348,10.16319370269775,0.13494859635830,-0.45496007800102,2.57593417167664
296,2292012687,-0.31500947475433,-0.44296669960022,56.48498916625977,0.07590679079294,-0.07982703298330,10.14918804168701,0.09062316268682,-0.54761952161789,2.60788774490356
297,2292021020,-0.31356483697891,-0.44247427582741,56.48533248901367,0.08171622455120,-0.03415116295218,10.14343070983887,0.27788883447647,-0.43831077218056,2.64666771888733
298,2292029353,-0.31351229548454,-0.44206860661507,56.48244857788086,0.07794272154570,-0.03892731294036,10.13621330261230,0.11251051723957,-0.44709649682045,2.58774232864380
299,2292037686,-0.31434211134911,-0.44168233871460,56.48197174072266,0.08908597379923,-0.06211158260703,10.14888000488281,0.00530214700848,-0.44923532009125,2.54953837394714
300,2292046019,-0.31427553296089,-0.44248563051224,56.48016738891602,0.08212330192327,-0.06843367964029,10.16920948028564,0.11411142349243,-0.59170162677765,2.59305715560913
301,2292054352,-0.31422472000122,-0.44295120239258,56.47988128662109,0.08342054486275,-0.04808445647359,10.16729831695557,0.11111456155777,-0.55381822586060,2.57002997398376
302,2292062685,-0.31479188799858,-0.44357502460480,56.47805786132812,0.09466088563204,-0.06412366777658,10.13963794708252,0.03775538131595,-0.56931477785110,2.55122900009155
303,2292071018,-0.31484785676003,-0.44408789277077,56.47743225097656,0.10045291483402,-0.06835056096315,10.13770008087158,0.09730847924948,-0.55805736780167,2.52917528152466
304,2292079351,-0.31574392318726,-0.44427567720413,56.47446060180664,0.08957690000534,-0.05414775013924,10.11958885192871,-0.00189545354806,-0.51610124111176,2.54337835311890
305,2292087684,-0.31562474370003,-0.44416713714600,56.47434616088867,0.09286130219698,-0.05420475453138,10.15250015258789,0.11867074668407,-0.48530009388924,2.58959913253784
306,2292096017,-0.31518101692200,-0.44381454586983,56.47121429443359,0.08514526486397,-0.05285527184606,10.18380832672119,0.16011460125446,-0.45161738991737,2.59564423561096
307,2292104350,-0.31590411067009,-0.44375956058502,56.47115707397461,0.08748521655798,-0.04941432550550,10.15811443328857,0.01819891296327,-0.49084556102753,2.59739851951599
308,2292112683,-0.31683653593063,-0.44372436404228,56.46887969970703,0.07753989845514,-0.08885361999273,10.13833713531494,-0.00522530451417,-0.48795121908188,2.54021501541138
309,2292121016,-0.31669789552689,-0.44376349449158,56.46850585937500,0.07754705846310,-0.06293350458145,10.13459682464600,0.12059181928635,-0.50197499990463,2.55852913856506
310,2292129349,-0.31635957956314,-0.44411984086037,56.46535110473633,0.09868100285530,-0.05211548134685,10.16522407531738,0.14694885909557,-0.53629803657532,2.60107421875000
311,2292137682,-0.31627097725868,-0.44410678744316,56.46538543701172,0.07838343083858,-0.07162186503410,10.15478229522705,0.11659599840641,-0.49667283892632,2.60952687263489
312,2292146015,-0.31636416912079,-0.44411820173264,56.46425628662109,0.08402731269598,-0.06102866679430,10.15463161468506,0.09575882554054,-0.49535369873047,2.64757680892944
313,2292154348,-0.31598830223083,-0.44467812776566,56.46477508544922,0.09101439267397,-0.03595808893442,10.13423061370850,0.15097029507160,-0.56432002782822,2.66685175895691
314,2292162681,-0.31610026955605,-0.44532766938210,56.46255493164062,0.07899705320597,-0.07094810158014,10.16212081909180,0.09372249245644,-0.57095414400101,2.57725334167480
315,2292171014,-0.31563869118690,-0.44473659992218,56.46356582641602,0.08793747425079,-0.07383625954390,10.13446903228760,0.15985845029354,-0.42841091752052,2.72561097145081
316,2292179347,-0.31577223539352,-0.44470942020416,56.46210861206055,0.09179157763720,-0.04641775414348,10.12880325317383,0.09250581264496,-0.49025645852089,2.62472915649414
317,2292187680,-0.31591618061066,-0.44360479712486,56.46151351928711,0.07603590935469,-0.04610770195723,10.13649940490723,0.08605101704597,-0.36364525556564,2.53418278694153
318,2292196013,-0.31564754247665,-0.44454845786095,56.45852279663086,0.07399637997150,-0.08255193382502,10.13486099243164,0.13912372291088,-0.60657078027725,2.58676886558533
319,2292204346,-0.31501641869545,-0.44429427385330,56.45780563354492,0.08860281854868,-0.04708656296134,10.14539051055908,0.18143844604492,-0.46640962362289,2.51860952377319
320,2292212679,-0.31487846374512,-0.44411867856979,56.45637893676758,0.08549764752388,-0.05944303050637,10.12904644012451,0.12253849208355,-0.47095611691475,2.56042480468750
321,2292221012,-0.31477868556976,-0.44335737824440,56.45562744140625,0.08304700255394,-0.04578126594424,10.16203498840332,0.11610933393240,-0.40658757090569,2.51603507995605
322,2292229345,-0.31485119462013,-0.44401907920837,56.45318603515625,0.07889533787966,-0.03952977806330,10.16028118133545,0.09840988367796,-0.57126140594482,2.57417917251587
323,2292237678,-0.31449350714684,-0.44430190324783,56.45266723632812,0.08940796554089,-0.04626608639956,10.13809299468994,0.14815275371075,-0.53173869848251,2.54231524467468
324,2292246011,-0.31434035301208,-0.44432008266449,56.45021820068359,0.06365738809109,-0.06675210595131,10.14246559143066,0.12517675757408,-0.49557143449783,2.63450121879578
325,2292254344,-0.31467095017433,-0.44479417800903,56.44991302490234,0.06745442003012,-0.05775902792811,10.14601230621338,0.06489367038012,-0.55439448356628,2.56801915168762
326,2292262677,-0.31384462118149,-0.44508090615273,56.44788360595703,0.10468602180481,-0.06215220689774,10.15063953399658,0.20474740862846,-0.52698731422424,2.58110833168030
327,2292271010,-0.31322529911995,-0.44495421648026,56.44754791259766,0.08522441238165,-0.05941567942500,10.14196395874023,0.17937651276588,-0.48273873329163,2.56326770782471
328,2292279343,-0.31304463744164,-0.44504472613335,56.44646835327148,0.09549397975206,-0.04731727018952,10.17098903656006,0.12894205749035,-0.50415217876434,2.57709956169128
329,2292287676,-0.31338590383530,-0.44601103663445,56.44682693481445,0.07621988654137,-0.07063105702400,10.15140533447266,0.06372821331024,-0.61324328184128,2.64556646347046
330,2292296009,-0.31304830312729,-0.44658675789833,56.44587707519531,0.08423390984535,-0.05669835582376,10.14568328857422,0.14876748621464,-0.56119513511658,2.61482906341553
331,2292304342,-0.31367066502571,-0.44720992445946,56.44607162475586,0.08536875993013,-0.05475040897727,10.14932346343994,0.02989180944860,-0.57333624362946,2.62786674499512
332,2292312675,-0.31344908475876,-0.44819211959839,56.44425201416016,0.08114092051983,-0.05214241147041,10.15492439270020,0.13385999202728,-0.60965716838837,2.59054684638977
333,2292321008,-0.31285575032234,-0.44848591089249,56.44449615478516,0.07702749967575,-0.04940123111010,10.16601943969727,0.17543190717697,-0.53335243463516,2.63424468040466
334,2292329341,-0.31270000338554,-0.44843569397926,56.44352340698242,0.07028366625309,-0.05007101222873,10.16621208190918,0.12558658421040,-0.48747727274895,2.61505961418152
335,2292337674,-0.31368619203568,-0.44909235835075,56.44322204589844,0.09417539834976,-0.05668022483587,10.16565322875977,-0.01372923050076,-0.57557749748230,2.56940245628357
336,2292346007,-0.31413513422012,-0.44902890920639,56.44181442260742,0.08302378654480,-0.07196753472090,10.13669204711914,0.05353375524282,-0.48613253235817,2.62425541877747
337,2292354340,-0.31406512856483,-0.44899651408195,56.44157409667969,0.08663184195757,-0.05186751857400,10.14935970306396,0.11324052512646,-0.49341985583305,2.57592129707336
338,2292362673,-0.31402802467346,-0.44892719388008,56.44076156616211,0.07954137772322,-0.05620431900024,10.15689182281494,0.11116578429937,-0.48491591215134,2.62850737571716
339,2292371006,-0.31430253386497,-0.44961044192314,56.44013977050781,0.08568865060806,-0.06216344237328,10.18241977691650,0.07102827727795,-0.57789558172226,2.53068661689758
340,2292379339,-0.31357488036156,-0.44964799284935,56.43961334228516,0.08094080537558,-0.05774920061231,10.16055393218994,0.19541099667549,-0.49874755740166,2.60294437408447
341,2292387672,-0.31364485621452,-0.44990447163582,56.43988037109375,0.08546411991119,-0.04910442233086,10.12012672424316,0.09694986790419,-0.52835762500763,2.63713908195496
342,2292396005,-0.31260341405869,-0.44971135258675,56.43989181518555,0.07558660954237,-0.07285465300083,10.19191360473633,0.23183444142342,-0.46993154287338,2.60409688949585
343,2292404338,-0.31194648146629,-0.44960260391235,56.44028854370117,0.07117931544781,-0.06112691387534,10.14986896514893,0.18391019105911,-0.48305884003639,2.65240550041199
344,2292412671,-0.31161800026894,-0.44845005869865,56.43827056884766,0.07821960747242,-0.06732760369778,10.14422512054443,0.14459234476089,-0.35438573360443,2.50968265533447
345,2292421004,-0.31166771054268,-0.44843789935112,56.43808364868164,0.07493671774864,-0.06264577805996,10.18827915191650,0.09999796748161,-0.49582755565643,2.58127450942993
346,2292429337,-0.31170859932899,-0.44886755943298,56.43672180175781,0.06498093158007,-0.06689534336329,10.15375232696533,0.10255940258503,-0.54672300815582,2.66195940971375
347,2292437670,-0.31149473786354,-0.44865810871124,56.43589782714844,0.08634059876204,-0.04746838659048,10.13482570648193,0.13035085797310,-0.47013649344444,2.50694227218628
348,2292446003,-0.31153541803360,-0.44904819130898,56.43428039550781,0.08770100027323,-0.04545200243592,10.15127563476562,0.10197027027607,-0.54193317890167,2.58970189094543
349,2292454336,-0.31126385927200,-0.44988715648651,56.43405151367188,0.09106723219156,-0.04189070686698,10.16035270690918,0.13754844665527,-0.59692686796188,2.57794475555420
350,2292462669,-0.31190222501755,-0.44973754882812,56.43272781372070,0.08213594555855,-0.06072976440191,10.16983890533447,0.02946917526424,-0.47619423270226,2.61514925956726
351,2292471002,-0.31094208359718,-0.44960853457451,56.43331527709961,0.09992963075638,-0.05381578207016,10.15287971496582,0.22208821773529,-0.48241850733757,2.67516326904297
352,2292479335,-0.31118226051331,-0.44909209012985,56.43212890625000,0.09853730350733,-0.07169744372368,10.16765689849854,0.07653533667326,-0.43017831444740,2.58327245712280
353,2292487668,-0.31079632043839,-0.44898632168770,56.43209075927734,0.08797253668308,-0.05540087819099,10.14955997467041,0.15196925401688,-0.48453164100647,2.60056209564209
354,2292496001,-0.31102824211121,-0.44895875453949,56.43061065673828,0.07854065299034,-0.03536389395595,10.15340137481689,0.07914798706770,-0.48947522044182,2.58511638641357
355,2292504334,-0.31122720241547,-0.44954457879066,56.43015670776367,0.07827598601580,-0.04075499251485,10.14245700836182,0.08163256943226,-0.56702238321304,2.55084514617920
356,2292512667,-0.31165668368340,-0.45050358772278,56.42985916137695,0.07756070047617,-0.04038810729980,10.15347194671631,0.05441743880510,-0.60910648107529,2.70254492759705
357,2292521000,-0.31178009510040,-0.45033779740334,56.43008041381836,0.07131672650576,-0.06343252211809,10.14642715454102,0.09045666456223,-0.47698828577995,2.63105559349060
358,2292529333,-0.31135669350624,-0.45034840703011,56.42903518676758,0.07818874716759,-0.04563909396529,10.14802265167236,0.15778370201588,-0.49490544199944,2.59413266181946
359,2292537666,-0.31128957867622,-0.45071870088577,56.42938613891602,0.08123262226582,-0.06267067044973,10.11504077911377,0.11411142349243,-0.54270166158676,2.64743614196777
360,2292545999,-0.31098926067352,-0.45113757252693,56.42911911010742,0.07719317823648,-0.05049286410213,10.14993190765381,0.14167234301567,-0.54303461313248,2.61920952796936
361,2292554332,-0.31113258004189,-0.45103326439857,56.42868041992188,0.07750330865383,-0.06690910458565,10.14998912811279,0.08726770430803,-0.48524892330170,2.55238175392151
362,2292562665,-0.31181585788727,-0.45138907432556,56.42837524414062,0.06286651641130,-0.05555079877377,10.13936042785645,0.02517879195511,-0.53668224811554,2.60104846954346
363,2292570998,-0.31209582090378,-0.45141333341599,56.42807388305664,0.08104325085878,-0.05053249746561,10.14254379272461,0.07174547761679,-0.49892690777779,2.56913352012634
364,2292579331,-0.31308436393738,-0.45214402675629,56.42714309692383,0.08391421288252,-0.05477403849363,10.10586261749268,-0.01182096917182,-0.58163523674011,2.65104746818542
365,2292587664,-0.31237527728081,-0.45211753249168,56.42736434936523,0.08809684216976,-0.07531639188528,10.13331604003906,0.18954533338547,-0.49549454450607,2.63170886039734
366,2292595997,-0.31267836689949,-0.45258092880249,56.42610931396484,0.07996857166290,-0.05732170492411,10.12248706817627,0.06987562775612,-0.54813182353973,2.56449699401855
367,2292604330,-0.31310996413231,-0.45242592692375,56.42633819580078,0.08483736962080,-0.05414993315935,10.12236499786377,0.05430217459798,-0.47944727540016,2.63355326652527
368,2292612663,-0.31371101737022,-0.45319667458534,56.42589569091797,0.06664287298918,-0.06409469246864,10.15954589843750,0.03427184745669,-0.58636105060577,2.68183612823486
369,2292620996,-0.31361639499664,-0.45252051949501,56.42543029785156,0.08418909460306,-0.04977425932884,10.15719985961914,0.11692898720503,-0.41509148478508,2.55043506622314
370,2292629329,-0.31447747349739,-0.45275837182999,56.42541885375977,0.07413578778505,-0.05751831829548,10.14468193054199,0.00286879413761,-0.52359336614609,2.58519339561462
371,2292637662,-0.31412488222122,-0.45193997025490,56.42564010620117,0.07723296433687,-0.05407249182463,10.14826679229736,0.14711536467075,-0.39896735548973,2.63054394721985
372,2292645995,-0.31479495763779,-0.45167833566666,56.42458343505859,0.08133266866207,-0.06389289349318,10.12438964843750,0.02635704912245,-0.46293887495995,2.54697704315186
373,2292654328,-0.31422653794289,-0.45112907886505,56.42481613159180,0.06237568333745,-0.07383359968662,10.13780212402344,0.17289610207081,-0.43044725060463,2.63365554809570
374,2292662661,-0.31425142288208,-0.45245474576950,56.42385482788086,0.08701816201210,-0.05339205265045,10.09309482574463,0.10376326739788,-0.65409791469574,2.59748864173889
375,2292670994,-0.31396603584290,-0.45322227478027,56.42466354370117,0.08951681107283,-0.03831132873893,10.14060401916504,0.14108321070671,-0.58903777599335,2.70202016830444
376,2292679327,-0.31451871991158,-0.45284005999565,56.42304229736328,0.09595981985331,-0.08895806968212,10.14247226715088,0.03962522000074,-0.44890224933624,2.59787249565125
377,2292687660,-0.31430780887604,-0.45240992307663,56.42327117919922,0.07254531979561,-0.04845272004604,10.13197898864746,0.13076068460941,-0.44554686546326,2.63278484344482
378,2292695993,-0.31370446085930,-0.45216882228851,56.42177963256836,0.08775619417429,-0.04682201147079,10.11507606506348,0.17970946431160,-0.46567958593369,2.59274959564209
379,2292704326,-0.31361877918243,-0.45102941989899,56.42220306396484,0.08789894729853,-0.06318477541208,10.11882591247559,0.11593002825975,-0.36055877804756,2.65747690200806
380,2292712659,-0.31383010745049,-0.45086923241615,56.41938018798828,0.06983856111765,-0.03230806812644,10.15219974517822,0.08051835000515,-0.47486233711243,2.60241913795471
381,2292720992,-0.31414708495140,-0.45053598284721,56.42018127441406,0.09586037695408,-0.03417387977242,10.14232158660889,0.06839001178741,-0.45725250244141,2.69958686828613
382,2292729325,-0.31380179524422,-0.45109215378761,56.42049407958984,0.09904341399670,-0.03246585279703,10.15506744384766,0.14792220294476,-0.56206595897675,2.59034180641174
383,2292737658,-0.31430613994598,-0.45008909702301,56.42015075683594,0.07514423877001,-0.04727975279093,10.14848709106445,0.04290384054184,-0.37523567676544,2.56167960166931
384,2292745991,-0.31411704421043,-0.45007884502411,56.41896057128906,0.08058060705662,-0.06279288232327,10.13924598693848,0.12959522008896,-0.49340704083443,2.56581640243530
385,2292754324,-0.31451922655106,-0.45071747899055,56.41907882690430,0.06330875307322,-0.07113284617662,10.13611984252930,0.05703010037541,-0.57337468862534,2.61806941032410
386,2292762657,-0.31423300504684,-0.45068460702896,56.41706085205078,0.07684321701527,-0.05995953083038,10.13571929931641,0.13936705887318,-0.49093526601791,2.54436469078064
387,2292770990,-0.31475007534027,-0.45089265704155,56.41738510131836,0.06587329506874,-0.06365974247456,10.13605594635010,0.04315998405218,-0.52133935689926,2.64282560348511
388,2292779323,-0.31505036354065,-0.45107203722000,56.41669082641602,0.05437240004539,-0.04516536369920,10.12899589538574,0.07092580944300,-0.51693367958069,2.60629940032959
389,2292787656,-0.31489357352257,-0.45153740048409,56.41673278808594,0.06507509201765,-0.05035806447268,10.11590671539307,0.12428026646376,-0.55212765932083,2.61062836647034
390,2292795989,-0.31531015038490,-0.45214828848839,56.41779327392578,0.07703102380037,-0.04244608432055,10.14120578765869,0.05609517171979,-0.56831580400467,2.64295339584351
391,2292804322,-0.31543985009193,-0.45163655281067,56.41716384887695,0.07085611671209,-0.06355100125074,10.13964653015137,0.08903508633375,-0.43632572889328,2.53027653694153
392,2292812655,-0.31444069743156,-0.45131963491440,56.41522979736328,0.08930738270283,-0.06437700241804,10.12080574035645,0.22486735880375,-0.45622792840004,2.59090518951416
393,2292820988,-0.31443998217583,-0.45182231068611,56.41530227661133,0.07564137130976,-0.06371045112610,10.13405323028564,0.10568434000015,-0.55899226665497,2.61436820030212
394,2292829321,-0.31484284996986,-0.45102620124817,56.41393661499023,0.08002154529095,-0.05299406871200,10.14122009277344,0.05834923312068,-0.39926189184189,2.59979391098022
395,2292837654,-0.31491866707802,-0.45160025358200,56.41378784179688,0.06535970419645,-0.05969408899546,10.16001033782959,0.09495197236538,-0.56483232975006,2.58667922019958
396,2292845987,-0.31500482559204,-0.45340195298195,56.41026306152344,0.09049567580223,-0.05775196850300,10.15562438964844,0.09682179987431,-0.71137130260468,2.57561373710632
397,2292854320,-0.31521177291870,-0.45326966047287,56.40990447998047,0.08333521336317,-0.06958981603384,10.13208580017090,0.07955782115459,-0.48156046867371,2.56042504310608
398,2292862653,-0.31562495231628,-0.45338630676270,56.40830230712891,0.08237257599831,-0.05629193410277,10.13207817077637,0.05522428825498,-0.50947988033295,2.50330471992493
399,2292870986,-0.31632167100906,-0.45380854606628,56.40782165527344,0.08178092539310,-0.06529776751995,10.13398075103760,0.02182332798839,-0.54626196622849,2.54672098159790
400,2292879319,-0.31631129980087,-0.45325878262520,56.40582656860352,0.08944328129292,-0.04940947517753,10.16118335723877,0.10624784231186,-0.42946112155914,2.53857564926147
401,2292887652,-0.31602215766907,-0.45356073975563,56.40512847900391,0.08570450544357,-0.07644021511078,10.15408802032471,0.13921336829662,-0.53235346078873,2.52038955688477
402,2292895985,-0.31603622436523,-0.45371854305267,56.40472030639648,0.09104701131582,-0.04554348811507,10.14832878112793,0.10547941178083,-0.51470530033112,2.59315967559814
403,2292904318,-0.31633397936821,-0.45390391349792,56.40496826171875,0.08165565133095,-0.05127951130271,10.15048313140869,0.06949142366648,-0.52005863189697,2.63488531112671
404,2292912651,-0.31642583012581,-0.45324122905731,56.40597915649414,0.08778601884842,-0.06140832230449,10.13752937316895,0.09610460698605,-0.41512987017632,2.66213846206665
405,2292920984,-0.31645461916924,-0.45420113205910,56.40613937377930,0.07423806190491,-0.06078775599599,10.15443897247314,0.10156043618917,-0.61303830146790,2.62328195571899
406,2292929317,-0.31681337952614,-0.45460501313210,56.40645980834961,0.08785161375999,-0.06265056133270,10.15771389007568,0.06285732984543,-0.54418724775314,2.64669322967529
407,2292937650,-0.31734824180603,-0.45472002029419,56.40661239624023,0.09534186124802,-0.06381459534168,10.14102649688721,0.04205857589841,-0.51138818264008,2.62392234802246
408,2292945983,-0.31752347946167,-0.45518648624420,56.40626525878906,0.09236130118370,-0.06675018370152,10.15579700469971,0.08491118252277,-0.54933571815491,2.60863065719604
409,2292954316,-0.31784376502037,-0.45393922924995,56.40647506713867,0.08752656728029,-0.05112431198359,10.13757228851318,0.06646893173456,-0.34882745146751,2.63298940658569
410,2292962649,-0.31785371899605,-0.45426911115646,56.40663909912109,0.07276139408350,-0.05949249863625,10.16554737091064,0.10737488418818,-0.53437697887421,2.71526265144348
411,2292970982,-0.31791862845421,-0.45523056387901,56.40646362304688,0.07870664447546,-0.05088957771659,10.16719818115234,0.09756462275982,-0.61291021108627,2.58245301246643
412,2292979315,-0.31852573156357,-0.45511701703072,56.40594482421875,0.07874026149511,-0.07321617007256,10.13615608215332,0.03214586526155,-0.48117625713348,2.57156682014465
413,2292987648,-0.31882533431053,-0.45452097058296,56.40583419799805,0.10139456391335,-0.06367687880993,10.13910961151123,0.06977317482233,-0.42490178346634,2.59059786796570
414,2292995981,-0.31882899999619,-0.45427763462067,56.40430450439453,0.08237157016993,-0.05860934033990,10.13784408569336,0.10594046860933,-0.46560275554657,2.58363103866577
415,2293004314,-0.31888580322266,-0.45426180958748,56.40485000610352,0.07702180743217,-0.04831642284989,10.13066291809082,0.09823060035706,-0.49598127603531,2.66941308975220
416,2293012647,-0.31923452019691,-0.45510661602020,56.40407943725586,0.06931050121784,-0.09127962589264,10.14024734497070,0.06526507437229,-0.59702932834625,2.65547895431519
417,2293020980,-0.31909209489822,-0.45486220717430,56.40412139892578,0.08100588619709,-0.06531720608473,10.11781597137451,0.12274342030287,-0.46688345074654,2.61147356033325
418,2293029313,-0.31975054740906,-0.45489627122879,56.40357589721680,0.08288992196321,-0.05038794130087,10.13969612121582,0.02830372378230,-0.49877318739891,2.62950587272644
419,2293037646,-0.31994313001633,-0.45527631044388,56.40354537963867,0.09459391236305,-0.05208903551102,10.14302158355713,0.08181186020374,-0.54428964853287,2.60089492797852
420,2293045979,-0.32009056210518,-0.45551386475563,56.40201187133789,0.08441837877035,-0.03910638764501,10.14147663116455,0.08977789431810,-0.52200531959534,2.57440996170044
421,2293054312,-0.31955555081367,-0.45447656512260,56.40229415893555,0.08236100524664,-0.04941183328629,10.16908168792725,0.16856729984283,-0.37351962924004,2.64021301269531
422,2293062645,-0.32015261054039,-0.45427054166794,56.40237045288086,0.05472991243005,-0.05560084432364,10.19013977050781,0.03550133109093,-0.46975225210190,2.62125825881958
423,2293070978,-0.31995922327042,-0.45384088158607,56.40221023559570,0.08358504623175,-0.04564272612333,10.14890193939209,0.12732838094234,-0.44605910778046,2.58688426017761
424,2293079311,-0.32034534215927,-0.45468789339066,56.40183258056641,0.10820900648832,-0.05339041724801,10.12252807617188,0.06030872464180,-0.59699100255966,2.55554509162903
425,2293087644,-0.32074311375618,-0.45404109358788,56.40150451660156,0.08210476487875,-0.06709285825491,10.16739273071289,0.05688921362162,-0.41903612017632,2.56659770011902
426,2293095977,-0.32085233926773,-0.45393502712250,56.39868927001953,0.07391147315502,-0.05488325655460,10.11815261840820,0.09369687736034,-0.48273873329163,2.62220621109009
427,2293104310,-0.32069665193558,-0.45469695329666,56.39856719970703,0.06853431463242,-0.04052244499326,10.14393138885498,0.12410097569227,-0.58732163906097,2.59085416793823
428,2293112643,-0.32051870226860,-0.45396521687508,56.39774322509766,0.07094559073448,-0.06295169889927,10.13847446441650,0.12758450210094,-0.40825250744820,2.61162734031677
429,2293120976,-0.32045236229897,-0.45357188582420,56.39738082885742,0.08346854150295,-0.05738073959947,10.13440322875977,0.11352228373289,-0.45000365376472,2.56267857551575
430,2293129309,-0.32086825370789,-0.45284837484360,56.39554214477539,0.07909400761127,-0.03758693113923,10.16745662689209,0.05599272251129,-0.40748408436775,2.55199766159058
431,2293137642,-0.32033976912498,-0.45294389128685,56.39589309692383,0.08318857103586,-0.06974274665117,10.15281486511230,0.16759395599365,-0.50853222608566,2.64597630500793
432,2293145975,-0.32137125730515,-0.45414841175079,56.39486312866211,0.08367188274860,-0.04208131507039,10.11423110961914,-0.01712311804295,-0.63988202810287,2.57702279090881
433,2293154308,-0.32213822007179,-0.45467236638069,56.39476394653320,0.08952622115612,-0.05016169324517,10.13792133331299,0.01280711777508,-0.56004250049591,2.59277558326721
434,2293162641,-0.32186818122864,-0.45492586493492,56.39336776733398,0.07664605975151,-0.06278057396412,10.12556934356689,0.13895723223686,-0.52454107999802,2.57917428016663
435,2293170974,-0.32178163528442,-0.45434126257896,56.39386749267578,0.07683517783880,-0.06038728728890,10.15672016143799,0.11541774123907,-0.42851337790489,2.66480255126953
436,2293179307,-0.32134026288986,-0.45470538735390,56.39416122436523,0.07703888416290,-0.02687761746347,10.14011192321777,0.15956388413906,-0.53933328390121,2.61020588874817
437,2293187640,-0.32123294472694,-0.45497235655785,56.39392089843750,0.06928077340126,-0.06081836670637,10.11120700836182,0.11724916100502,-0.52770447731018,2.57800912857056
438,2293195973,-0.32091382145882,-0.45547342300415,56.39308547973633,0.06496990472078,-0.06093012169003,10.18648338317871,0.14451551437378,-0.55627721548080,2.58263230323792
439,2293204306,-0.32043981552124,-0.45487380027771,56.39342498779297,0.07734577357769,-0.04833617061377,10.13658618927002,0.16149775683880,-0.42587509751320,2.64612984657288
440,2293212639,-0.32133793830872,-0.45428469777107,56.39251327514648,0.08345770835876,-0.06378151476383,10.15844440460205,-0.00130632601213,-0.42404368519783,2.54182887077332
441,2293220972,-0.32154071331024,-0.45439198613167,56.39278411865234,0.09054333716631,-0.07800490409136,10.14546871185303,0.08021097630262,-0.50959515571594,2.63792014122009
442,2293229305,-0.32074162364006,-0.45412716269493,56.39245605468750,0.07606434077024,-0.03801161423326,10.15496826171875,0.20273666083813,-0.46434763073921,2.55030679702759
443,2293237638,-0.32051151990891,-0.45403507351875,56.39285659790039,0.06729915738106,-0.04742977768183,10.14431762695312,0.13183645904064,-0.48594042658806,2.65358352661133
444,2293245971,-0.31988930702209,-0.45455485582352,56.39178848266602,0.09129761159420,-0.05127576366067,10.13806533813477,0.18168178200722,-0.55766034126282,2.65307140350342
445,2293254304,-0.31964990496635,-0.45520937442780,56.39203643798828,0.09809923917055,-0.05952868610620,10.13789272308350,0.13365508615971,-0.57669168710709,2.63421916961670
446,2293262637,-0.31973847746849,-0.45480901002884,56.39125442504883,0.09916968643665,-0.05935541912913,10.14703559875488,0.09461898356676,-0.44680196046829,2.58670496940613
447,2293270970,-0.31986609101295,-0.45512565970421,56.39165496826172,0.09006653726101,-0.04082576930523,10.14910888671875,0.09130193293095,-0.53679746389389,2.65295600891113
448,2293279303,-0.31985008716583,-0.45516961812973,56.39088821411133,0.07845494151115,-0.04963213205338,10.15871620178223,0.10682417452335,-0.49883726239204,2.59829545021057
449,2293287636,-0.31962692737579,-0.45569378137589,56.39060592651367,0.05688421055675,-0.05871128290892,10.15033340454102,0.13239996135235,-0.56037533283234,2.57182264328003
450,2293295969,-0.31940245628357,-0.45596754550934,56.39177322387695,0.07867669314146,-0.05478462949395,10.14777946472168,0.13339895009995,-0.52889549732208,2.66715931892395
451,2293304302,-0.31910088658333,-0.45669853687286,56.39243698120117,0.09443826228380,-0.05705897137523,10.16376495361328,0.14026355743408,-0.58537495136261,2.68375730514526
452,2293312635,-0.31916603446007,-0.45755407214165,56.39081954956055,0.08115065842867,-0.05082543566823,10.15322208404541,0.09805129468441,-0.59851503372192,2.58744764328003
453,2293320968,-0.31924369931221,-0.45793360471725,56.39050292968750,0.09374379366636,-0.04718655347824,10.15279960632324,0.09597653895617,-0.54247105121613,2.56595730781555
454,2293329301,-0.31937599182129,-0.45808663964272,56.38990402221680,0.07816004753113,-0.06475749611855,10.14609813690186,0.08970104902983,-0.51373189687729,2.63183689117432
455,2293337634,-0.31984791159630,-0.45865648984909,56.38985061645508,0.07860542833805,-0.05181306600571,10.12406635284424,0.04835967719555,-0.56621545553207,2.59656643867493
456,2293345967,-0.31966549158096,-0.45898577570915,56.38934326171875,0.07786235958338,-0.06250304728746,10.13514041900635,0.12699538469315,-0.53360855579376,2.60174036026001
457,2293354300,-0.31949335336685,-0.45915696024895,56.38983917236328,0.05853150039911,-0.04191752523184,10.15039062500000,0.12609887123108,-0.51847052574158,2.66429042816162
458,2293362633,-0.31976029276848,-0.45945450663567,56.38722610473633,0.07994728535414,-0.03813125193119,10.13684272766113,0.07448620349169,-0.53194367885590,2.69981741905212
459,2293370966,-0.31914997100830,-0.45971390604973,56.38711166381836,0.08788952976465,-0.06329640746117,10.15135574340820,0.17832630872726,-0.52830642461777,2.59277558326721
460,2293379299,-0.31864827871323,-0.45907083153725,56.38741683959961,0.07041598111391,-0.03940941393375,10.15004730224609,0.16687674820423,-0.41985571384430,2.71275234222412
461,2293387632,-0.31873205304146,-0.45927861332893,56.38790893554688,0.07718598842621,-0.05881889909506,10.15907382965088,0.09446530044079,-0.52226138114929,2.66500735282898
462,2293395965,-0.31870397925377,-0.45936378836632,56.38824081420898,0.06465025991201,-0.06765989214182,10.14306545257568,0.10909102112055,-0.50584274530411,2.56767344474792
463,2293404298,-0.31866371631622,-0.45961987972260,56.38888931274414,0.09502617269754,-0.04504407942295,10.13096237182617,0.11064069718122,-0.52862662076950,2.68133664131165
464,2293412631,-0.31854280829430,-0.46013906598091,56.38836669921875,0.08596778661013,-0.04869040474296,10.13496875762939,0.12036129832268,-0.55762195587158,2.63030028343201
465,2293420964,-0.31826552748680,-0.45965310931206,56.38874816894531,0.08613852411509,-0.03341629356146,10.14775085449219,0.13785581290722,-0.43897679448128,2.65102243423462
466,2293429297,-0.31842648983002,-0.45960125327110,56.38806915283203,0.08626971393824,-0.04622614756227,10.14598369598389,0.08629436045885,-0.48896294832230,2.58954811096191
467,2293437630,-0.31852012872696,-0.45913177728653,56.38812255859375,0.08802500367165,-0.05941211432219,10.13866615295410,0.09415792673826,-0.44183272123337,2.61070513725281
468,2293445963,-0.31848561763763,-0.45887789130211,56.38616943359375,0.07528073340654,-0.06240412592888,10.14463901519775,0.10760541260242,-0.46465504169464,2.55627512931824
469,2293454296,-0.31833687424660,-0.45903557538986,56.38615417480469,0.07988729327917,-0.03887220472097,10.13524055480957,0.12361429631710,-0.51532000303268,2.60232973098755
470,2293462629,-0.31895634531975,-0.45902431011200,56.38507080078125,0.08758603036404,-0.03835538029671,10.11849498748779,0.03112129680812,-0.49557143449783,2.57592129707336
471,2293470962,-0.31876775622368,-0.45845067501068,56.38545989990234,0.08122470229864,-0.03872182965279,10.13339519500732,0.12740521132946,-0.42825719714165,2.65140628814697
472,2293479295,-0.31871530413628,-0.45843857526779,56.38378524780273,0.08481441438198,-0.06681822985411,10.15173530578613,0.11014120280743,-0.49446994066238,2.57133626937866
473,2293487628,-0.31886970996857,-0.45860019326210,56.38348388671875,0.07804732024670,-0.05783306062222,10.15744972229004,0.08683226257563,-0.51544809341431,2.57018351554871
474,2293495961,-0.31946837902069,-0.45834285020828,56.38171005249023,0.08821472525597,-0.05407672747970,10.14243602752686,0.03245323896408,-0.46598699688911,2.59408164024353
475,2293504294,-0.32008758187294,-0.45785051584244,56.38155746459961,0.07499653846025,-0.04959027841687,10.14840126037598,0.03163358196616,-0.43791374564171,2.58908700942993
476,2293512627,-0.32038423418999,-0.45785564184189,56.38121795654297,0.06348314881325,-0.05302041023970,10.13784408569336,0.06856931000948,-0.49741569161415,2.56237125396729
477,2293520960,-0.31936302781105,-0.45298951864243,56.38330078125000,0.06989689916372,-0.07433701306581,10.14688491821289,0.12422904372215,-0.58944761753082,2.64902448654175
478,2293529293,-0.31896826624870,-0.45266583561897,56.38110733032227,0.10947750508785,-0.06639944761992,10.14913749694824,0.15022748708725,-0.45732942223549,2.50325369834900
479,2293537626,-0.31888997554779,-0.45260724425316,56.38109207153320,0.10055752843618,-0.06287140399218,10.12380886077881,0.11411140859127,-0.49316367506981,2.60122776031494
480,2293545959,-0.31913357973099,-0.45254421234131,56.37959289550781,0.09471090883017,-0.07246948033571,10.14789962768555,0.07604866474867,-0.48816895484924,2.56567573547363
481,2293554292,-0.31878224015236,-0.45208927989006,56.37931060791016,0.07804981619120,-0.05781118199229,10.16127681732178,0.14597554504871,-0.44523945450783,2.57090115547180
482,2293562625,-0.31894657015800,-0.45205804705620,56.37681198120117,0.07525037974119,-0.04762804135680,10.16868686676025,0.08483435213566,-0.49208793044090,2.61833858489990
483,2293570958,-0.31898605823517,-0.45233708620071,56.37668228149414,0.08028071373701,-0.07846221327782,10.13750743865967,0.10030534118414,-0.53319877386093,2.58862590789795
484,2293579291,-0.31899383664131,-0.45214700698853,56.37552261352539,0.07401189208031,-0.04892971366644,10.15228557586670,0.10330221056938,-0.47274908423424,2.53570675849915
485,2293587624,-0.31901994347572,-0.45214328169823,56.37586975097656,0.08951845020056,-0.05321442335844,10.17375850677490,0.10268747061491,-0.50025886297226,2.64451599121094
486,2293595957,-0.31920433044434,-0.45230051875114,56.37371444702148,0.08218011260033,-0.06297249346972,10.15576171875000,0.08191432803869,-0.51508951187134,2.57256579399109
487,2293604290,-0.31958040595055,-0.45227944850922,56.37401580810547,0.06502515077591,-0.06123908981681,10.16921615600586,0.06016783788800,-0.49636548757553,2.63875293731689
488,2293612623,-0.32011878490448,-0.45280990004539,56.37256240844727,0.08592251688242,-0.04091053456068,10.15556812286377,0.03916416689754,-0.56061875820160,2.53901124000549
489,2293620956,-0.32123747467995,-0.45264789462090,56.37260055541992,0.09244538098574,-0.06819105893373,10.14813613891602,-0.02946917898953,-0.47986993193626,2.60583853721619
490,2293629289,-0.32137653231621,-0.45274618268013,56.37086486816406,0.08259812742472,-0.05502409115434,10.14846611022949,0.08875333517790,-0.50891643762589,2.64505410194397
491,2293637622,-0.32193267345428,-0.45255926251411,56.37099456787109,0.06708205491304,-0.03318380564451,10.15262222290039,0.03867749869823,-0.47633510828018,2.61954236030579
492,2293645955,-0.32218626141548,-0.45232394337654,56.36986160278320,0.08358539640903,-0.07133276015520,10.17236328125000,0.07361530512571,-0.46818977594376,2.59748840332031
493,2293654288,-0.32210540771484,-0.45255643129349,56.37004470825195,0.07488697022200,-0.05670271068811,10.14514732360840,0.11455967277288,-0.52796065807343,2.62503671646118
494,2293662621,-0.32226040959358,-0.45261541008949,56.37046051025391,0.08988220989704,-0.03481973335147,10.16651153564453,0.08578207343817,-0.50378078222275,2.63706231117249
495,2293670954,-0.32302629947662,-0.45274251699448,56.37089157104492,0.09558071196079,-0.06036910787225,10.12979602813721,0.01421589963138,-0.51508945226669,2.65488982200623
496,2293679287,-0.32295876741409,-0.45256397128105,56.36908340454102,0.08912684023380,-0.06070851162076,10.13920974731445,0.11188297718763,-0.47367128729820,2.55583953857422
497,2293687620,-0.32327327132225,-0.45337292551994,56.36900329589844,0.07581653445959,-0.02800354734063,10.14508914947510,0.06780087947845,-0.59779787063599,2.59177660942078
498,2293695953,-0.32287839055061,-0.45299011468887,56.36782836914062,0.08276916295290,-0.06093559414148,10.13033390045166,0.15094469487667,-0.44933772087097,2.58311891555786
499,2293704286,-0.32314196228981,-0.45279377698898,56.36809539794922,0.08929225802422,-0.04891778901219,10.12639904022217,0.07361530512571,-0.47630953788757,2.63575625419617
500,2293712619,-0.32379534840584,-0.45371901988983,56.36751556396484,0.08617482334375,-0.05172742158175,10.13753509521484,0.02561423182487,-0.60860699415207,2.59602808952332
501,2293720952,-0.32343441247940,-0.45350086688995,56.36788177490234,0.09710263460875,-0.06667274981737,10.13722133636475,0.14834485948086,-0.47194233536720,2.64762830734253
502,2293729285,-0.32300987839699,-0.45322313904762,56.36822891235352,0.08423550426960,-0.06007786467671,10.14136314392090,0.15531191229820,-0.46441167593002,2.62775135040283
503,2293737618,-0.32242766022682,-0.45258343219757,56.36814498901367,0.08614312112331,-0.05268920212984,10.13760757446289,0.17523977160454,-0.42202013731003,2.59435081481934
504,2293745951,-0.32203823328018,-0.45290380716324,56.36635971069336,0.08241745829582,-0.04372837394476,10.17438793182373,0.15132892131805,-0.53378790616989,2.50468802452087
505,2293754284,-0.32136380672455,-0.45372313261032,56.36625671386719,0.09297630935907,-0.06267207860947,10.13561153411865,0.18460179865360,-0.59759294986725,2.59164834022522
506,2293762617,-0.32079333066940,-0.45389506220818,56.36629104614258,0.07790111750364,-0.05748638138175,10.13434600830078,0.17358767986298,-0.51888042688370,2.65089416503906
507,2293770950,-0.32097622752190,-0.45483911037445,56.36568450927734,0.08959846943617,-0.04831716790795,10.12839412689209,0.08168379962444,-0.61091232299805,2.52948260307312
508,2293779283,-0.32132571935654,-0.45467364788055,56.36462402343750,0.10200216621161,-0.04851029813290,10.14078330993652,0.06321593374014,-0.47705233097076,2.60842609405518
509,2293787616,-0.32160601019859,-0.45363956689835,56.36450195312500,0.08631949126720,-0.04704309999943,10.14687824249268,0.07107950001955,-0.37574800848961,2.58977842330933
510,2293795949,-0.32115164399147,-0.45405492186546,56.36317062377930,0.08792842924595,-0.04912108182907,10.13402366638184,0.15732264518738,-0.54582649469376,2.53785848617554
511,2293804282,-0.32120832800865,-0.45515340566635,56.36392211914062,0.08885142952204,-0.05246071889997,10.15600395202637,0.09925515949726,-0.63017421960831,2.69254279136658
512,2293812615,-0.32089307904243,-0.45488718152046,56.36274719238281,0.07278580218554,-0.04920800030231,10.13648509979248,0.14087828993797,-0.46506485342979,2.55770945549011
513,2293820948,-0.32107049226761,-0.45535090565681,56.36356735229492,0.10236126929522,-0.03606869280338,10.14081859588623,0.08539785444736,-0.55466341972351,2.70242953300476
514,2293829281,-0.32052651047707,-0.45520415902138,56.36419296264648,0.08807788044214,-0.05533751100302,10.14147090911865,0.16956622898579,-0.47907581925392,2.66441798210144
515,2293837614,-0.31952384114265,-0.45502170920372,56.36477279663086,0.07886298745871,-0.04581381380558,10.12714290618896,0.22584071755409,-0.47797444462776,2.67325544357300
516,2293845947,-0.31916469335556,-0.45512410998344,56.36425399780273,0.08143327385187,-0.05876025184989,10.14727878570557,0.14623165130615,-0.50983858108521,2.63703680038452
517,2293854280,-0.31843909621239,-0.45488205552101,56.36398696899414,0.08802581578493,-0.05957324802876,10.15988159179688,0.19195307791233,-0.46847158670425,2.57182312011719
518,2293862613,-0.31923282146454,-0.45495083928108,56.36167144775391,0.07373450696468,-0.05079860985279,10.16225624084473,0.00832462683320,-0.50474131107330,2.54915452003479
519,2293870946,-0.31920111179352,-0.45476621389389,56.36183547973633,0.05984609201550,-0.05899152159691,10.16650676727295,0.10975699126720,-0.47664245963097,2.62292313575745
520,2293879279,-0.31879919767380,-0.45491930842400,56.36215591430664,0.07848475873470,-0.06651367247105,10.13835906982422,0.15150821208954,-0.51678001880646,2.68993020057678
521,2293887612,-0.31865295767784,-0.45344206690788,56.36241149902344,0.09663804620504,-0.05076257884502,10.17242050170898,0.12381921708584,-0.32147148251534,2.63534641265869
522,2293895945,-0.31880581378937,-0.45367223024368,56.36092376708984,0.09440983086824,-0.05389726161957,10.16521739959717,0.08555155247450,-0.52359342575073,2.64023876190186
523,2293904278,-0.31960105895996,-0.45395442843437,56.36071395874023,0.07005114108324,-0.06041107326746,10.12956142425537,0.00914428289980,-0.53435134887695,2.57753515243530
524,2293912611,-0.31934997439384,-0.45507410168648,56.36069488525391,0.06580077856779,-0.04814226180315,10.12787342071533,0.13337333500385,-0.62917524576187,2.59039330482483
525,2293920944,-0.32010364532471,-0.45472219586372,56.36017227172852,0.08110412210226,-0.05621081963181,10.15849399566650,0.01454888656735,-0.45758554339409,2.54098343849182
526,2293929277,-0.32023659348488,-0.45457503199577,56.35951232910156,0.08547964692116,-0.05689130350947,10.16200637817383,0.08847156912088,-0.47948569059372,2.64349150657654
527,2293937610,-0.32045680284500,-0.45478963851929,56.35948944091797,0.08267821371555,-0.07473499327898,10.16588306427002,0.07812342047691,-0.52474606037140,2.60109972953796
528,2293945943,-0.32059866189957,-0.45478639006615,56.35729598999023,0.08883510529995,-0.04772859066725,10.16371631622314,0.08803613483906,-0.49598127603531,2.62061810493469
529,2293954276,-0.32040160894394,-0.45493045449257,56.35763168334961,0.08504907786846,-0.04522451013327,10.13088417053223,0.12761011719704,-0.51639574766159,2.64466953277588
530,2293962609,-0.31988325715065,-0.45579293370247,56.35727691650391,0.06092710793018,-0.08653858304024,10.14303112030029,0.16782444715500,-0.60105079412460,2.69541120529175
531,2293970942,-0.31956443190575,-0.45549225807190,56.35754394531250,0.08073350042105,-0.07353955507278,10.13122749328613,0.14272251725197,-0.46357917785645,2.63606357574463
532,2293979275,-0.31875249743462,-0.45523563027382,56.35774612426758,0.08864618092775,-0.05964514613152,10.14920997619629,0.20192982256413,-0.46630710363388,2.64481067657471
533,2293987608,-0.31820088624954,-0.45528152585030,56.35804367065430,0.08333335816860,-0.05603498592973,10.16958141326904,0.17157696187496,-0.50444680452347,2.63902187347412
534,2293995941,-0.31771773099899,-0.45589646697044,56.35713577270508,0.08891749382019,-0.05173246935010,10.12722778320312,0.16213811933994,-0.56967341899872,2.58022427558899
535,2294004274,-0.31722471117973,-0.45661282539368,56.35696029663086,0.07074598968029,-0.08117038756609,10.13359546661377,0.16377742588520,-0.58629703521729,2.58358001708984
536,2294012607,-0.31754639744759,-0.45822972059250,56.35663986206055,0.08350456506014,-0.04580451920629,10.15495300292969,0.06602068990469,-0.69122570753098,2.68653583526611
537,2294020940,-0.31708064675331,-0.45795160531998,56.35710144042969,0.08312864601612,-0.06217177212238,10.16239929199219,0.16121599078178,-0.46546187996864,2.65909051895142
538,2294029273,-0.31684419512749,-0.45719766616821,56.35624694824219,0.07138876616955,-0.04651419445872,10.14632797241211,0.13278420269489,-0.40645948052406,2.66441845893860
539,2294037606,-0.31702026724815,-0.45653197169304,56.35671615600586,0.08451097458601,-0.07172124832869,10.12393856048584,0.08519294857979,-0.41970208287239,2.66049957275391
540,2294045939,-0.31628677248955,-0.45736953616142,56.35637664794922,0.08103428035975,-0.04990951716900,10.14050483703613,0.19177378714085,-0.59731119871140,2.64436244964600
541,2294054272,-0.31687530875206,-0.45754113793373,56.35631942749023,0.08873803913593,-0.04952681437135,10.12373065948486,0.03395166993141,-0.52017390727997,2.59611797332764
542,2294062605,-0.31625345349312,-0.45677718520164,56.35607528686523,0.08841700851917,-0.05828438326716,10.14579200744629,0.18078526854515,-0.40492263436317,2.66201066970825
543,2294070938,-0.31597796082497,-0.45695933699608,56.35635757446289,0.07363647967577,-0.04760612547398,10.12621307373047,0.13693369925022,-0.52080142498016,2.63706254959106
544,2294079271,-0.31593608856201,-0.45704621076584,56.35575485229492,0.08811847120523,-0.07850211113691,10.11845302581787,0.11003874987364,-0.50817358493805,2.62932705879211
545,2294087604,-0.31534045934677,-0.45800691843033,56.35593414306641,0.08784814924002,-0.07380814850330,10.16244983673096,0.17632840573788,-0.61403727531433,2.62194991111755
546,2294095937,-0.31546005606651,-0.45882719755173,56.35448455810547,0.08136098086834,-0.06863988935947,10.13889408111572,0.08962421119213,-0.59536451101303,2.55768394470215
547,2294104270,-0.31546428799629,-0.45864188671112,56.35465621948242,0.08207860589027,-0.08368242532015,10.12429618835449,0.10512081533670,-0.47633510828018,2.62617635726929
548,2294112603,-0.31645378470421,-0.45914080739021,56.35429000854492,0.09104602783918,-0.03258895874023,10.15305709838867,-0.01507397554815,-0.55763471126556,2.64715433120728
549,2294120936,-0.31651791930199,-0.45926752686501,56.35458374023438,0.09112842381001,-0.06063482537866,10.14403820037842,0.09797444939613,-0.51516634225845,2.63649892807007
550,2294129269,-0.31575074791908,-0.45947793126106,56.35405731201172,0.10475938767195,-0.06135483831167,10.14350891113281,0.19661486148834,-0.52218461036682,2.65929532051086
551,2294137602,-0.31597599387169,-0.45948353409767,56.35327911376953,0.08290179818869,-0.05087077617645,10.13155651092529,0.07738061249256,-0.49869638681412,2.51001572608948
552,2294145935,-0.31578481197357,-0.45910695195198,56.35309219360352,0.09929579496384,-0.07871507853270,10.11270141601562,0.12768697738647,-0.45074653625488,2.62750816345215
553,2294154268,-0.31565216183662,-0.45926868915558,56.35388183593750,0.07237262278795,-0.04960582032800,10.15768623352051,0.12173166126013,-0.52073740959167,2.69888257980347
554,2294162601,-0.31564712524414,-0.45947158336639,56.35292816162109,0.10371220856905,-0.05423695966601,10.15094661712646,0.10524889826775,-0.51939272880554,2.61027002334595
555,2294170934,-0.31494715809822,-0.45906934142113,56.35250473022461,0.08422454446554,-0.13027171790600,10.15026187896729,0.18885375559330,-0.45102828741074,2.55389308929443
556,2294179267,-0.31380182504654,-0.45883199572563,56.35225677490234,0.08048519492149,-0.00988443568349,10.09678649902344,0.24223385751247,-0.46934247016907,2.67988967895508
557,2294187600,-0.31476530432701,-0.45895382761955,56.35162353515625,0.07988788932562,-0.05705622583628,10.17767047882080,-0.01118061412126,-0.51229757070541,2.52704930305481
558,2294195933,-0.31364563107491,-0.45891872048378,56.35017776489258,0.10301290452480,-0.06789620220661,10.14197158813477,0.23910889029503,-0.49395772814751,2.65381407737732
559,2294204266,-0.31466880440712,-0.45912697911263,56.35081100463867,0.05313323065639,0.01647045835853,10.15470314025879,-0.01591924764216,-0.52423375844955,2.67899298667908
560,2294212599,-0.31536608934402,-0.45889705419540,56.34975051879883,0.06926126033068,-0.14789733290672,10.16575431823730,0.02067068964243,-0.46770313382149,2.55932307243347
561,2294220932,-0.31399324536324,-0.45896667242050,56.35062408447266,0.12332508713007,-0.00801840703934,10.13176345825195,0.26994842290878,-0.50871145725250,2.70616936683655
562,2294229265,-0.31555742025375,-0.45918065309525,56.35091781616211,0.05951714143157,0.00847218744457,10.16187763214111,-0.08320783823729,-0.52259445190430,2.52884244918823
563,2294237598,-0.31610110402107,-0.45821130275726,56.35096740722656,0.07728727161884,-0.17903129756451,10.16011905670166,0.03921539336443,-0.38204911351204,2.60986018180847
564,2294245931,-0.31530645489693,-0.45869356393814,56.35104751586914,0.07362401485443,0.02212962135673,10.12645530700684,0.20022647082806,-0.55581611394882,2.68980216979980
565,2294254264,-0.31614214181900,-0.45969259738922,56.35014343261719,0.08762854337692,-0.08289773762226,10.18499469757080,0.00471301935613,-0.61795622110367,2.49300789833069
566,2294262597,-0.31595426797867,-0.45996314287186,56.34933090209961,0.07955879718065,-0.05932306125760,10.11744403839111,0.12640625238419,-0.52989453077316,2.65173912048340
567,2294270930,-0.31653890013695,-0.45992520451546,56.34809112548828,0.06250104308128,-0.03606643527746,10.15292263031006,0.03393885865808,-0.49267697334290,2.45399737358093
568,2294279263,-0.31536105275154,-0.45950791239738,56.34720611572266,0.06571712344885,-0.12066111713648,10.16783046722412,0.24646016955376,-0.44757032394409,2.60115122795105
569,2294287596,-0.31415888667107,-0.45954024791718,56.34819030761719,0.09891568869352,0.05194210633636,10.12540435791016,0.24950827658176,-0.50346058607101,2.72181987762451
570,2294295929,-0.31525984406471,-0.46059551835060,56.34885025024414,0.12151741236448,-0.10048054903746,10.15260505676270,-0.02729196473956,-0.62361693382263,2.65563273429871
571,2294304262,-0.31387472152710,-0.46018970012665,56.34904098510742,-0.01263794861734,-0.06320779025555,10.13984298706055,0.27148526906967,-0.45025983452797,2.62556171417236
572,2294312595,-0.31372490525246,-0.46124705672264,56.34685516357422,0.15323081612587,-0.06673055142164,10.20247364044189,0.12174445390701,-0.62433415651321,2.45302414894104
573,2294320928,-0.31318300962448,-0.46002301573753,56.34736633300781,0.01210159156471,-0.00670677842572,10.08364200592041,0.17102624475956,-0.35167065262794,2.66528916358948
574,2294329261,-0.31533980369568,-0.46033906936646,56.34496307373047,0.14985793828964,-0.06822579354048,10.14402008056641,-0.15492768585682,-0.53568327426910,2.56249928474426
575,2294337594,-0.31450957059860,-0.46017012000084,56.34663009643555,0.06847918778658,-0.18150088191032,10.13333988189697,0.20600248873234,-0.48036935925484,2.80379819869995
576,2294345927,-0.31407117843628,-0.45710566639900,56.34537124633789,0.04373830929399,0.12409885227680,10.09646606445312,0.15842403471470,-0.12915977835655,2.69935607910156
577,2294354260,-0.31583714485168,-0.45816054940224,56.34415817260742,0.20049244165421,-0.13993205130100,10.21734142303467,-0.10779750347137,-0.62540996074677,2.45819807052612
578,2294362593,-0.31363904476166,-0.45880964398384,56.34642791748047,-0.00461853342131,-0.05425176024437,10.09019470214844,0.36922916769981,-0.57433521747589,2.82402062416077
579,2294370926,-0.31612214446068,-0.45881944894791,56.34572982788086,0.04134478047490,0.02445724979043,10.11724472045898,-0.19322098791599,-0.50013077259064,2.52059435844421
580,2294379259,-0.31625622510910,-0.45944133400917,56.34577941894531,0.16166448593140,-0.25929394364357,10.14809226989746,0.08952175080776,-0.57361799478531,2.70135426521301
581,2294387592,-0.31434112787247,-0.45826482772827,56.34658813476562,0.02991611510515,0.12627881765366,10.20168972015381,0.33459874987602,-0.35839438438416,2.70020151138306
582,2294395925,-0.31787189841270,-0.45920062065125,56.34333801269531,0.19643190503120,-0.00840759277344,10.08692359924316,-0.32179164886475,-0.60700625181198,2.31282448768616
583,2294404258,-0.31503650546074,-0.45835095643997,56.34358596801758,0.05594846978784,-0.34606355428696,10.24658393859863,0.44596946239471,-0.39767381548882,2.63373255729675
584,2294412591,-0.31269353628159,-0.45703133940697,56.34201431274414,-0.01542709302157,0.34572067856789,10.16981124877930,0.38598090410233,-0.33704495429993,2.52095293998718
585,2294420924,-0.31758901476860,-0.45778548717499,56.33802795410156,0.12908078730106,-0.31163713335991,10.08018302917480,-0.48714435100555,-0.58750092983246,2.12511062622070
586,2294429257,-0.31324917078018,-0.45969569683075,56.33952713012695,0.04990209639072,-0.16572934389114,10.20036792755127,0.62818914651871,-0.72881460189819,2.93339347839355
587,2294437590,-0.31461626291275,-0.45833498239517,56.33964157104492,-0.00308220041916,0.23837688565254,10.13317584991455,-0.05882309004664,-0.33622524142265,2.61977267265320
588,2294445923,-0.31619375944138,-0.45688134431839,56.34122848510742,0.15150018036366,-0.33256667852402,10.23698806762695,-0.08356644213200,-0.32280340790749,2.77876043319702
589,2294454256,-0.31221604347229,-0.45704472064972,56.34353256225586,0.07458186894655,0.09080462157726,10.06997203826904,0.58433753252029,-0.52146738767624,2.88070487976074
590,2294462589,-0.31578105688095,-0.45819488167763,56.33998107910156,0.00510564493015,-0.02063327655196,10.21282100677490,-0.32505741715431,-0.63250511884689,2.31191515922546
591,2294470922,-0.31438630819321,-0.45687884092331,56.34069061279297,0.07793473452330,-0.24007399380207,10.08959484100342,0.27222809195518,-0.34198844432831,2.69039106369019
592,2294479255,-0.31298369169235,-0.45845201611519,56.34081268310547,0.20033727586269,0.17337083816528,10.18513774871826,0.27527618408203,-0.68739640712738,2.66065287590027
593,2294487588,-0.31650498509407,-0.45872515439987,56.33926773071289,0.06625437736511,-0.13042739033699,10.15936374664307,-0.31944796442986,-0.53012502193451,2.41716432571411
594,2294495921,-0.31426304578781,-0.45802715420723,56.33976745605469,-0.00226816441864,-0.21562002599239,10.19026565551758,0.37488996982574,-0.41447672247887,2.77612209320068
595,2294504254,-0.31422248482704,-0.45850858092308,56.33977508544922,0.13687048852444,0.12016785144806,10.11858558654785,0.10880926251411,-0.55819821357727,2.60279059410095
596,2294512587,-0.31604355573654,-0.45945078134537,56.34036636352539,0.02643494494259,-0.18235094845295,10.16692733764648,-0.11266421526670,-0.61034882068634,2.63598656654358
597,2294520920,-0.31499052047729,-0.45933461189270,56.34120941162109,0.03717381134629,-0.04819662868977,10.11277484893799,0.23152706027031,-0.48601725697517,2.70386433601379
598,2294529253,-0.31562909483910,-0.45915365219116,56.34023284912109,0.11823134869337,-0.04802493005991,10.10003280639648,0.02920022979379,-0.47487515211105,2.60102319717407
599,2294537586,-0.31566816568375,-0.46033757925034,56.34090805053711,0.13764119148254,-0.02241100370884,10.21822452545166,0.09922955185175,-0.64264839887619,2.68450021743774
600,2294545919,-0.31636652350426,-0.45987492799759,56.33942413330078,0.03570783883333,-0.02666523866355,10.08535766601562,0.02082437276840,-0.44142293930054,2.49556922912598
601,2294554252,-0.31463089585304,-0.46009039878845,56.34005737304688,0.06502726674080,-0.17794120311737,10.21667861938477,0.31397929787636,-0.52548885345459,2.67932581901550
602,2294562585,-0.31434005498886,-0.45936316251755,56.33943939208984,0.01080106757581,0.09240072220564,10.05487155914307,0.13982811570168,-0.40989178419113,2.63649892807007
603,2294570918,-0.31369292736053,-0.46052646636963,56.33900833129883,0.10634125769138,-0.15100693702698,10.47138118743896,0.18252703547478,-0.63806337118149,2.54918003082275
604,2294579251,-0.31303185224533,-0.45803087949753,56.33896636962891,0.15540578961372,0.12744539976120,9.82831096649170,0.18472988903522,-0.19998314976692,2.74523138999939
605,2294587584,-0.31684646010399,-0.46171608567238,56.33529663085938,0.25827509164810,-0.19076460599899,10.03950119018555,-0.35634526610374,-0.93894112110138,2.15990781784058
606,2294595917,-0.31560996174812,-0.45789524912834,56.33488082885742,-0.34281775355339,-0.26467624306679,10.23926353454590,0.25482323765755,-0.03857503831387,2.67032241821289
607,2294604250,-0.31532835960388,-0.45702940225601,56.33633422851562,0.19254444539547,0.16720071434975,10.15646743774414,0.13967444002628,-0.39608576893806,2.77706980705261
608,2294612583,-0.31607496738434,-0.46421876549721,56.33629608154297,0.38954785466194,-0.13788479566574,10.07553577423096,0.01613696664572,-1.36217772960663,2.80091643333435
609,2294620916,-0.31511172652245,-0.45969548821449,56.33917236328125,-0.25690326094627,-0.04098051041365,10.21263694763184,0.22302316129208,0.04236594587564,2.94986367225647
610,2294629249,-0.31705296039581,-0.45679947733879,56.33800125122070,0.08642683923244,0.02164330333471,10.14180088043213,-0.12713624536991,-0.15134172141552,2.55586504936218
611,2294637582,-0.31453689932823,-0.46535524725914,56.33768844604492,0.34745112061501,-0.13883623480797,10.18562793731689,0.40552458167076,-1.52459776401520,2.56039881706238
612,2294645915,-0.31330671906471,-0.46177974343300,56.33558654785156,-0.22982455790043,0.16910563409328,10.11171436309814,0.25165984034538,-0.06753192842007,2.43150806427002
613,2294654248,-0.31607651710510,-0.45857313275337,56.33235168457031,0.19197769463062,-0.26575523614883,10.14744567871094,-0.23064337670803,-0.11258736997843,2.21809029579163
614,2294662581,-0.31072840094566,-0.46318805217743,56.33351898193359,0.32830268144608,-0.09421756863594,10.15334415435791,0.74821740388870,-1.05224549770355,2.79161858558655
615,2294670914,-0.31247308850288,-0.46308705210686,56.33399963378906,-0.19154927134514,0.13211794197559,10.15242195129395,-0.10467257350683,-0.48839944601059,2.65973091125488
616,2294679247,-0.31534618139267,-0.45782503485680,56.33406448364258,-0.02386523969471,-0.32316198945045,10.09716320037842,-0.23881433904171,0.13352701067924,2.68124699592590
617,2294687580,-0.31262317299843,-0.46017774939537,56.33673095703125,0.22103375196457,-0.01475316658616,10.19645595550537,0.43423810601234,-0.78373157978058,2.92145729064941
618,2294695913,-0.31481549143791,-0.46147176623344,56.33555984497070,0.06935252994299,0.17155894637108,10.12569904327393,-0.15736106038094,-0.65256106853485,2.58099269866943
619,2294704246,-0.31688469648361,-0.45977988839149,56.33514404296875,0.14910116791725,-0.27407622337341,10.20272445678711,-0.14537358283997,-0.29580596089363,2.55430269241333
620,2294712579,-0.31355538964272,-0.46114835143089,56.33483123779297,0.16294448077679,-0.01134767662734,10.09469413757324,0.50516396760941,-0.66329342126846,2.65353226661682
621,2294720912,-0.31490224599838,-0.46168318390846,56.33185577392578,-0.07783789932728,0.12193796783686,10.16581058502197,-0.05851572006941,-0.56183540821075,2.24654769897461
622,2294729245,-0.31636703014374,-0.46033191680908,56.33003997802734,0.03269067034125,-0.28261393308640,10.09274578094482,-0.07316707819700,-0.33456033468246,2.44239425659180
623,2294737578,-0.31311327219009,-0.46062460541725,56.33175277709961,0.13892894983292,-0.05677466467023,10.13639926910400,0.49740281701088,-0.53634929656982,2.80847263336182
624,2294745911,-0.31422531604767,-0.46053200960159,56.33244323730469,0.09507954120636,0.08632695674896,10.13420200347900,-0.02782986499369,-0.48732361197472,2.69320869445801
625,2294754244,-0.31644091010094,-0.46004706621170,56.33266067504883,0.13135021924973,-0.20894770324230,10.13193321228027,-0.16071651875973,-0.44032150506973,2.63165760040283
626,2294762577,-0.31499382853508,-0.45989370346069,56.33474349975586,0.01184029597789,-0.04580592364073,10.14235210418701,0.28037342429161,-0.48066395521164,2.84643316268921
627,2294770910,-0.31594768166542,-0.45944464206696,56.33476638793945,-0.04520319774747,0.11353819072247,10.13338375091553,-0.00995113048702,-0.44529068470001,2.60691452026367
628,2294779243,-0.31818774342537,-0.46011441946030,56.33422088623047,0.17324447631836,-0.23529517650604,10.15764331817627,-0.16427689790726,-0.57922750711441,2.48734712600708
629,2294787576,-0.31524932384491,-0.46013236045837,56.33464050292969,0.17499454319477,0.01988240145147,10.09237670898438,0.45682990550995,-0.50141143798828,2.65430068969727
630,2294795909,-0.31762561202049,-0.45945334434509,56.33322143554688,0.12433565407991,0.00085799954832,10.22683811187744,-0.18041388690472,-0.41560381650925,2.43586254119873
631,2294804242,-0.31710755825043,-0.45956718921661,56.33330535888672,-0.00155194604304,-0.21576142311096,10.07051086425781,0.16708166897297,-0.51296347379684,2.61329245567322
632,2294812575,-0.31503137946129,-0.45906162261963,56.33353042602539,-0.05536667257547,-0.03967044502497,10.20251655578613,0.35432171821594,-0.43788817524910,2.67305040359497
633,2294820908,-0.31612035632133,-0.45954948663712,56.33394622802734,0.04049985483289,0.00196078349836,10.12087154388428,-0.02584476396441,-0.55867207050323,2.65446710586548
634,2294829241,-0.31883212924004,-0.46004632115364,56.33441162109375,0.17497184872627,-0.07988044619560,10.14055728912354,-0.21882240474224,-0.55831342935562,2.66399550437927
635,2294837574,-0.31747359037399,-0.45954960584641,56.33623504638672,0.17846880853176,-0.07281158119440,10.16238403320312,0.26997402310371,-0.44034710526466,2.82061386108398
636,2294845907,-0.31793811917305,-0.45967274904251,56.33394241333008,0.08748292177916,0.11823287606239,10.17693996429443,0.04697651043534,-0.51257926225662,2.41985368728638
637,2294854240,-0.31967607140541,-0.46240413188934,56.33160400390625,0.01719883084297,-0.13896867632866,10.09885406494141,-0.10585083067417,-0.82476562261581,2.32093167304993
638,2294862573,-0.31742820143700,-0.46073457598686,56.33077621459961,-0.04545974731445,-0.14903008937836,10.12941646575928,0.37491557002068,-0.29905900359154,2.60773420333862
639,2294870906,-0.31763756275177,-0.46079328656197,56.32964706420898,0.11159793287516,0.11854910105467,10.15388584136963,0.07878939062357,-0.50469011068344,2.46713757514954
640,2294879239,-0.32111233472824,-0.46253731846809,56.32719039916992,0.21370179951191,-0.24374362826347,10.09001541137695,-0.31422263383865,-0.70752924680710,2.47912526130676
641,2294887572,-0.31810078024864,-0.46036446094513,56.33026504516602,0.05925187841058,-0.15689946711063,10.14656352996826,0.47030293941498,-0.23976205289364,2.97378683090210
642,2294895905,-0.31966325640678,-0.45979639887810,56.33148193359375,0.00679867807776,0.19001513719559,10.11101627349854,-0.08010851591825,-0.43240669369698,2.77801752090454
643,2294904238,-0.32223320007324,-0.46132919192314,56.33132171630859,0.02857913635671,-0.27897635102272,10.16322612762451,-0.20469616353512,-0.68235033750534,2.58565449714661
644,2294912571,-0.31796583533287,-0.46101108193398,56.33396148681641,0.06427285820246,-0.08546559512615,10.15162467956543,0.62006944417953,-0.46238818764687,2.84597229957581
645,2294920904,-0.31823077797890,-0.46038016676903,56.33258056640625,0.19996595382690,0.21025976538658,10.19893169403076,0.07161740213633,-0.42303192615509,2.43752765655518
646,2294929237,-0.31956449151039,-0.46139541268349,56.33128356933594,0.27492874860764,-0.22325718402863,10.12009429931641,-0.05700447782874,-0.61867344379425,2.42510437965393
647,2294937570,-0.31755399703979,-0.45939868688583,56.33172988891602,-0.04926484823227,-0.15401624143124,10.15928649902344,0.34676554799080,-0.25945940613747,2.65993571281433
648,2294945903,-0.31707763671875,-0.45660150051117,56.33171844482422,0.01774942316115,0.12602843344212,10.15494728088379,0.16280408203602,-0.16250951588154,2.61598205566406
649,2294954236,-0.31986603140831,-0.45842427015305,56.33146286010742,0.19927634298801,-0.09219194203615,10.23141670227051,-0.22972124814987,-0.71869707107544,2.57200217247009
650,2294962569,-0.31991761922836,-0.45980125665665,56.33189392089844,-0.14087559282780,-0.09613046795130,10.15625572204590,0.10015166550875,-0.66347271203995,2.67135977745056
651,2294970902,-0.32254558801651,-0.46160766482353,56.33078002929688,-0.03101447597146,-0.02780744433403,10.01138496398926,-0.21186813712120,-0.71477806568146,2.46926379203796
652,2294979235,-0.32196435332298,-0.46167510747910,56.33183670043945,0.20804588496685,-0.24152678251266,10.11800098419189,0.17525260150433,-0.50873714685440,2.78951835632324
653,2294987568,-0.32090988755226,-0.45639804005623,56.33306121826172,0.22908492386341,0.06563588976860,10.26060390472412,0.23329445719719,0.13329645991325,2.75358128547668
654,2294995901,-0.32020458579063,-0.46389999985695,56.33197402954102,0.36362537741661,0.04535563290119,10.28164863586426,0.18757306039333,-1.39816594123840,2.37902498245239
655,2295004234,-0.31939879059792,-0.45828658342361,56.33155822753906,-0.34488075971603,-0.16583092510700,9.98342132568359,0.20114859938622,0.17596977949142,2.55594205856323
656,2295012567,-0.31915816664696,-0.45626837015152,56.33039855957031,-0.02864807099104,0.02094269171357,10.13773822784424,0.13319402933121,-0.25587341189384,2.40279459953308
657,2295020900,-0.31979942321777,-0.46366477012634,56.32967376708984,0.25674998760223,-0.12529399991035,10.14458179473877,0.02635704725981,-1.38725411891937,2.51034855842590
658,2295029233,-0.31929090619087,-0.46212223172188,56.33017730712891,0.05649105459452,-0.02227933332324,10.16136360168457,0.16728657484055,-0.31337741017342,2.66846561431885
659,2295037566,-0.32022652029991,-0.45673951506615,56.33089065551758,0.25767725706100,-0.18511570990086,10.05681324005127,-0.00700549315661,0.14676956832409,2.69354176521301
660,2295045899,-0.31767016649246,-0.46101236343384,56.33289718627930,0.05310293287039,0.02956708706915,10.22920322418213,0.41507869958878,-1.01300466060638,2.90747213363647
661,2295054232,-0.32113218307495,-0.45999243855476,56.33248519897461,-0.22634878754616,0.05475650355220,10.13106346130371,-0.31109768152237,-0.37564557790756,2.55504584312439
662,2295062565,-0.32058131694794,-0.45772165060043,56.33238601684570,0.10089944303036,-0.38360226154327,10.10936641693115,0.17158976197243,-0.22805637121201,2.66818380355835
663,2295070898,-0.31972602009773,-0.45698672533035,56.33266067504883,0.15419395267963,0.35687470436096,10.17717933654785,0.20867919921875,-0.41153118014336,2.63688325881958
664,2295079231,-0.32508656382561,-0.45783600211143,56.32580947875977,0.45414647459984,-0.30982100963593,10.02381420135498,-0.54439210891724,-0.59562057256699,1.86612510681152
665,2295087564,-0.31692135334015,-0.46075260639191,56.32777786254883,0.01936229318380,-0.19490472972393,10.23009109497070,1.08655583858490,-0.85153251886368,2.83595681190491
666,2295095897,-0.31985560059547,-0.45339500904083,56.32575225830078,-0.35248509049416,0.33752438426018,10.13276386260986,-0.24824035167694,0.38641634583473,2.42925405502319
667,2295104230,-0.32293719053268,-0.45830795168877,56.32445526123047,0.18780346214771,-0.41328492760658,10.18045902252197,-0.26604226231575,-1.08756756782532,2.44390535354614
668,2295112563,-0.31969764828682,-0.46150842308998,56.32706832885742,0.10455160588026,-0.12936231493950,9.99103260040283,0.49683934450150,-0.88534319400787,2.90035080909729
669,2295120896,-0.32010567188263,-0.45581215620041,56.32765579223633,0.11921997368336,0.17098958790302,10.38514900207520,0.05642815679312,0.18342354893684,2.67760968208313
670,2295129229,-0.32324463129044,-0.45799872279167,56.32839202880859,0.39205551147461,-0.03124833665788,10.02585315704346,-0.27019178867340,-0.76131910085678,2.73524165153503
671,2295137562,-0.32149884104729,-0.46078127622604,56.32903289794922,-0.14533725380898,-0.26587158441544,10.22961997985840,0.31428667902946,-0.83355128765106,2.67825007438660
672,2295145895,-0.31954789161682,-0.45390236377716,56.32951354980469,-0.26103210449219,0.22021949291229,10.05204486846924,0.34064373373985,0.32683765888214,2.64359402656555
673,2295154228,-0.32434046268463,-0.45925110578537,56.32481765747070,0.35035839676857,-0.05735866725445,10.15823650360107,-0.47525930404663,-1.13846313953400,2.03648543357849
674,2295162561,-0.31930670142174,-0.46135517954826,56.32394027709961,0.25078535079956,-0.35985317826271,10.19009399414062,0.70971930027008,-0.75004893541336,2.52269506454468
675,2295170894,-0.31778174638748,-0.45566561818123,56.32436370849609,0.09364341944456,0.45234090089798,10.15082836151123,0.28823700547218,0.18319301307201,2.66060185432434
676,2295179227,-0.32516509294510,-0.45920199155807,56.32068252563477,0.10032697767019,-0.34714666008949,10.13347339630127,-0.78570389747620,-0.92022991180420,2.19380807876587
677,2295187560,-0.31875047087669,-0.45820879936218,56.32468795776367,-0.20834217965603,-0.34534841775894,10.11423015594482,0.87874752283096,-0.38256141543388,3.08387708663940
678,2295195893,-0.31969591975212,-0.45567846298218,56.32629013061523,-0.11395736783743,0.47478362917900,10.19612789154053,-0.00534056778997,-0.19637151062489,2.79912328720093
679,2295204226,-0.32701265811920,-0.45738464593887,56.32450866699219,0.45149073004723,-0.35188251733780,10.05531692504883,-0.77614974975586,-0.70340532064438,2.38947510719299
680,2295212559,-0.32069587707520,-0.45621842145920,56.32798004150391,0.35325756669044,-0.20553058385849,10.21924877166748,0.86811763048172,-0.36030265688896,3.06435894966125
681,2295220892,-0.32054266333580,-0.45424669981003,56.32656097412109,0.08762805163860,0.36902645230293,10.07463836669922,0.12089919298887,-0.26273804903030,2.43437695503235
682,2295229225,-0.32430580258369,-0.45609238743782,56.32309341430664,-0.23066857457161,-0.27148747444153,10.21978664398193,-0.34949344396591,-0.71641731262207,2.26826858520508
683,2295237558,-0.32087218761444,-0.45715224742889,56.32439422607422,-0.39114600419998,-0.14045614004135,10.05148410797119,0.51794546842575,-0.62733101844788,2.75714182853699
684,2295245891,-0.32231292128563,-0.45876166224480,56.32326889038086,0.09073723852634,0.16280020773411,10.19456481933594,-0.06763438135386,-0.69249361753464,2.50107645988464
685,2295254224,-0.32524189352989,-0.46038863062859,56.32262420654297,0.61060279607773,-0.27603092789650,10.05243301391602,-0.24762563407421,-0.69520878791809,2.52551245689392
686,2295262557,-0.32140693068504,-0.45832630991936,56.32598495483398,0.40241986513138,-0.09238387644291,10.20354747772217,0.56881529092789,-0.25290215015411,2.94755768775940
687,2295270890,-0.32212117314339,-0.45685651898384,56.32701110839844,-0.19281783699989,0.21212844550610,10.13562393188477,0.01987664774060,-0.32239359617233,2.72868442535400
