sep=,
DeviceTag:,left thigh
FirmwareVersion:,2.2.1
AppVersion:,2023.6.0
StartTime: ,2025-04-02_17:14:38_000 PDT
© Movella Technologies B. V. 2005-2025

PacketCounter,SampleTimeFine,Euler_X,Euler_Y,Euler_Z,Acc_X,Acc_Y,Acc_Z,Gyr_X,Gyr_Y,Gyr_Z
0,2332926346,-0.29202768206596,-0.42738658189774,56.48149490356445,0.00000000000000,0.00000000000000,0.00000000000000,0.00000000000000,0.00000000000000,0.00000000000000
1,2332934679,-0.29124408960342,-0.43238645792007,56.50297927856445,0.08330887556076,-0.08904835581779,10.15905952453613,0.11299721151590,-0.61315363645554,2.57531929016113
2,2332943012,-0.31703236699104,-0.44714134931564,56.54253768920898,0.08235832303762,-0.06141246110201,10.16454601287842,0.15574736893177,-0.50664961338043,2.58512949943542
3,2332951345,-0.31641972064972,-0.45108431577682,56.56401062011719,0.09586771577597,-0.06678728759289,10.15172004699707,0.09347915649414,-0.48687541484833,2.57531929016113
4,2332959678,-0.33270445466042,-0.46782004833221,56.59474563598633,0.08375900238752,-0.06111084669828,10.15538311004639,0.13940548896790,-0.48859155178070,2.64580965042114
5,2332968011,-0.33226782083511,-0.47203513979912,56.61692428588867,0.08076103031635,-0.06646222621202,10.12059116363525,0.07542111724615,-0.52124971151352,2.65892386436462
6,2332976344,-0.34209701418877,-0.48105171322823,56.65348815917969,0.08330560475588,-0.06820661574602,10.13156414031982,0.10994908213615,-0.46558988094330,2.59007263183594
7,2332984677,-0.34127032756805,-0.48457673192024,56.67488479614258,0.07123817503452,-0.05335390195251,10.15720653533936,0.12144988775253,-0.43774726986885,2.56381821632385
8,2332993010,-0.34564951062202,-0.48800641298294,56.69205474853516,0.07740293443203,-0.04407790303230,10.12789440155029,0.12296114861965,-0.50004112720490,2.57040143013000
9,2333001343,-0.34514951705933,-0.49127027392387,56.71321105957031,0.08347621560097,-0.06593934446573,10.14986801147461,0.08220889419317,-0.40652349591255,2.53600120544434
10,2333009676,-0.34507864713669,-0.49283891916275,56.73283767700195,0.08578421175480,-0.07683514803648,10.12605571746826,0.14447709918022,-0.44765993952751,2.74086403846741
11,2333018009,-0.34432733058929,-0.49608418345451,56.75429534912109,0.10123761743307,-0.05476568266749,10.16081905364990,0.11335579305887,-0.40496107935905,2.57365441322327
12,2333026342,-0.34555104374886,-0.50072002410889,56.78834152221680,0.07618334144354,-0.06183813512325,10.13888072967529,0.05229146033525,-0.54245829582214,2.58687114715576
13,2333034675,-0.34519794583321,-0.50455552339554,56.80941772460938,0.05681115388870,-0.06163945049047,10.14988327026367,0.06558524072170,-0.47532331943512,2.52619075775146
14,2333043008,-0.34512019157410,-0.50556540489197,56.80831527709961,0.10504771023989,-0.06735739111900,10.13516807556152,0.15395434200764,-0.54443055391312,2.63433432579041
15,2333051341,-0.34485957026482,-0.50959134101868,56.82966995239258,0.09130910784006,-0.04880641028285,10.13152027130127,0.05405883863568,-0.49819684028625,2.56064224243164
16,2333059674,-0.34487867355347,-0.51257622241974,56.84437561035156,0.08089789003134,-0.06698818504810,10.14802265167236,0.05574938654900,-0.50475406646729,2.65077900886536
17,2333068007,-0.34460851550102,-0.51723939180374,56.86518859863281,0.08001111447811,-0.04677849262953,10.13702011108398,0.05531394481659,-0.57524448633194,2.49504399299622
18,2333076340,-0.34401011466980,-0.51964128017426,56.87057495117188,0.07136717438698,-0.07959999144077,10.14984607696533,0.06059047579765,-0.51461565494537,2.58195352554321
19,2333084673,-0.34426090121269,-0.52399736642838,56.89290618896484,0.06680689007044,-0.05938215553761,10.16266441345215,-0.00665970193222,-0.53892356157303,2.67544531822205
20,2333093006,-0.34452012181282,-0.52479726076126,56.91785049438477,0.09156231582165,-0.03946580737829,10.16443729400635,0.05413569137454,-0.49655759334564,2.61963200569153
21,2333101339,-0.34424582123756,-0.52886962890625,56.93972778320312,0.08101798593998,-0.06312404572964,10.14065551757812,0.05738868936896,-0.50311475992203,2.62129664421082
22,2333109672,-0.34386825561523,-0.53163927793503,56.96841430664062,0.08549194037914,-0.06128816679120,10.12782955169678,0.03023760206997,-0.68167161941528,2.60820770263672
23,2333118005,-0.34317311644554,-0.53551459312439,56.99057388305664,0.08831039071083,-0.04844075813890,10.12415313720703,0.10838663578033,-0.48044618964195,2.65564537048340
24,2333126338,-0.34278088808060,-0.53782010078430,56.99121093750000,0.08335515856743,-0.07394270598888,10.14614009857178,0.00280475849286,-0.58974212408066,2.57875132560730
25,2333134671,-0.34179514646530,-0.54174363613129,57.01263427734375,0.07677525281906,-0.07380719482899,10.12783050537109,0.14270971715450,-0.48562031984329,2.56873631477356
26,2333143004,-0.34134227037430,-0.54353362321854,57.02559661865234,0.07744388282299,-0.07913925498724,10.14065551757812,0.10969296097755,-0.54604423046112,2.67042469978333
27,2333151337,-0.34079182147980,-0.54811286926270,57.04669189453125,0.08388325572014,-0.06808830052614,10.14063262939453,0.08973947167397,-0.56394869089127,2.52946996688843
28,2333159670,-0.34160086512566,-0.55038058757782,57.06299972534180,0.08846462517977,-0.05892723426223,10.13694858551025,0.01904418319464,-0.61271810531616,2.59678387641907
29,2333168003,-0.34139487147331,-0.55502712726593,57.08463287353516,0.08009684085846,-0.06429367512465,10.13697052001953,0.05044723674655,-0.57355391979218,2.59184050559998
30,2333176336,-0.34197795391083,-0.55716240406036,57.09156036376953,0.09185206890106,-0.06806181371212,10.14060401916504,0.03241481631994,-0.58492666482925,2.66233086585999
31,2333184669,-0.34144949913025,-0.56146335601807,57.11310958862305,0.08154690265656,-0.07884834706783,10.13879489898682,0.08843314647675,-0.53118795156479,2.58356714248657
32,2333193002,-0.34268894791603,-0.56279820203781,57.12853622436523,0.09198296070099,-0.03683469444513,10.13691329956055,-0.00940042454749,-0.47314614057541,2.66893935203552
33,2333201335,-0.34241366386414,-0.56666404008865,57.15002441406250,0.09045504033566,-0.06976114958525,10.15890216827393,0.05925853550434,-0.47857642173767,2.57706117630005
34,2333209668,-0.34150767326355,-0.56795895099640,57.15497589111328,0.07639196515083,-0.07489834725857,10.16443920135498,0.19893296062946,-0.44020628929138,2.60469889640808
35,2333218001,-0.34154203534126,-0.57187533378601,57.17611312866211,0.07718570530415,-0.06375174224377,10.15344429016113,0.02142631076276,-0.48482626676559,2.53612971305847
36,2333226334,-0.34157797694206,-0.57360726594925,57.19421768188477,0.09413406997919,-0.07313579320908,10.12591934204102,0.09995955228806,-0.51820152997971,2.59342861175537
37,2333234667,-0.34148928523064,-0.57727056741714,57.21712875366211,0.09891809523106,-0.04931265860796,10.14603424072266,0.03838293254375,-0.45703479647636,2.74923992156982
38,2333243000,-0.34097629785538,-0.57908475399017,57.20481491088867,0.08450037986040,-0.07645297050476,10.13875961303711,0.15582418441772,-0.49245926737785,2.55231738090515
39,2333251333,-0.33988729119301,-0.58273744583130,57.22716903686523,0.10185128450394,-0.06006077304482,10.12038421630859,0.15797579288483,-0.45472949743271,2.68184852600098
40,2333259666,-0.33924847841263,-0.58515197038651,57.23862838745117,0.06787817925215,-0.05011230334640,10.10768032073975,0.18008087575436,-0.54345721006393,2.62114286422729
41,2333267999,-0.33990627527237,-0.58882910013199,57.25982284545898,0.08143204450607,-0.05753250420094,10.13875865936279,-0.05207373946905,-0.45785447955132,2.54285311698914
42,2333276332,-0.34012398123741,-0.59155565500259,57.26937484741211,0.08057453483343,-0.04655329510570,10.14607620239258,0.04975565522909,-0.60961884260178,2.49519777297974
43,2333284665,-0.33990406990051,-0.59564572572708,57.29168319702148,0.09947817772627,-0.05599830672145,10.14051818847656,0.05430218204856,-0.50631660223007,2.67550945281982
44,2333292998,-0.33984100818634,-0.59713613986969,57.29725646972656,0.08542425185442,-0.05935456976295,10.13141345977783,0.05971958115697,-0.45227053761482,2.66399526596069
45,2333301331,-0.33844816684723,-0.60175800323486,57.31971359252930,0.07883357256651,-0.05908806622028,10.14059066772461,0.19470658898354,-0.57155597209930,2.69657659530640
46,2333309664,-0.33780407905579,-0.60353225469589,57.33232879638672,0.09260017424822,-0.05360704660416,10.14785766601562,0.12303797155619,-0.49386805295944,2.56225585937500
47,2333317997,-0.33705565333366,-0.60669684410095,57.35370635986328,0.05987963452935,-0.07477714121342,10.15348148345947,0.11745408177376,-0.39545819163322,2.56548357009888
48,2333326330,-0.33669430017471,-0.60867458581924,57.36786651611328,0.07720696926117,-0.06217732280493,10.14424610137939,0.09647601842880,-0.53456914424896,2.59509348869324
49,2333334663,-0.33601546287537,-0.61194509267807,57.39027404785156,0.07800153642893,-0.05656511709094,10.14607810974121,0.10938558727503,-0.41010954976082,2.69014787673950
50,2333342996,-0.33622545003891,-0.61343181133270,57.40188217163086,0.07671725004911,-0.06557511538267,10.16622638702393,0.02311684936285,-0.48626065254211,2.58869004249573
51,2333351329,-0.33439651131630,-0.61712855100632,57.42382431030273,0.09047687798738,-0.04742284491658,10.14051914215088,0.24811230599880,-0.46074882149696,2.63576889038086
52,2333359662,-0.33391389250755,-0.61969226598740,57.43636703491211,0.07243707031012,-0.06875499337912,10.13694286346436,0.09878129512072,-0.61492091417313,2.55910515785217
53,2333367995,-0.33334448933601,-0.62386131286621,57.45763015747070,0.09521582722664,-0.07094740867615,10.14051151275635,0.09652724117041,-0.51656222343445,2.55413627624512
54,2333376328,-0.33306699991226,-0.62530118227005,57.47967529296875,0.08356798440218,-0.05407055839896,10.16070461273193,0.08710120618343,-0.48034372925758,2.55416178703308
55,2333384661,-0.33226603269577,-0.63008844852448,57.50178527832031,0.10062605142593,-0.05434207618237,10.12765026092529,0.12547133862972,-0.59058749675751,2.65905213356018
56,2333392994,-0.33151400089264,-0.63213825225830,57.50776290893555,0.07759445160627,-0.05730552598834,10.13142108917236,0.13569141924381,-0.54322671890259,2.60982203483582
57,2333401327,-0.33098125457764,-0.63695138692856,57.52940750122070,0.08181314170361,-0.06821801513433,10.13324356079102,0.09248020499945,-0.59353309869766,2.60339260101318
58,2333409660,-0.33116859197617,-0.63794797658920,57.52642059326172,0.09216950833797,-0.04824392497540,10.12584877014160,0.02731757983565,-0.42388993501663,2.62644529342651
59,2333417993,-0.33037582039833,-0.64169019460678,57.54834747314453,0.07793102413416,-0.05698455870152,10.12774372100830,0.12365273386240,-0.46438610553741,2.64427280426025
60,2333426326,-0.33043628931046,-0.64369690418243,57.55605316162109,0.07258767634630,-0.07872246950865,10.12046241760254,0.03223551809788,-0.54366213083267,2.53797388076782
61,2333434659,-0.32975563406944,-0.64718776941299,57.57753753662109,0.07917480170727,-0.06231880933046,10.11675739288330,0.11076875776052,-0.43472474813461,2.59511876106262
62,2333442992,-0.32947105169296,-0.64892101287842,57.59032440185547,0.07836018502712,-0.05298740044236,10.14604854583740,0.08697313815355,-0.51966160535812,2.69027590751648
63,2333451325,-0.32881879806519,-0.65309584140778,57.61175155639648,0.08962923288345,-0.07328024506569,10.15149879455566,0.10805366188288,-0.51830404996872,2.59025239944458
64,2333459658,-0.32945576310158,-0.65409797430038,57.62139511108398,0.07818239927292,-0.04909260571003,10.16619777679443,-0.02172087319195,-0.42973005771637,2.66763305664062
65,2333467991,-0.32922914624214,-0.65884155035019,57.64292526245117,0.09203001856804,-0.03481423854828,10.15328598022461,0.05797782912850,-0.58656603097916,2.60188126564026
66,2333476324,-0.32840803265572,-0.66072970628738,57.65689086914062,0.08811005949974,-0.07670711725950,10.16433143615723,0.13581947982311,-0.53677189350128,2.64593768119812
67,2333484657,-0.32773670554161,-0.66464316844940,57.67820358276367,0.08556046336889,-0.05817079171538,10.13685703277588,0.11010279506445,-0.48562031984329,2.57547283172607
68,2333492990,-0.32719504833221,-0.66665011644363,57.69161605834961,0.08759291470051,-0.07458243519068,10.12403869628906,0.10935997217894,-0.54788845777512,2.61489343643188
69,2333501323,-0.32663270831108,-0.67074632644653,57.71343994140625,0.06845564395189,-0.07020881772041,10.15343761444092,0.09847392141819,-0.50839132070541,2.63948297500610
70,2333509656,-0.32642853260040,-0.67231923341751,57.72103500366211,0.06781780719757,-0.05357625335455,10.15525436401367,0.07900711148977,-0.50152677297592,2.67562437057495
71,2333517989,-0.32649958133698,-0.67554366588593,57.74221420288086,0.09261276572943,-0.04321791231632,10.15511131286621,0.02277105301619,-0.40403893589973,2.57407689094543
72,2333526322,-0.32591411471367,-0.67697000503540,57.75005722045898,0.09642927348614,-0.05428690090775,10.12944698333740,0.11680091917515,-0.48572278022766,2.62799525260925
73,2333534655,-0.32510259747505,-0.68021595478058,57.77170944213867,0.08273922652006,-0.04819802567363,10.15333747863770,0.12781502306461,-0.40720227360725,2.63119649887085
74,2333542988,-0.32527086138725,-0.68126690387726,57.77429580688477,0.07922039180994,-0.05898916721344,10.12956142425537,0.02068349346519,-0.43674832582474,2.59378695487976
75,2333551321,-0.32464995980263,-0.68458575010300,57.79668426513672,0.06855541467667,-0.06958479434252,10.14245128631592,0.10664486140013,-0.41669237613678,2.72636628150940
76,2333559654,-0.32376509904861,-0.68666666746140,57.80304336547852,0.09687725454569,-0.06477470695972,10.14227771759033,0.14988170564175,-0.56661254167557,2.60336709022522
77,2333567987,-0.32353442907333,-0.69009047746658,57.82448577880859,0.07389742136002,-0.05842883139849,10.12775135040283,0.06020626425743,-0.42914092540741,2.61504697799683
78,2333576320,-0.32328057289124,-0.69172793626785,57.82074737548828,0.07808031886816,-0.06395585089922,10.13139915466309,0.07519058883190,-0.51302754878998,2.56912064552307
79,2333584653,-0.32245981693268,-0.69494563341141,57.84229278564453,0.09241486340761,-0.04044416919351,10.14959621429443,0.13120891153812,-0.40401333570480,2.63940572738647
80,2333592986,-0.32153630256653,-0.69718360900879,57.85165405273438,0.09992140531540,-0.05151307210326,10.12576198577881,0.15120083093643,-0.58306974172592,2.59848737716675
81,2333601319,-0.32077878713608,-0.70102995634079,57.87271118164062,0.08174060285091,-0.07815468311310,10.16252136230469,0.12326850742102,-0.47934475541115,2.58210706710815
82,2333609652,-0.32089996337891,-0.70288628339767,57.88352584838867,0.07397741079330,-0.05034887418151,10.12959003448486,0.03251726925373,-0.53518378734589,2.68571615219116
83,2333617985,-0.32046514749527,-0.70718109607697,57.90537643432617,0.06529201567173,-0.06096912175417,10.14063358306885,0.08497522771358,-0.53441542387009,2.68558859825134
84,2333626318,-0.32048687338829,-0.70880085229874,57.91694641113281,0.09300580620766,-0.07826337963343,10.14963054656982,0.04269893467426,-0.51402646303177,2.67591905593872
85,2333634651,-0.31997734308243,-0.71354091167450,57.93810653686523,0.07114060223103,-0.04264424368739,10.14423847198486,0.09369687736034,-0.58709108829498,2.60852813720703
86,2333642984,-0.31978517770767,-0.71625530719757,57.95158767700195,0.09497605264187,-0.06716013699770,10.13860702514648,0.06786491721869,-0.64732295274734,2.54471063613892
87,2333651317,-0.31914928555489,-0.72069275379181,57.97253417968750,0.07251165807247,-0.05342840775847,10.14057636260986,0.10900136828423,-0.55126953125000,2.59043145179749
88,2333659650,-0.31921696662903,-0.72317528724670,57.96933364868164,0.09186817705631,-0.05394504591823,10.17524528503418,0.03907451406121,-0.61886554956436,2.62186026573181
89,2333667983,-0.31872308254242,-0.72829061746597,57.99065017700195,0.05742383748293,-0.06183571368456,10.13885974884033,0.09304370731115,-0.63297891616821,2.65287899971008
90,2333676316,-0.31839784979820,-0.72973132133484,57.99352645874023,0.06892135739326,-0.07854733616114,10.17542457580566,0.08530820906162,-0.50006669759750,2.57903313636780
91,2333684649,-0.31794035434723,-0.73420768976212,58.01428985595703,0.06663662195206,-0.05820345506072,10.16259956359863,0.08761349320412,-0.55585455894470,2.58233761787415
92,2333692982,-0.31736567616463,-0.73572212457657,58.01601791381836,0.08540403842926,-0.06608428806067,10.15698528289795,0.12128341943026,-0.51711297035217,2.61500859260559
93,2333701315,-0.31687080860138,-0.73927366733551,58.03686904907227,0.07840690016747,-0.07119183242321,10.13323783874512,0.09300529211760,-0.44608473777771,2.60033154487610
94,2333709648,-0.31630033254623,-0.74015253782272,58.04376220703125,0.07779757678509,-0.05272099748254,10.12223625183105,0.12439554184675,-0.44171750545502,2.64447760581970
95,2333717981,-0.31577801704407,-0.74401938915253,58.06427764892578,0.07457294315100,-0.06339128315449,10.14607715606689,0.09709076583385,-0.48385295271873,2.57245087623596
96,2333726314,-0.31545141339302,-0.74555301666260,58.06670379638672,0.06787289679050,-0.06483030319214,10.14246463775635,0.09304370731115,-0.52314513921738,2.56433057785034
97,2333734647,-0.31516164541245,-0.74940264225006,58.08739852905273,0.07106452435255,-0.05197079107165,10.16257095336914,0.06935054063797,-0.48334059119225,2.59883308410645
98,2333742980,-0.31495520472527,-0.75064522027969,58.08267974853516,0.09862317144871,-0.06578535586596,10.14772796630859,0.08031343668699,-0.49340704083443,2.52175998687744
99,2333751313,-0.31490519642830,-0.75463163852692,58.10287475585938,0.08510883152485,-0.05417874082923,10.14781379699707,0.03935627266765,-0.49917018413544,2.55633926391602
100,2333759646,-0.31469482183456,-0.75646394491196,58.10205841064453,0.08709889650345,-0.06519307941198,10.12950325012207,0.08100502192974,-0.56225800514221,2.62675261497498
101,2333767979,-0.31433641910553,-0.76064473390579,58.12339401245117,0.08234275132418,-0.06126084551215,10.10572814941406,0.08041588962078,-0.52450269460678,2.69885659217834
102,2333776312,-0.31360530853271,-0.76134175062180,58.12431716918945,0.07551337033510,-0.06996452063322,10.12777328491211,0.14639815688133,-0.42581102252007,2.71822094917297
103,2333784645,-0.31351095438004,-0.76541322469711,58.14530563354492,0.06966927647591,-0.05122641101480,10.13694953918457,0.04779616370797,-0.51069664955139,2.66949033737183
104,2333792978,-0.31364896893501,-0.76641112565994,58.13463592529297,0.09113795310259,-0.03556035459042,10.13126373291016,0.04383876919746,-0.46797212958336,2.69742250442505
105,2333801311,-0.31319940090179,-0.77082395553589,58.15461349487305,0.06931466609240,-0.05285293236375,10.14977455139160,0.08743420243263,-0.55098783969879,2.56118035316467
106,2333809644,-0.31208592653275,-0.77250421047211,58.16259384155273,0.08982764184475,-0.05541598796844,10.11116409301758,0.18756023049355,-0.55144882202148,2.58538556098938
107,2333817977,-0.31177672743797,-0.77638685703278,58.18269348144531,0.08340220898390,-0.06218446418643,10.16432380676270,0.07244986295700,-0.48833543062210,2.57595968246460
108,2333826310,-0.31156748533249,-0.77792400121689,58.18704986572266,0.08070477843285,-0.04919199645519,10.12770843505859,0.07811061292887,-0.53272485733032,2.59729647636414
109,2333834643,-0.31133902072906,-0.78163003921509,58.20716094970703,0.09451237320900,-0.04599079117179,10.14041137695312,0.06311347335577,-0.46847152709961,2.59080290794373
110,2333842976,-0.31063488125801,-0.78200411796570,58.22082138061523,0.06839673221111,-0.07039270550013,10.13883209228516,0.13533282279968,-0.39294803142548,2.61010336875916
111,2333851309,-0.31017446517944,-0.78543925285339,58.24070358276367,0.07714194804430,-0.05044809728861,10.13323783874512,0.09166053682566,-0.43462231755257,2.57754731178284
112,2333859642,-0.30981612205505,-0.78608608245850,58.24563598632812,0.08690578490496,-0.04892893135548,10.12216472625732,0.09304371476173,-0.42980682849884,2.49227786064148
113,2333867975,-0.30923697352409,-0.79043143987656,58.26597976684570,0.08224286884069,-0.05218853056431,10.16066837310791,0.10577399283648,-0.54640287160873,2.63005709648132
114,2333876308,-0.30778312683105,-0.79269695281982,58.24802398681641,0.08446737378836,-0.05758790671825,10.14051246643066,0.22537967562675,-0.62616562843323,2.63947010040283
115,2333884641,-0.30732196569443,-0.79667007923126,58.26776885986328,0.05839610472322,-0.04695610702038,10.15172100067139,0.09023894369602,-0.50015634298325,2.58094143867493
116,2333892974,-0.30719640851021,-0.79785853624344,58.27484130859375,0.06982659548521,-0.05466334521770,10.16079044342041,0.06591823697090,-0.50283300876617,2.64990782737732
117,2333901307,-0.30624088644981,-0.80139338970184,58.29399871826172,0.06115163490176,-0.05779601633549,10.15172195434570,0.15018905699253,-0.44912001490593,2.52652406692505
118,2333909640,-0.30543074011803,-0.80316430330276,58.29253005981445,0.05547394230962,-0.07563423365355,10.14813804626465,0.14584743976593,-0.57687097787857,2.57256531715393
119,2333917973,-0.30450934171677,-0.80735659599304,58.31164169311523,0.08966473490000,-0.07145912200212,10.16978836059570,0.14507903158665,-0.52938222885132,2.52827882766724
120,2333926306,-0.30343720316887,-0.80870610475540,58.30988693237305,0.09419108927250,-0.06416646391153,10.14960289001465,0.18515247106552,-0.53180277347565,2.70023965835571
121,2333934639,-0.30330058932304,-0.81209921836853,58.32942581176758,0.09295990318060,-0.06756271421909,10.15328025817871,0.05249636992812,-0.43362337350845,2.58605170249939
122,2333942972,-0.30315971374512,-0.81358730792999,58.33353042602539,0.07311893999577,-0.07203946262598,10.13882350921631,0.07268039882183,-0.54563444852829,2.56965851783752
123,2333951305,-0.30228587985039,-0.81798040866852,58.35268402099609,0.07063605636358,-0.06623718887568,10.15165615081787,0.14285057783127,-0.55557268857956,2.53983092308044
124,2333959638,-0.30174914002419,-0.81885975599289,58.35382461547852,0.07835498452187,-0.03706311434507,10.15886592864990,0.12561221420765,-0.47800007462502,2.65463376045227
125,2333967971,-0.30088227987289,-0.82289850711823,58.37386322021484,0.09235094487667,-0.06505341082811,10.15877342224121,0.14118565618992,-0.51278412342072,2.66446971893311
126,2333976304,-0.30002138018608,-0.82502359151840,58.37305831909180,0.09104913473129,-0.06662830710411,10.14048290252686,0.16444340348244,-0.62817633152008,2.63821482658386
127,2333984637,-0.29911059141159,-0.82837086915970,58.39273452758789,0.06757530570030,-0.03953722864389,10.14617061614990,0.14638535678387,-0.43098515272141,2.62994194030762
128,2333992970,-0.29846480488777,-0.82894653081894,58.39323425292969,0.10470931231976,-0.04302444308996,10.14764308929443,0.13607563078403,-0.44548276066780,2.61361265182495
129,2334001303,-0.29829522967339,-0.83269876241684,58.41235733032227,0.07940251380205,-0.05072632059455,10.15706348419189,0.05791378766298,-0.47963938117027,2.56652092933655
130,2334009636,-0.29830855131149,-0.83353209495544,58.41462707519531,0.07531429827213,-0.06518413126469,10.12050533294678,0.05485288798809,-0.47624552249908,2.59440207481384
131,2334017969,-0.29819566011429,-0.83767211437225,58.43408584594727,0.07793466001749,-0.06702496856451,10.13880252838135,0.05198408663273,-0.52698731422424,2.61415028572083
132,2334026302,-0.29764407873154,-0.83839666843414,58.43560028076172,0.09282566606998,-0.04199995100498,10.14410972595215,0.12408815324306,-0.46656328439713,2.61537981033325
133,2334034635,-0.29726031422615,-0.84263145923615,58.45457458496094,0.08767663687468,-0.04890231043100,10.14233493804932,0.08421960473061,-0.53937172889709,2.56319069862366
134,2334042968,-0.29680481553078,-0.84376680850983,58.45667266845703,0.08205705881119,-0.06314132362604,10.13143539428711,0.11114016920328,-0.51711297035217,2.57943010330200
135,2334051301,-0.29586082696915,-0.84799551963806,58.47609329223633,0.07195936888456,-0.06602209806442,10.16267108917236,0.15181557834148,-0.53783494234085,2.62028527259827
136,2334059634,-0.29528874158859,-0.84862071275711,58.46938323974609,0.07921423017979,-0.04058197885752,10.13142776489258,0.12785343825817,-0.46003165841103,2.66788887977600
137,2334067967,-0.29541143774986,-0.85274225473404,58.48822784423828,0.08139524608850,-0.04970314353704,10.14423751831055,0.02385966107249,-0.52621883153915,2.56848025321960
138,2334076300,-0.29473945498466,-0.85323202610016,58.49089813232422,0.07208087295294,-0.06739769130945,10.15536212921143,0.13804793357849,-0.44725018739700,2.66125512123108
139,2334084633,-0.29402714967728,-0.85729640722275,58.51021575927734,0.08925989270210,-0.06449462473392,10.14051914215088,0.12598361074924,-0.52073734998703,2.62045145034790
140,2334092966,-0.29345762729645,-0.85807675123215,58.50627517700195,0.09634751826525,-0.05363615602255,10.16606235504150,0.12690570950508,-0.48472374677658,2.61058998107910
141,2334101299,-0.29355877637863,-0.86243522167206,58.52587509155273,0.08295813947916,-0.03633989021182,10.12956714630127,0.02843179926276,-0.55736577510834,2.66370105743408
142,2334109632,-0.29296961426735,-0.86315178871155,58.53347015380859,0.07937259227037,-0.05068179592490,10.13694953918457,0.12489501386881,-0.47659128904343,2.49585127830505
143,2334117965,-0.29224207997322,-0.86710375547409,58.55284118652344,0.04539113864303,-0.04857255890965,10.14464759826660,0.12804557383060,-0.50931352376938,2.63852238655090
144,2334126298,-0.29125097393990,-0.86791324615479,58.55649566650391,0.05186772719026,-0.04681993648410,10.15923213958740,0.17406153678894,-0.49758210778236,2.59396648406982
145,2334134631,-0.28994911909103,-0.87171614170074,58.57571792602539,0.07006683200598,-0.06041608378291,10.15356731414795,0.19733206927776,-0.49162676930428,2.62338423728943
146,2334142964,-0.28953322768211,-0.87245893478394,58.58400726318359,0.09266535192728,-0.06147429347038,10.14965343475342,0.10535134375095,-0.49719792604446,2.62884020805359
147,2334151297,-0.28943690657616,-0.87657690048218,58.60309982299805,0.09016478806734,-0.08323527127504,10.13691329956055,0.05185601860285,-0.53011214733124,2.61604571342468
148,2334159630,-0.28951078653336,-0.87662512063980,58.60589218139648,0.08307176083326,-0.06071612238884,10.14428138732910,0.05175356194377,-0.41372114419937,2.58315753936768
149,2334167963,-0.28862744569778,-0.88051849603653,58.62501525878906,0.07174608111382,-0.07643267512321,10.14260196685791,0.14609079062939,-0.50498461723328,2.62209081649780
150,2334176296,-0.28844094276428,-0.88190323114395,58.63783645629883,0.07672742754221,-0.06553916633129,10.13521194458008,0.08477030694485,-0.57867681980133,2.60285472869873
151,2334184629,-0.28754863142967,-0.88644051551819,58.65682601928711,0.07617226243019,-0.05799140036106,10.13520431518555,0.14863942563534,-0.58217316865921,2.60086941719055
152,2334192962,-0.28699955344200,-0.88742417097092,58.66041183471680,0.10474316775799,-0.05213969945908,10.12753582000732,0.13019716739655,-0.53576016426086,2.57960987091064
153,2334201295,-0.28761708736420,-0.89116114377975,58.67856597900391,0.09750376641750,-0.03506466001272,10.14041137695312,-0.03437430411577,-0.48661923408508,2.51004147529602
154,2334209628,-0.28772079944611,-0.89137923717499,58.67581939697266,0.07694081217051,-0.05940802395344,10.17549610137939,0.04746317863464,-0.44315186142921,2.53575801849365
155,2334217961,-0.28716397285461,-0.89476680755615,58.69462966918945,0.07463926821947,-0.07025177776814,10.13892364501953,0.10838664323092,-0.44655859470367,2.59276270866394
156,2334226294,-0.28616288304329,-0.89493656158447,58.70226669311523,0.08960079401731,-0.04890425130725,10.15701389312744,0.18426880240440,-0.44226816296577,2.64484906196594
157,2334234627,-0.28594583272934,-0.89886057376862,58.72117233276367,0.08472799509764,-0.05382598564029,10.17905902862549,0.06867177039385,-0.51260483264923,2.60138177871704
158,2334242960,-0.28538870811462,-0.89886325597763,58.72312545776367,0.07743094116449,-0.05699743330479,10.14069843292236,0.13020996749401,-0.42432546615601,2.56315255165100
159,2334251293,-0.28546994924545,-0.90301698446274,58.74240875244141,0.06689114123583,-0.05443938449025,10.11336708068848,0.03197937458754,-0.54092139005661,2.65088129043579
160,2334259626,-0.28513228893280,-0.90417492389679,58.74837112426758,0.08169995993376,-0.04231583699584,10.14613342285156,0.10440362989902,-0.56788045167923,2.56027102470398
161,2334267959,-0.28496325016022,-0.90892070531845,58.76751708984375,0.08460665494204,-0.07345809042454,10.17729091644287,0.06239627301693,-0.61403727531433,2.63437294960022
162,2334276292,-0.28426074981689,-0.90991812944412,58.76886749267578,0.09490869194269,-0.06483452767134,10.15699958801270,0.15149538218975,-0.55283200740814,2.67475342750549
163,2334284625,-0.28321495652199,-0.91371965408325,58.78700256347656,0.07757058739662,-0.05258900299668,10.11142826080322,0.16531427204609,-0.50096321105957,2.51718783378601
164,2334292958,-0.28318387269974,-0.91414946317673,58.79316329956055,0.08405213057995,-0.05815922841430,10.16446685791016,0.07123319059610,-0.48801526427269,2.61618709564209
165,2334301291,-0.28293350338936,-0.91799896955490,58.81223297119141,0.09001069515944,-0.05486261099577,10.12775802612305,0.07230898737907,-0.50773817300797,2.62932705879211
166,2334309624,-0.28268525004387,-0.91804939508438,58.81593322753906,0.07467352598906,-0.07936553657055,10.14631271362305,0.09725724905729,-0.44782647490501,2.63570499420166
167,2334317957,-0.28169730305672,-0.92210245132446,58.83524322509766,0.10288039594889,-0.07736808806658,10.13862323760986,0.16195879876614,-0.53191798925400,2.66329097747803
168,2334326290,-0.28135490417480,-0.92313134670258,58.83404159545898,0.10524885356426,-0.05524962767959,10.14954471588135,0.11301001906395,-0.56808537244797,2.63414239883423
169,2334334623,-0.28138810396194,-0.92619681358337,58.85263824462891,0.08562650531530,-0.05749125406146,10.14798641204834,0.03901048377156,-0.41480976343155,2.58360552787781
170,2334342956,-0.28111115098000,-0.92676210403442,58.86081695556641,0.06674847751856,-0.07087754458189,10.12810230255127,0.10681135207415,-0.51371908187866,2.67189788818359
171,2334351289,-0.28029593825340,-0.93028503656387,58.87962722778320,0.06635502725840,-0.06144760921597,10.13542747497559,0.14221023023129,-0.47233933210373,2.60437870025635
172,2334359622,-0.27937498688698,-0.93179064989090,58.88731765747070,0.07258722186089,-0.06342121213675,10.14451026916504,0.18432006239891,-0.63286370038986,2.59444046020508
173,2334367955,-0.27918514609337,-0.93592250347137,58.90606689453125,0.07219845056534,-0.05760250613093,10.15915966033936,0.06595665961504,-0.54523742198944,2.60171461105347
174,2334376288,-0.27887666225433,-0.93575823307037,58.90919876098633,0.07630971819162,-0.03750350698829,10.17372226715088,0.11202386766672,-0.44018065929413,2.58489894866943
175,2334384621,-0.27845972776413,-0.93903696537018,58.92864608764648,0.07206559181213,-0.07387445122004,10.13356781005859,0.09616864472628,-0.44443255662918,2.69163322448730
176,2334392954,-0.27775731682777,-0.93891930580139,58.93358612060547,0.07501516491175,-0.07197341322899,10.15917491912842,0.15921808779240,-0.45166862010956,2.58626961708069
177,2334401287,-0.27672064304352,-0.94210904836655,58.95236587524414,0.07253111153841,-0.03487369418144,10.14814376831055,0.16982236504555,-0.43394359946251,2.60916852951050
178,2334409620,-0.27591815590858,-0.94222772121429,58.95416259765625,0.09159057587385,-0.06160394102335,10.15343761444092,0.17105185985565,-0.48652964830399,2.57310366630554
179,2334417953,-0.27513527870178,-0.94623273611069,58.97267532348633,0.08178439736366,-0.07723778486252,10.13530445098877,0.13832968473434,-0.53295540809631,2.57998108863831
180,2334426286,-0.27465203404427,-0.94688940048218,58.97091293334961,0.09139503538609,-0.05386287719011,10.12780189514160,0.13829125463963,-0.55576485395432,2.69320893287659
181,2334434619,-0.27470731735229,-0.95022189617157,58.98963928222656,0.05942854285240,-0.04959865659475,10.13006877899170,0.03798590973020,-0.45392268896103,2.61344623565674
182,2334442952,-0.27459576725960,-0.95046371221542,58.99425125122070,0.08248350769281,-0.05100768059492,10.16272163391113,0.09345353394747,-0.51003068685532,2.61968326568604
183,2334451285,-0.27362561225891,-0.95337009429932,59.01297760009766,0.07341960817575,-0.05572232604027,10.14638519287109,0.16107511520386,-0.40578070282936,2.61415028572083
184,2334459618,-0.27341067790985,-0.95282685756683,59.02044296264648,0.08191811293364,-0.05237551033497,10.17189121246338,0.10510802268982,-0.42176401615143,2.66876006126404
185,2334467951,-0.27208554744720,-0.95624369382858,59.03929519653320,0.08380150049925,-0.05601492896676,10.14991092681885,0.20487545430660,-0.46807453036308,2.62711095809937
186,2334476284,-0.27203419804573,-0.95540976524353,59.04399490356445,0.08190823346376,-0.04092638194561,10.15539741516113,0.08633276820183,-0.39161598682404,2.63768959045410
187,2334484617,-0.27237337827682,-0.95942163467407,59.06223678588867,0.06177149713039,-0.04855383560061,10.15205001831055,0.00326581485569,-0.53964066505432,2.55651831626892
188,2334492950,-0.27226975560188,-0.95961874723434,59.06768798828125,0.07216188311577,-0.06578377634287,10.14277935028076,0.08913753926754,-0.52146738767624,2.54111146926880
189,2334501283,-0.27126660943031,-0.96274781227112,59.08651733398438,0.05769124999642,-0.05159046500921,10.16676425933838,0.16674865782261,-0.43563413619995,2.62904500961304
190,2334509616,-0.27085229754448,-0.96319895982742,59.09164810180664,0.09074328839779,-0.05932104960084,10.15899372100830,0.12735398113728,-0.56055468320847,2.58357977867126
191,2334517949,-0.27001234889030,-0.96637678146362,59.11064529418945,0.08325218409300,-0.07138414680958,10.16097640991211,0.14861381053925,-0.44312629103661,2.65381431579590
192,2334526282,-0.27037128806114,-0.96583729982376,59.11737823486328,0.08121932297945,-0.06181256845593,10.18113327026367,0.03665396943688,-0.44559803605080,2.60709357261658
193,2334534615,-0.27047449350357,-0.96894097328186,59.13650131225586,0.06587466597557,-0.04784926772118,10.14835834503174,0.03583431616426,-0.43563407659531,2.67107796669006
194,2334542948,-0.27119472622871,-0.96873086690903,59.13837432861328,0.09584157168865,-0.07030731439590,10.13332271575928,-0.00398301379755,-0.49154999852180,2.67640614509583
195,2334551281,-0.27128416299820,-0.97243571281433,59.15695190429688,0.07887808978558,-0.06704860180616,10.16287899017334,0.03587273508310,-0.50956952571869,2.61053872108459
196,2334559614,-0.27132594585419,-0.97178417444229,59.16167831420898,0.08750269562006,-0.05843385308981,10.15905952453613,0.07949378341436,-0.44389465451241,2.62160396575928
197,2334567947,-0.27082163095474,-0.97528058290482,59.18046188354492,0.06989868730307,-0.05873738974333,10.16849422454834,0.10751575231552,-0.48600447177887,2.63459062576294
198,2334576280,-0.27028048038483,-0.97442466020584,59.18552780151367,0.07657116651535,-0.04809347912669,10.14639854431152,0.14853693544865,-0.42371070384979,2.53906250000000
199,2334584613,-0.26935851573944,-0.97764021158218,59.20466613769531,0.06573100388050,-0.05434587597847,10.15207195281982,0.15993528068066,-0.45351281762123,2.67853188514709
200,2334592946,-0.26918363571167,-0.97714823484421,59.20788574218750,0.08098427951336,-0.05891715735197,10.16833686828613,0.10422433167696,-0.47446534037590,2.57561373710632
201,2334601279,-0.26941239833832,-0.98140352964401,59.22665405273438,0.06924796104431,-0.05058351159096,10.15202140808105,0.02020963281393,-0.57939404249191,2.63711357116699
202,2334609612,-0.26920527219772,-0.98114919662476,59.23341751098633,0.09570246189833,-0.02864704839885,10.15525341033936,0.11146033555269,-0.51077347993851,2.63305354118347
203,2334617945,-0.26919782161713,-0.98524230718613,59.25197219848633,0.08218866586685,-0.06787873804569,10.14455986022949,0.04852617159486,-0.56248861551285,2.61230611801147
204,2334626278,-0.26912790536880,-0.98415428400040,59.25801086425781,0.07757016271353,-0.06735870987177,10.15378761291504,0.09224966913462,-0.41328570246696,2.62160420417786
205,2334634611,-0.26916632056236,-0.98766070604324,59.27606964111328,0.07774606347084,-0.05250198021531,10.16658401489258,0.04264769703150,-0.49344542622566,2.55653095245361
206,2334642944,-0.26920902729034,-0.98723608255386,59.28105545043945,0.08665715157986,-0.05871817469597,10.13532638549805,0.08022378385067,-0.49984899163246,2.56941485404968
207,2334651277,-0.26848879456520,-0.98992067575455,59.29983139038086,0.07345246523619,-0.05371434986591,10.16483306884766,0.13588352501392,-0.39531728625298,2.64428567886353
208,2334659610,-0.26842769980431,-0.98954093456268,59.30609512329102,0.06597549468279,-0.04184760525823,10.17224216461182,0.09095614403486,-0.51018434762955,2.52999496459961
209,2334667943,-0.26715743541718,-0.99284023046494,59.32382583618164,0.07451359182596,-0.06063402071595,10.18316555023193,0.20068754255772,-0.47198075056076,2.51923704147339
210,2334676276,-0.26776310801506,-0.99265575408936,59.32839584350586,0.07202715426683,-0.04931493848562,10.15570449829102,0.01284553948790,-0.54138255119324,2.56673860549927
211,2334684609,-0.26731196045876,-0.99659323692322,59.34617614746094,0.08039501309395,-0.04620726406574,10.15373706817627,0.10084325075150,-0.54833674430847,2.52838134765625
212,2334692942,-0.26753807067871,-0.99538183212280,59.35006713867188,0.09992474317551,-0.06057878211141,10.14064693450928,0.05678676068783,-0.42508107423782,2.53844761848450
213,2334701275,-0.26710817217827,-0.99891322851181,59.36858367919922,0.08553787320852,-0.06477256864309,10.14272212982178,0.10182938724756,-0.50226950645447,2.62022089958191
214,2334709608,-0.26620721817017,-0.99817270040512,59.37449264526367,0.07572295516729,-0.04157300293446,10.17031097412109,0.19640995562077,-0.48647841811180,2.67033529281616
215,2334717941,-0.26674368977547,-1.00152266025543,59.39242172241211,0.06444250047207,-0.04788664355874,10.14304447174072,-0.01597047597170,-0.48107376694679,2.55394411087036
216,2334726274,-0.26652342081070,-1.00115382671356,59.39821624755859,0.06947702914476,-0.06471315026283,10.15582656860352,0.11162683367729,-0.53724581003189,2.59072613716125
217,2334734607,-0.26628825068474,-1.00458920001984,59.41785049438477,0.07077327370644,-0.05369276553392,10.13564109802246,0.08033905178308,-0.49461093544960,2.75994682312012
218,2334742940,-0.26592415571213,-1.00482034683228,59.42182540893555,0.08193073421717,-0.06359557062387,10.14648342132568,0.13115768134594,-0.61681634187698,2.58579516410828
219,2334751273,-0.26537981629372,-1.00962233543396,59.43962097167969,0.07137262821198,-0.07339423149824,10.17048931121826,0.11414983123541,-0.66048866510391,2.54012537002563
220,2334759606,-0.26485845446587,-1.00909566879272,59.44966125488281,0.06168188527226,-0.06323743611574,10.14682865142822,0.15135452151299,-0.53237909078598,2.60199642181396
221,2334767939,-0.26412773132324,-1.01229417324066,59.46765899658203,0.07206223905087,-0.05834459513426,10.15031814575195,0.13739477097988,-0.46785682439804,2.56590604782104
222,2334776272,-0.26299560070038,-1.01215147972107,59.47037506103516,0.09336908906698,-0.05256958305836,10.14263534545898,0.22778737545013,-0.58650195598602,2.60312342643738
223,2334784605,-0.26268872618675,-1.01533329486847,59.48908996582031,0.07049389183521,-0.04848473519087,10.13752174377441,0.08888139575720,-0.46884298324585,2.65660619735718
224,2334792938,-0.26249992847443,-1.01540362834930,59.49383926391602,0.07410816103220,-0.03937251493335,10.15209293365479,0.11330458521843,-0.61763608455658,2.62057995796204
225,2334801271,-0.26218482851982,-1.01936769485474,59.51217651367188,0.06525494903326,-0.04753847047687,10.16326522827148,0.08930403739214,-0.56410235166550,2.61248540878296
226,2334809604,-0.26216512918472,-1.01855874061584,59.51775741577148,0.08585799485445,-0.06766003370285,10.13549804687500,0.09282598644495,-0.52000743150711,2.60422492027283
227,2334817937,-0.26140803098679,-1.02273476123810,59.53636169433594,0.08559473603964,-0.06364241242409,10.16297912597656,0.14249201118946,-0.59267497062683,2.64497709274292
228,2334826270,-0.26107841730118,-1.02156162261963,59.54019927978516,0.08342013508081,-0.05945478752255,10.18315029144287,0.13264332711697,-0.48062554001808,2.64322257041931
229,2334834603,-0.26063936948776,-1.02531564235687,59.55755615234375,0.06563433259726,-0.05592327564955,10.15599060058594,0.10239290446043,-0.54192042350769,2.49758005142212
230,2334842936,-0.26182630658150,-1.02495455741882,59.56154632568359,0.06726881861687,-0.04855563119054,10.16877269744873,-0.04926897957921,-0.58581036329269,2.64502835273743
231,2334851269,-0.26171991229057,-1.02854871749878,59.57997131347656,0.05356794223189,-0.06210741400719,10.14340972900391,0.06498331576586,-0.52527117729187,2.63247752189636
232,2334859602,-0.26146161556244,-1.02689146995544,59.58484268188477,0.10003180801868,-0.04945119470358,10.17187023162842,0.12594519555569,-0.43783691525459,2.58752417564392
233,2334867935,-0.26097819209099,-1.03098773956299,59.60387802124023,0.05703252553940,-0.06017545983195,10.14885997772217,0.11029490083456,-0.58955013751984,2.70611858367920
234,2334876268,-0.26052907109261,-1.02968549728394,59.60792160034180,0.10598708689213,-0.06240539252758,10.17915058135986,0.14807590842247,-0.48652958869934,2.55461025238037
235,2334884601,-0.26058667898178,-1.03371500968933,59.62593460083008,0.05807244405150,-0.06714697182178,10.15621280670166,0.04554210603237,-0.58191698789597,2.58524465560913
236,2334892934,-0.33549478650093,-0.45335701107979,57.36513519287109,0.07038281112909,-0.05895244702697,10.14132785797119,0.15949985384941,-0.54270160198212,2.64656543731689
237,2334901267,-0.33702981472015,-0.44601219892502,57.32857894897461,0.06674282252789,-0.05274664983153,10.17435169219971,0.05038320273161,-0.44424051046371,2.60476279258728
238,2334909600,-0.33695268630981,-0.44592478871346,57.33114624023438,0.07836570590734,-0.05188063904643,10.16498947143555,0.10125307738781,-0.51063263416290,2.57812404632568
239,2334917933,-0.33721014857292,-0.44618868827820,57.33098983764648,0.09514372050762,-0.05695401877165,10.16287803649902,0.06723736971617,-0.53860336542130,2.59164834022522
240,2334926266,-0.33747321367264,-0.44641649723053,57.32463836669922,0.07776520401239,-0.07000906020403,10.14126300811768,0.05995011702180,-0.54817026853561,2.56056571006775
241,2334934599,-0.33706796169281,-0.44641155004501,57.32521057128906,0.08212160319090,-0.07205239683390,10.14851570129395,0.14669272303581,-0.50604766607285,2.67955613136292
242,2334942932,-0.33769097924232,-0.44665810465813,57.32027435302734,0.05941307172179,-0.04586272686720,10.13971805572510,0.01726399734616,-0.55105191469193,2.57417964935303
243,2334951265,-0.33753082156181,-0.44691005349159,57.32009506225586,0.10161518305540,-0.05162578076124,10.12064743041992,0.11659599840641,-0.53599071502686,2.58962488174438
244,2334959598,-0.33731964230537,-0.44745793938637,57.31724929809570,0.09593393653631,-0.06370569765568,10.13177776336670,0.11742846667767,-0.58692461252213,2.58648729324341
245,2334967931,-0.33747479319572,-0.44823452830315,57.31664657592773,0.09419591724873,-0.05771110951900,10.15927982330322,0.07867413014174,-0.59832292795181,2.53600168228149
246,2334976264,-0.33785161375999,-0.44786304235458,57.31357192993164,0.06946404278278,-0.05521015077829,10.16156959533691,0.04807791486382,-0.47513127326965,2.67233324050903
247,2334984597,-0.33781275153160,-0.44843664765358,57.31390762329102,0.06439657509327,-0.07486978918314,10.14891624450684,0.10378888249397,-0.57632029056549,2.65068936347961
248,2334992930,-0.33751437067986,-0.44798889756203,57.30922317504883,0.07560679316521,-0.06102261319757,10.14501094818115,0.12871152162552,-0.46593576669693,2.64533591270447
249,2335001263,-0.33703303337097,-0.44798117876053,57.30894851684570,0.09190185368061,-0.05491857975721,10.16118335723877,0.15573453903198,-0.50512552261353,2.57786798477173
250,2335009596,-0.33629044890404,-0.44683945178986,57.30475997924805,0.09080111980438,-0.05271999537945,10.15571212768555,0.18137440085411,-0.38163930177689,2.57748365402222
251,2335017929,-0.33582687377930,-0.44683712720871,57.30479049682617,0.09548631310463,-0.05100240930915,10.16844367980957,0.15435139834881,-0.50666242837906,2.61406087875366
252,2335026262,-0.33638188242912,-0.44720202684402,57.29987335205078,0.08603322505951,-0.07575409859419,10.14671993255615,0.02563985250890,-0.56106698513031,2.65150880813599
253,2335034595,-0.33659809827805,-0.44728723168373,57.29933166503906,0.07407765090466,-0.05606739595532,10.14873790740967,0.07105389237404,-0.51752287149429,2.54433894157410
254,2335042928,-0.33609133958817,-0.44749015569687,57.29595184326172,0.09185622632504,-0.03725532069802,10.17398643493652,0.15442821383476,-0.54112631082535,2.62735438346863
255,2335051261,-0.33630400896072,-0.44733253121376,57.29605865478516,0.08710592240095,-0.04959687218070,10.14298725128174,0.07328233122826,-0.48792561888695,2.62146329879761
256,2335059594,-0.33618527650833,-0.44761148095131,57.29216766357422,0.08959014713764,-0.06988909095526,10.14667701721191,0.10542818903923,-0.55043709278107,2.53101944923401
257,2335067927,-0.33684399724007,-0.44816797971725,57.29191589355469,0.08813375234604,-0.06027157977223,10.17232704162598,0.01946681924164,-0.57231169939041,2.57953262329102
258,2335076260,-0.33672329783440,-0.44837176799774,57.28795623779297,0.07481978833675,-0.06812831014395,10.14880180358887,0.10627345740795,-0.54060119390488,2.56716108322144
259,2335084593,-0.33703857660294,-0.44819036126137,57.28738403320312,0.07707104831934,-0.05523777380586,10.15973186492920,0.05962993949652,-0.48409628868103,2.54126524925232
260,2335092926,-0.33701074123383,-0.44876900315285,57.28375244140625,0.08934131264687,-0.04181527346373,10.11549758911133,0.09598935395479,-0.58597689867020,2.58707642555237
261,2335101259,-0.33618834614754,-0.44869151711464,57.28340148925781,0.08232869952917,-0.04816109314561,10.12666416168213,0.19708873331547,-0.49753093719482,2.56789088249207
262,2335109592,-0.33622148633003,-0.44857507944107,57.27915573120117,0.07160652428865,-0.04109483957291,10.16531848907471,0.08912473171949,-0.50183409452438,2.62808465957642
263,2335117925,-0.33657971024513,-0.44854328036308,57.27902603149414,0.06179837882519,-0.05105550587177,10.14906692504883,0.05431498959661,-0.50175726413727,2.59396672248840
264,2335126258,-0.33624801039696,-0.44819295406342,57.27623748779297,0.06215462461114,-0.07121023535728,10.14363861083984,0.13138823211193,-0.47447815537453,2.61286973953247
265,2335134591,-0.33570149540901,-0.44786715507507,57.27582168579102,0.07982189208269,-0.07081758230925,10.16344356536865,0.16411039233208,-0.46642240881920,2.55840110778809
266,2335142924,-0.33527001738548,-0.44824349880219,57.27217483520508,0.10319872200489,-0.04537828266621,10.15374374389648,0.14279936254025,-0.56055474281311,2.55225372314453
267,2335151257,-0.33511465787888,-0.44858494400978,57.27162551879883,0.10127615928650,-0.05951950699091,10.18314170837402,0.11710829287767,-0.54777324199677,2.54264831542969
268,2335159590,-0.33471843600273,-0.44759953022003,57.26848983764648,0.08141835033894,-0.07217219471931,10.14329528808594,0.14031477272511,-0.39618819952011,2.59961438179016
269,2335167923,-0.33434835076332,-0.44736611843109,57.26792144775391,0.06967124342918,-0.04862659797072,10.13981151580811,0.14203093945980,-0.47848677635193,2.54234099388123
270,2335176256,-0.33387190103531,-0.44718712568283,57.26462936401367,0.07364314049482,-0.05426537990570,10.15074062347412,0.14876747131348,-0.49341979622841,2.63588428497314
271,2335184589,-0.33471706509590,-0.44708231091499,57.26518249511719,0.08773571252823,-0.05001961439848,10.15412330627441,-0.00195948895998,-0.49534085392952,2.67684125900269
272,2335192922,-0.33382278680801,-0.44750910997391,57.26079940795898,0.08390146493912,-0.07525558769703,10.15061187744141,0.19938123226166,-0.56503725051880,2.65527415275574
273,2335201255,-0.33349379897118,-0.44783011078835,57.26036071777344,0.07301145046949,-0.04617096483707,10.14894485473633,0.13701055943966,-0.54554486274719,2.55576300621033
274,2335209588,-0.33304902911186,-0.44836157560349,57.25716400146484,0.08323661983013,-0.06350486725569,10.15978145599365,0.14671836793423,-0.57728087902069,2.54428768157959
275,2335217921,-0.33358240127563,-0.44838303327560,57.25682449340820,0.07616837322712,-0.06089856475592,10.12330245971680,0.03240200877190,-0.50878834724426,2.56995296478271
276,2335226254,-0.33308339118958,-0.44802507758141,57.25218582153320,0.08744553476572,-0.07862356305122,10.10298061370850,0.15255838632584,-0.47085371613503,2.56372880935669
277,2335234587,-0.33251097798347,-0.44766229391098,57.25262832641602,0.09362822771072,-0.05298593267798,10.15040397644043,0.16710728406906,-0.46324628591537,2.66208767890930
278,2335242920,-0.33266168832779,-0.44700652360916,57.24993133544922,0.07399424165487,-0.05071682482958,10.13799381256104,0.07661217451096,-0.43542918562889,2.65970516204834
279,2335251253,-0.33205443620682,-0.44687259197235,57.24979782104492,0.09639868140221,-0.03994104266167,10.15398120880127,0.16982236504555,-0.49142187833786,2.59485006332397
280,2335259586,-0.33207306265831,-0.44681534171104,57.24562454223633,0.08056341111660,-0.05461123585701,10.14339447021484,0.09146842360497,-0.50538164377213,2.55304741859436
281,2335267919,-0.33260136842728,-0.44656875729561,57.24549102783203,0.07421987503767,-0.07030311971903,10.15272903442383,0.03439991548657,-0.47592535614967,2.59467077255249
282,2335276252,-0.33285954594612,-0.44596752524376,57.24259567260742,0.07040640711784,-0.07178273797035,10.12352371215820,0.06139731779695,-0.44283169507980,2.64687252044678
283,2335284585,-0.33218753337860,-0.44507667422295,57.24274063110352,0.08686804026365,-0.05288238823414,10.16709232330322,0.17855681478977,-0.39833974838257,2.62912201881409
284,2335292918,-0.33232578635216,-0.44548600912094,57.23867797851562,0.09233817458153,-0.04219165071845,10.16512393951416,0.07735499739647,-0.56198912858963,2.60102319717407
285,2335301251,-0.33183208107948,-0.44554772973061,57.23864746093750,0.06775701045990,-0.06882122159004,10.15108489990234,0.15722016990185,-0.51383435726166,2.60670924186707
286,2335309584,-0.33170211315155,-0.44630557298660,57.23464584350586,0.08939392119646,-0.07478883862495,10.12317276000977,0.10911663621664,-0.60484170913696,2.56967115402222
287,2335317917,-0.33161476254463,-0.44703462719917,57.23480224609375,0.10205870866776,-0.05917123332620,10.16498851776123,0.10873243957758,-0.59323853254318,2.62878894805908
288,2335326250,-0.33198767900467,-0.44702526926994,57.23244857788086,0.07660156488419,-0.05814268067479,10.13807964324951,0.04928179085255,-0.51111930608749,2.62599706649780
289,2335334583,-0.33247482776642,-0.44688424468040,57.23305130004883,0.06376301497221,-0.05096573755145,10.15666294097900,0.03949715197086,-0.49078154563904,2.68191289901733
290,2335342916,-0.33253487944603,-0.44648513197899,57.23091888427734,0.06930528581142,-0.05698296055198,10.15657043457031,0.08657611161470,-0.46391221880913,2.64525914192200
291,2335351249,-0.33248585462570,-0.44623678922653,57.23075866699219,0.10387013852596,-0.06443590670824,10.14302158355713,0.10496713221073,-0.47659122943878,2.58929157257080
292,2335359582,-0.33208236098289,-0.44568473100662,57.22909545898438,0.09730906039476,-0.06526046991348,10.15599060058594,0.14190286397934,-0.44567492604256,2.65778446197510
293,2335367915,-0.33171066641808,-0.44499474763870,57.22924041748047,0.08276291191578,-0.05230911448598,10.15445327758789,0.14279934763908,-0.42444065213203,2.62819957733154
294,2335376248,-0.33124077320099,-0.44415518641472,57.22539901733398,0.08375108987093,-0.06328122317791,10.14532566070557,0.14951027929783,-0.41017353534698,2.56739139556885
295,2335384581,-0.33197015523911,-0.44461032748222,57.22593307495117,0.06935407966375,-0.03739211708307,10.16571903228760,0.01070675067604,-0.56134879589081,2.67438244819641
296,2335392914,-0.33154806494713,-0.44432166218758,57.22160339355469,0.07538306713104,-0.04917427152395,10.13083457946777,0.14466920495033,-0.47715482115746,2.62018275260925
297,2335401247,-0.33144572377205,-0.44495546817780,57.22225189208984,0.08274099975824,-0.05889734253287,10.14902400970459,0.11139630526304,-0.58347946405411,2.68813729286194
298,2335409580,-0.33094406127930,-0.44462126493454,57.21939086914062,0.09060168266296,-0.04302392527461,10.13599872589111,0.15455630421638,-0.46959862112999,2.58232474327087
299,2335417913,-0.33117613196373,-0.44443339109421,57.21879577636719,0.07169958949089,-0.06244767829776,10.18593978881836,0.06944019347429,-0.48450604081154,2.53903675079346
300,2335426246,-0.33093214035034,-0.44474595785141,57.21548843383789,0.07975208014250,-0.08736998587847,10.14922428131104,0.12246166169643,-0.54815745353699,2.61580276489258
301,2335434579,-0.33138957619667,-0.44409608840942,57.21562957763672,0.07593565434217,-0.09054878354073,10.12918186187744,0.04251963272691,-0.42855179309845,2.62794375419617
302,2335442912,-0.33207878470421,-0.44300597906113,57.21222686767578,0.06860107928514,-0.06915655732155,10.15860271453857,0.01306325942278,-0.38074278831482,2.68239951133728
303,2335451245,-0.33204269409180,-0.44300931692123,57.21199798583984,0.06153058633208,-0.05712014809251,10.16422367095947,0.10314852744341,-0.50612443685532,2.58316993713379
304,2335459578,-0.33203521370888,-0.44318524003029,57.20988845825195,0.08501477539539,-0.03033570386469,10.13430976867676,0.09546424448490,-0.53350609540939,2.62602257728577
305,2335467911,-0.33254721760750,-0.44346025586128,57.20990753173828,0.09470873326063,-0.06449767947197,10.13604068756104,0.03580870106816,-0.53990972042084,2.61196041107178
306,2335476244,-0.33252888917923,-0.44391381740570,57.20890045166016,0.06395407021046,-0.06981031596661,10.15692043304443,0.09766707569361,-0.56472986936569,2.68852138519287
307,2335484577,-0.33241984248161,-0.44390493631363,57.20878982543945,0.08067774027586,-0.04214060679078,10.14546871185303,0.11152438074350,-0.50663679838181,2.59631013870239
308,2335492910,-0.33238333463669,-0.44385924935341,57.20420455932617,0.08486502617598,-0.04603939130902,10.15639877319336,0.09826901555061,-0.50421619415283,2.57675361633301
309,2335501243,-0.33307403326035,-0.44407626986504,57.20379638671875,0.06631273031235,-0.06409095227718,10.13308715820312,0.01430555153638,-0.53213578462601,2.55977153778076
310,2335509576,-0.33248406648636,-0.44413837790489,57.20036315917969,0.08280963450670,-0.06201367452741,10.16568279266357,0.16645410656929,-0.51817595958710,2.57770156860352
311,2335517909,-0.33253687620163,-0.44412401318550,57.19993972778320,0.07209458202124,-0.04762278497219,10.15491104125977,0.08979070931673,-0.50544571876526,2.55890083312988
312,2335526242,-0.33218070864677,-0.44471454620361,57.19670104980469,0.08770240843296,-0.05861120671034,10.13626194000244,0.13765090703964,-0.58061075210571,2.54211068153381
313,2335534575,-0.33243817090988,-0.44464635848999,57.19698333740234,0.06126782670617,-0.06994725018740,10.13694286346436,0.06659701466560,-0.49892690777779,2.64464426040649
314,2335542908,-0.33263939619064,-0.44395694136620,57.19472122192383,0.08494247496128,-0.05983405560255,10.12170696258545,0.07082335650921,-0.42855173349380,2.64441323280334
315,2335551241,-0.33295261859894,-0.44415920972824,57.19566345214844,0.10490342974663,-0.05647474154830,10.14137649536133,0.06224259361625,-0.53135454654694,2.72199916839600
316,2335559574,-0.33299106359482,-0.44429051876068,57.19275665283203,0.07482522726059,-0.06560951471329,10.13298034667969,0.08980349451303,-0.52661585807800,2.66915678977966
317,2335567907,-0.33287799358368,-0.44486591219902,57.19350051879883,0.08374772965908,-0.07387501746416,10.13097000122070,0.11344543099403,-0.57561582326889,2.69856190681458
318,2335576240,-0.33300322294235,-0.44513216614723,57.19190979003906,0.06434514373541,-0.06550633162260,10.16988849639893,0.08081290125847,-0.54408484697342,2.68908500671387
319,2335584573,-0.33200061321259,-0.44494870305061,57.19211959838867,0.08868734538555,-0.05347627401352,10.16928100585938,0.21854063868523,-0.48366075754166,2.63478255271912
320,2335592906,-0.33188390731812,-0.44497320055962,57.18905258178711,0.09653166681528,-0.06178667396307,10.12517547607422,0.10768225044012,-0.51311719417572,2.58201766014099
321,2335601239,-0.33246380090714,-0.44427719712257,57.18959426879883,0.08280846476555,-0.07822663336992,10.14938163757324,0.02889285795391,-0.42423582077026,2.67471528053284
322,2335609572,-0.33216217160225,-0.44366699457169,57.18764495849609,0.07152774184942,-0.05276353284717,10.13675785064697,0.13250243663788,-0.43576216697693,2.61114072799683
323,2335617905,-0.33143454790115,-0.44402098655701,57.18788528442383,0.07123342156410,-0.04865900054574,10.15325164794922,0.18496039509773,-0.54900264739990,2.63870167732239
324,2335626238,-0.33110827207565,-0.44446590542793,57.18480300903320,0.08364190161228,-0.03899432718754,10.12546157836914,0.13583229482174,-0.56414073705673,2.59339022636414
325,2335634571,-0.33067819476128,-0.44448384642601,57.18465805053711,0.08792492747307,-0.04465153813362,10.14737129211426,0.14912606775761,-0.50912135839462,2.59310841560364
326,2335642904,-0.32989391684532,-0.44318491220474,57.18354034423828,0.08887270092964,-0.08332063257694,10.13466167449951,0.18916113674641,-0.35379666090012,2.65143203735352
327,2335651237,-0.32914912700653,-0.44230753183365,57.18341827392578,0.10385999828577,-0.07016627490520,10.13059139251709,0.18712478876114,-0.40145191550255,2.59573388099670
328,2335659570,-0.32886394858360,-0.44347989559174,57.17988967895508,0.06738907098770,-0.06142627820373,10.15163421630859,0.13006909191608,-0.64923125505447,2.57079863548279
329,2335667903,-0.32856732606888,-0.44333764910698,57.17943191528320,0.07715218514204,-0.07539974898100,10.13679981231689,0.13350139558315,-0.48852753639221,2.55394411087036
330,2335676236,-0.32871055603027,-0.44300785660744,57.17796707153320,0.08291879296303,-0.06482319533825,10.14029026031494,0.07871254533529,-0.47157081961632,2.68772721290588
331,2335684569,-0.32849317789078,-0.44319447875023,57.17691802978516,0.07840006053448,-0.03446678072214,10.14398097991943,0.12356304377317,-0.52748668193817,2.48360729217529
332,2335692902,-0.32911849021912,-0.44408115744591,57.17396926879883,0.07476649433374,-0.05235056579113,10.13315105438232,0.02090121805668,-0.61593276262283,2.60829782485962
333,2335701235,-0.32909026741982,-0.44428783655167,57.17330551147461,0.07649571448565,-0.07454620301723,10.13503265380859,0.10094570368528,-0.53090626001358,2.52996921539307
334,2335709568,-0.33009836077690,-0.44405385851860,57.17145538330078,0.07838732749224,-0.03947469592094,10.14953899383545,-0.02589599229395,-0.48141953349113,2.64482355117798
335,2335717901,-0.32962569594383,-0.44393715262413,57.17122650146484,0.09358314424753,-0.04133622720838,10.14734268188477,0.15504297614098,-0.49157553911209,2.58183789253235
336,2335726234,-0.32886719703674,-0.44352743029594,57.17077636718750,0.07100254297256,-0.06216650828719,10.13883209228516,0.18700954318047,-0.46071046590805,2.61424040794373
337,2335734567,-0.32804912328720,-0.44332632422447,57.17053222656250,0.09014039486647,-0.06958647817373,10.17868709564209,0.19510361552238,-0.48107376694679,2.57971215248108
338,2335742900,-0.32805117964745,-0.44359260797501,57.16770172119141,0.07894480228424,-0.06632702052593,10.12951850891113,0.09625828266144,-0.54193311929703,2.60906600952148
339,2335751233,-0.32809877395630,-0.44361266493797,57.16839218139648,0.08926207572222,-0.05794240161777,10.17320728302002,0.09292844682932,-0.50868588685989,2.69285011291504
340,2335759566,-0.32858309149742,-0.44299229979515,57.16513824462891,0.10466400533915,-0.05618656799197,10.16182613372803,0.03825485706329,-0.43451985716820,2.66548085212708
341,2335767899,-0.32862734794617,-0.44204628467560,57.16470336914062,0.10118040442467,-0.06868300586939,10.13815116882324,0.09223684668541,-0.39232042431831,2.55793976783752
342,2335776232,-0.32896402478218,-0.44112506508827,57.16156387329102,0.07703971117735,-0.04683778807521,10.14420986175537,0.05509622022510,-0.39787870645523,2.63726735115051
343,2335784565,-0.32917210459709,-0.44065308570862,57.16169357299805,0.07400216162205,-0.04985956102610,10.16262149810791,0.07287249714136,-0.45004206895828,2.62574076652527
344,2335792898,-0.32930085062981,-0.44104444980621,57.15979766845703,0.07974679023027,-0.05816277489066,10.11488342285156,0.08170942217112,-0.55558556318283,2.70642590522766
345,2335801231,-0.32945698499680,-0.44095680117607,57.15980911254883,0.07239939272404,-0.09384535998106,10.12803745269775,0.07948096841574,-0.49651917815208,2.61106395721436
346,2335809564,-0.32808941602707,-0.44034606218338,57.15744018554688,0.09205885976553,-0.07004175335169,10.16958236694336,0.25993326306343,-0.43450704216957,2.65296888351440
347,2335817897,-0.32751512527466,-0.43993249535561,57.15768051147461,0.10038927197456,-0.04878655076027,10.14367389678955,0.16785007715225,-0.45796969532967,2.64108395576477
348,2335826230,-0.32818534970284,-0.43973591923714,57.15477752685547,0.08584369719028,-0.06285567581654,10.20088958740234,0.01591924764216,-0.48405781388283,2.59222459793091
349,2335834563,-0.32759484648705,-0.43940475583076,57.15398025512695,0.05421025305986,-0.06235362961888,10.16326618194580,0.16737622022629,-0.46487277746201,2.51466488838196
350,2335842896,-0.32778224349022,-0.43960580229759,57.15130233764648,0.08191169798374,-0.06590216606855,10.15524673461914,0.07481917738914,-0.53243029117584,2.56703305244446
351,2335851229,-0.32686218619347,-0.43979969620705,57.15068054199219,0.09392298012972,-0.03947017714381,10.16583919525146,0.20768021047115,-0.53002256155014,2.53575801849365
352,2335859562,-0.32721629738808,-0.43884125351906,57.14857482910156,0.11000542342663,-0.06350211054087,10.17467403411865,0.05378989130259,-0.39124462008476,2.61465001106262
353,2335867895,-0.32748001813889,-0.43894535303116,57.14778518676758,0.09081410616636,-0.06299690902233,10.12023258209229,0.06518822908401,-0.51877796649933,2.51462626457214
354,2335876228,-0.32754063606262,-0.43854871392250,57.14542007446289,0.09729200601578,-0.06361346691847,10.13290882110596,0.08959858119488,-0.45955777168274,2.56516313552856
355,2335884561,-0.32750242948532,-0.43834707140923,57.14521789550781,0.07546068727970,-0.03243875503540,10.17001724243164,0.10156045854092,-0.48166292905807,2.58806252479553
356,2335892894,-0.32704624533653,-0.43842941522598,57.14229202270508,0.09033704549074,-0.04728341847658,10.15320777893066,0.15031714737415,-0.51648545265198,2.48233985900879
357,2335901227,-0.32682299613953,-0.43806669116020,57.14213180541992,0.05698403716087,-0.05169821530581,10.14863872528076,0.12593239545822,-0.46195274591446,2.58940720558167
358,2335909560,-0.32678261399269,-0.43827435374260,57.14037322998047,0.09121726453304,-0.06712091714144,10.16976737976074,0.10025411099195,-0.53240460157394,2.63106822967529
359,2335917893,-0.32627969980240,-0.43839526176453,57.14057922363281,0.10986111313105,-0.04005973786116,10.14537525177002,0.15855209529400,-0.52164667844772,2.63357853889465
360,2335926226,-0.32702371478081,-0.43831142783165,57.13697814941406,0.10699515789747,-0.06357998400927,10.13271427154541,0.00637794472277,-0.49489268660545,2.54354476928711
361,2335934559,-0.32690218091011,-0.43762463331223,57.13682937622070,0.07000938057899,-0.09525505453348,10.13567066192627,0.11212632060051,-0.42488890886307,2.59289073944092
362,2335942892,-0.32793360948563,-0.43707793951035,57.13519287109375,0.08963187783957,-0.05163598060608,10.13501167297363,-0.02597283571959,-0.43971961736679,2.66386771202087
363,2335951225,-0.32840508222580,-0.43700069189072,57.13553237915039,0.08748875558376,-0.07339866459370,10.14430332183838,0.04203295707703,-0.49876037240028,2.65002298355103
364,2335959558,-0.32889053225517,-0.43677896261215,57.13333511352539,0.07963255047798,-0.04255624860525,10.14626312255859,0.03824205324054,-0.47884529829025,2.63199090957642
365,2335967891,-0.32878237962723,-0.43628990650177,57.13331604003906,0.08654252439737,-0.05076846107841,10.14611244201660,0.11078155785799,-0.44787770509720,2.60791325569153
366,2335976224,-0.32929810881615,-0.43614941835403,57.13262557983398,0.07350078225136,-0.06730557233095,10.13738632202148,0.03565501421690,-0.48857873678207,2.61237025260925
367,2335984557,-0.32862442731857,-0.43627682328224,57.13251495361328,0.09232015907764,-0.06037915498018,10.15517520904541,0.17773716151714,-0.52167230844498,2.59741115570068
368,2335992890,-0.32795289158821,-0.43598091602325,57.12994384765625,0.10176480561495,-0.05032305791974,10.15305805206299,0.17786526679993,-0.47041824460030,2.70253252983093
369,2336001223,-0.32790529727936,-0.43656596541405,57.12977600097656,0.08426698297262,-0.06991310417652,10.12982559204102,0.10476222634315,-0.57569271326065,2.59041881561279
370,2336009556,-0.32802909612656,-0.43611526489258,57.12834548950195,0.05666880309582,-0.09324070811272,10.16365242004395,0.08094097673893,-0.45230895280838,2.60852813720703
371,2336017889,-0.32763978838921,-0.43625214695930,57.12874221801758,0.07459904253483,-0.05114297196269,10.16852283477783,0.14564254879951,-0.52253043651581,2.65880918502808
372,2336026222,-0.32798463106155,-0.43565586209297,57.12581634521484,0.08337616175413,-0.04661052301526,10.17010307312012,0.05527552589774,-0.43386673927307,2.67794275283813
373,2336034555,-0.32710301876068,-0.43563902378082,57.12569427490234,0.06563383340836,-0.04567363113165,10.16878795623779,0.20514442026615,-0.50566345453262,2.59556722640991
374,2336042888,-0.32696217298508,-0.43530318140984,57.12271499633789,0.08435268700123,-0.05390629917383,10.12800216674805,0.11257455497980,-0.46450132131577,2.58360528945923
375,2336051221,-0.32619968056679,-0.43599137663841,57.12236785888672,0.09691526740789,-0.04046575352550,10.15142631530762,0.18890500068665,-0.58839744329453,2.56815981864929
376,2336059554,-0.32645010948181,-0.43510738015175,57.12057876586914,0.07805345207453,-0.04852654784918,10.15566921234131,0.06733983010054,-0.40023523569107,2.65647816658020
377,2336067887,-0.32654732465744,-0.43498632311821,57.12073516845703,0.07226906716824,-0.06427188217640,10.14124870300293,0.08657611906528,-0.49213916063309,2.63019776344299
378,2336076220,-0.32614195346832,-0.43495702743530,57.11782836914062,0.07722227275372,-0.05164720118046,10.16121959686279,0.14441306889057,-0.50138580799103,2.58012199401855
379,2336084553,-0.32685035467148,-0.43499961495399,57.11785125732422,0.08507690578699,-0.04145519062877,10.16464519500732,0.01426712796092,-0.51155471801758,2.61329221725464
380,2336092886,-0.32666784524918,-0.43447756767273,57.11629486083984,0.08317498862743,-0.02829061076045,10.13536167144775,0.11833778023720,-0.44183278083801,2.63629412651062
381,2336101219,-0.32710474729538,-0.43423864245415,57.11581802368164,0.09379519522190,-0.05174450948834,10.15163326263428,0.04549088329077,-0.47784638404846,2.55527615547180
382,2336109552,-0.32649001479149,-0.43435907363892,57.11494827270508,0.08917471021414,-0.07313350588083,10.14087677001953,0.16884902119637,-0.51980251073837,2.54382681846619
383,2336117885,-0.32614314556122,-0.43429201841354,57.11559677124023,0.10458473861217,-0.06212491542101,10.14589786529541,0.13954634964466,-0.49915742874146,2.68885445594788
384,2336126218,-0.32640504837036,-0.43377697467804,57.11405944824219,0.08098037540913,-0.06571531295776,10.15760707855225,0.06529068946838,-0.44295981526375,2.60763168334961
385,2336134551,-0.32720023393631,-0.43273666501045,57.11420822143555,0.07368468493223,-0.04236875474453,10.14858722686768,0.00276633747853,-0.38076844811440,2.62976241111755
386,2336142884,-0.32720175385475,-0.43328317999840,57.11287307739258,0.05650413036346,-0.07485258579254,10.14921092987061,0.09625829011202,-0.57164561748505,2.68485832214355
387,2336151217,-0.32723000645638,-0.43284356594086,57.11267852783203,0.05749157443643,-0.07647954672575,10.16569137573242,0.09545144438744,-0.45350006222725,2.58756303787231
388,2336159550,-0.32733288407326,-0.43280738592148,57.11069869995117,0.08744145929813,-0.04009959846735,10.15737819671631,0.08483434468508,-0.50015640258789,2.66521239280701
389,2336167883,-0.32750728726387,-0.43317627906799,57.10986328125000,0.08508970588446,-0.06931257247925,10.13741397857666,0.07551077008247,-0.55088531970978,2.50934958457947
390,2336176216,-0.32712379097939,-0.43411579728127,57.10854339599609,0.07119287550449,-0.06704393029213,10.13051223754883,0.14274813234806,-0.61809706687927,2.61710858345032
391,2336184549,-0.32658085227013,-0.43376326560974,57.10872268676758,0.08294484019279,-0.07382121682167,10.16135501861572,0.16282969713211,-0.46342557668686,2.63283610343933
392,2336192882,-0.32776829600334,-0.43450710177422,57.10609054565430,0.08192364126444,-0.05517877265811,10.13202095031738,-0.04440227895975,-0.59413498640060,2.62968564033508
393,2336201215,-0.32770270109177,-0.43401700258255,57.10550308227539,0.07346361130476,-0.06676071137190,10.12866020202637,0.10509520024061,-0.44785210490227,2.54000997543335
394,2336209548,-0.32823336124420,-0.43355262279510,57.10504531860352,0.09229631721973,-0.05115944147110,10.10058498382568,0.03291429206729,-0.44859492778778,2.66603207588196
395,2336217881,-0.32804673910141,-0.43277993798256,57.10504150390625,0.09459532052279,-0.06965485960245,10.12808036804199,0.12023320794106,-0.41429743170738,2.61044907569885
396,2336226214,-0.32833400368690,-0.43362236022949,57.10594940185547,0.09810160845518,-0.04561414197087,10.16269874572754,0.06375383585691,-0.60712140798569,2.67435669898987
397,2336234547,-0.32821804285049,-0.43387082219124,57.10617446899414,0.06545201689005,-0.06650312244892,10.14177799224854,0.11142192035913,-0.53524786233902,2.63729262351990
398,2336242880,-0.32897949218750,-0.43374499678612,57.10710906982422,0.07208389788866,-0.08950218558311,10.14901638031006,0.00860638357699,-0.49073037505150,2.79494881629944
399,2336251213,-0.32912543416023,-0.43322467803955,57.10729598999023,0.06346213817596,-0.04883785545826,10.18578338623047,0.08053115755320,-0.44411244988441,2.63265681266785
400,2336259546,-0.32849022746086,-0.43279442191124,57.10635375976562,0.09135682135820,-0.04754789546132,10.16114807128906,0.17284484207630,-0.45300051569939,2.58532166481018
401,2336267879,-0.32834351062775,-0.43290340900421,57.10671997070312,0.08301001042128,-0.06065948307514,10.17611217498779,0.11605811119080,-0.52077585458755,2.65381407737732
402,2336276212,-0.32799896597862,-0.43332988023758,57.10467147827148,0.07802535593510,-0.05209877341986,10.18724822998047,0.13777896761894,-0.55408710241318,2.52041506767273
403,2336284545,-0.32754021883011,-0.43257814645767,57.10416412353516,0.08116540312767,-0.08428618311882,10.12682247161865,0.15211011469364,-0.41699972748756,2.54942321777344
404,2336292878,-0.32723867893219,-0.43272885680199,57.10308837890625,0.08549268543720,-0.05654279142618,10.16875171661377,0.13351421058178,-0.52224862575531,2.62242388725281
405,2336301211,-0.32710251212120,-0.43222138285637,57.10348892211914,0.05825346335769,-0.02815367281437,10.14017677307129,0.11526405811310,-0.44675067067146,2.65706729888916
406,2336309544,-0.32799965143204,-0.43167063593864,57.10164260864258,0.09312033653259,-0.09863761067390,10.10458278656006,-0.01166728418320,-0.43706852197647,2.58660221099854
407,2336317877,-0.32764083147049,-0.43191033601761,57.10147476196289,0.11342683434486,-0.04372971504927,10.16240596771240,0.14177480340004,-0.53619557619095,2.58957338333130
408,2336326210,-0.32789474725723,-0.43173798918724,57.10021591186523,0.06274866312742,-0.01162882056087,10.13453960418701,0.06736544519663,-0.48266187310219,2.60865640640259
409,2336334543,-0.32874238491058,-0.43126749992371,57.10001373291016,0.06523175537586,-0.10639686882496,10.13848018646240,-0.00446968385950,-0.45077210664749,2.58665347099304
410,2336342876,-0.32884061336517,-0.43154257535934,57.09834289550781,0.08317022770643,-0.02016885764897,10.13397312164307,0.08606383204460,-0.53678470849991,2.60532617568970
411,2336351209,-0.32954251766205,-0.43131217360497,57.09799575805664,0.10815297812223,-0.06835429370403,10.14622592926025,0.01280711684376,-0.47851234674454,2.56844186782837
412,2336359542,-0.32957988977432,-0.43088006973267,57.09625625610352,0.07157769799232,-0.08093316107988,10.14741420745850,0.09267231076956,-0.45346158742905,2.60668396949768
413,2336367875,-0.32879969477654,-0.43140304088593,57.09692764282227,0.08182955533266,-0.02642234414816,10.17622661590576,0.19163289666176,-0.56958371400833,2.69109559059143
414,2336376208,-0.32885047793388,-0.43263471126556,57.09314727783203,0.08975119888783,-0.06844132393599,10.14134788513184,0.09149403870106,-0.65076804161072,2.58765244483948
415,2336384541,-0.32824495434761,-0.43237948417664,57.09380722045898,0.07655501365662,-0.06770362704992,10.16559123992920,0.17105184495449,-0.47756454348564,2.68954563140869
416,2336392874,-0.32847774028778,-0.43180119991302,57.09190750122070,0.07842962443829,-0.01571384817362,10.17452335357666,0.06964510679245,-0.43350815773010,2.60714507102966
417,2336401207,-0.32834243774414,-0.43172329664230,57.09171676635742,0.11069530248642,-0.09494572877884,10.17014503479004,0.11354789137840,-0.49795344471931,2.58696055412292
418,2336409540,-0.32809919118881,-0.43000707030296,57.09066772460938,0.06963279843330,-0.03818378597498,10.14742946624756,0.12773819267750,-0.29818812012672,2.67994046211243
419,2336417873,-0.32850348949432,-0.43057468533516,57.09096527099609,0.06737899780273,-0.03029594570398,10.13465404510498,0.04902564734221,-0.57484751939774,2.64584827423096
420,2336426206,-0.32794949412346,-0.42860227823257,57.08988571166992,0.05273901671171,-0.08315435796976,10.15914726257324,0.16366216540337,-0.26807856559753,2.71553158760071
421,2336434539,-0.32808831334114,-0.42897465825081,57.08904266357422,0.08965789526701,-0.03185720369220,10.10468292236328,0.08168378472328,-0.54992473125458,2.50719809532166
422,2336442872,-0.32807558774948,-0.42840597033501,57.08750534057617,0.07630339264870,-0.09215351194143,10.14931106567383,0.09728285670280,-0.43578776717186,2.59549021720886
423,2336451205,-0.32821160554886,-0.42790511250496,57.08737564086914,0.09250204265118,-0.05553575977683,10.15967464447021,0.08163256943226,-0.44605907797813,2.59577226638794
424,2336459538,-0.32734322547913,-0.42944046854973,57.08615875244141,0.10413480550051,-0.02552147209644,10.17203998565674,0.20178896188736,-0.68939435482025,2.60458350181580
425,2336467871,-0.32743296027184,-0.42833948135376,57.08580780029297,0.03762857988477,-0.03792624175549,10.22185516357422,0.08711400628090,-0.37418553233147,2.56923556327820
426,2336476204,-0.32762104272842,-0.42886003851891,57.08158493041992,0.08694564551115,-0.10613740235567,10.11978912353516,0.07415321469307,-0.56572884321213,2.53227472305298
427,2336484537,-0.32664087414742,-0.42880028486252,57.08108901977539,0.10269871354103,0.00487189879641,10.13172721862793,0.21474976837635,-0.49987465143204,2.55125498771667
428,2336492870,-0.32875818014145,-0.43065622448921,57.07770919799805,0.08970261365175,-0.06705097109079,10.12876415252686,-0.15901318192482,-0.72444742918015,2.44769644737244
429,2336501203,-0.32836914062500,-0.42925763130188,57.07942962646484,0.09465079754591,-0.14566287398338,10.14538383483887,0.14661587774754,-0.34054124355316,2.81674623489380
430,2336509536,-0.32881346344948,-0.42949941754341,57.07717895507812,0.07154711335897,0.08467582613230,10.12148475646973,0.04344174265862,-0.53176432847977,2.59861540794373
431,2336517869,-0.33042529225349,-0.42916509509087,57.07658767700195,0.09714706242085,-0.17937463521957,10.12714099884033,-0.09519531577826,-0.46616628766060,2.53977966308594
432,2336526202,-0.32807636260986,-0.42876312136650,57.07484054565430,0.03764206171036,-0.04052929952741,10.19453239440918,0.37909069657326,-0.45563882589340,2.71979641914368
433,2336534535,-0.32895755767822,-0.42903584241867,57.07412719726562,0.12904746830463,0.07203266024590,10.11606884002686,-0.00772269209847,-0.53924363851547,2.52556347846985
434,2336542868,-0.32909238338470,-0.42918330430984,57.07262802124023,0.07974332571030,-0.24542839825153,10.21960163116455,0.07817464321852,-0.52162104845047,2.55868268013000
435,2336551201,-0.32693099975586,-0.42833608388901,57.07355880737305,0.07926626503468,0.06952778995037,10.09574127197266,0.35877856612206,-0.40469211339951,2.72333097457886
436,2336559534,-0.32958084344864,-0.42811715602875,57.07024383544922,0.10204695910215,-0.06171231344342,10.14495944976807,-0.22103804349899,-0.47815373539925,2.65560698509216
437,2336567867,-0.32758688926697,-0.42818465828896,57.07117843627930,0.09533404558897,-0.12686659395695,10.20040512084961,0.33797982335091,-0.51498699188232,2.72079515457153
438,2336576200,-0.32795128226280,-0.42788833379745,57.06947326660156,0.03584246337414,0.06644059717655,10.08256816864014,0.05386674031615,-0.46675544977188,2.60353350639343
439,2336584533,-0.32972738146782,-0.42775878310204,57.06913757324219,0.11222886294127,-0.17044639587402,10.16339111328125,-0.11502073705196,-0.49216476082802,2.57020926475525
440,2336592866,-0.32697683572769,-0.42801725864410,57.06789779663086,0.13246487081051,-0.05838982760906,10.17882251739502,0.42698934674263,-0.53414648771286,2.72940182685852
441,2336601199,-0.32853236794472,-0.42704418301582,57.06716156005859,0.02318853698671,0.04270609095693,10.20955276489258,-0.08893263339996,-0.38910582661629,2.52181100845337
442,2336609532,-0.32896506786346,-0.42699563503265,57.06552124023438,0.11999555677176,-0.19026467204094,10.10647106170654,0.04469684138894,-0.49728763103485,2.60394334793091
443,2336617865,-0.32633852958679,-0.42766991257668,57.06797790527344,0.06990829110146,0.00848412606865,10.12023925781250,0.41536045074463,-0.58873039484024,2.90596079826355
444,2336626198,-0.32723417878151,-0.42668819427490,57.06504058837891,0.04014157876372,-0.03001298941672,10.19284343719482,-0.01230764016509,-0.38555827736855,2.55855464935303
445,2336634531,-0.32629287242889,-0.42673492431641,57.06475067138672,0.11930108070374,-0.10820645093918,10.22166061401367,0.21088199317455,-0.51152896881104,2.57671499252319
446,2336642864,-0.32632124423981,-0.42757236957550,57.06164550781250,0.06164441257715,0.02507463842630,10.06187343597412,0.09391459822655,-0.60362505912781,2.54939794540405
447,2336651197,-0.32708793878555,-0.42611646652222,57.06182861328125,0.06836301088333,-0.14520293474197,10.23819255828857,0.00519968988374,-0.33082067966461,2.63227248191833
448,2336659530,-0.32560712099075,-0.42502701282501,57.06139755249023,0.04356388747692,-0.03219583258033,10.11768913269043,0.27642881870270,-0.37359642982483,2.73821306228638
449,2336667863,-0.32656490802765,-0.42570903897285,57.06199264526367,0.17179086804390,0.03348416835070,10.14432048797607,-0.01627784408629,-0.58878153562546,2.67965865135193
450,2336676196,-0.32693833112717,-0.42811706662178,57.06101608276367,0.10184866935015,-0.13470908999443,10.12350082397461,0.05145899951458,-0.79251730442047,2.56734061241150
451,2336684529,-0.32709071040154,-0.42445614933968,57.06106948852539,-0.02591725811362,-0.08902924507856,10.21559810638428,0.07909674942493,-0.06568770110607,2.61882472038269
452,2336692862,-0.32603946328163,-0.42449524998665,57.06004333496094,0.15485611557961,-0.02836734615266,10.12134075164795,0.22443193197250,-0.50927507877350,2.68870091438293
453,2336701195,-0.32683020830154,-0.42744466662407,57.06087112426758,0.15432430803776,0.03131685033441,10.09916400909424,0.00325300777331,-0.86026686429977,2.70842337608337
454,2336709528,-0.32724651694298,-0.42718958854675,57.05936431884766,-0.03111198544502,-0.12829606235027,10.20135021209717,0.04643860831857,-0.47277477383614,2.57973742485046
455,2336717861,-0.32532840967178,-0.42403689026833,57.05970001220703,0.08329201489687,0.01074155140668,10.09435558319092,0.32796466350555,-0.12846820056438,2.65286636352539
456,2336726194,-0.32625469565392,-0.42669951915741,57.05670547485352,0.21730406582355,-0.05003441870213,10.06622695922852,-0.01636749692261,-0.82160228490829,2.42733311653137
457,2336734527,-0.32439544796944,-0.42754891514778,57.05660247802734,0.11881162971258,-0.19774217903614,10.26619625091553,0.32135617733002,-0.60709577798843,2.59705281257629
458,2336742860,-0.32266613841057,-0.42565292119980,57.05639266967773,-0.11360157281160,0.13316398859024,10.16664981842041,0.30486065149307,-0.27446934580803,2.71311092376709
459,2336751193,-0.32583254575729,-0.42629998922348,57.05479812622070,0.15001924335957,-0.14343832433224,10.04325485229492,-0.28376731276512,-0.58401739597321,2.41972565650940
460,2336759526,-0.32270103693008,-0.42836642265320,57.05482101440430,0.12615689635277,-0.16121114790440,10.22556686401367,0.47401705384254,-0.75159853696823,2.84361577033997
461,2336767859,-0.32461297512054,-0.42493027448654,57.05565643310547,-0.04644158482552,0.13328406214714,10.15712356567383,-0.13009470701218,-0.09446530789137,2.71183037757874
462,2336776192,-0.32712447643280,-0.42499819397926,57.05331802368164,0.19765959680080,-0.28617727756500,10.17228412628174,-0.20605371892452,-0.51132416725159,2.54833459854126
463,2336784525,-0.32298260927200,-0.42575970292091,57.05519104003906,0.13892437517643,-0.00776207819581,10.12381267547607,0.59583830833435,-0.59979569911957,2.83452248573303
464,2336792858,-0.32464417815208,-0.42368841171265,57.05137634277344,-0.04525186121464,0.15461859107018,10.18455600738525,-0.10375046730042,-0.25098109245300,2.36311817169189
465,2336801191,-0.32502579689026,-0.42385905981064,57.04956054687500,0.11700202524662,-0.34336259961128,10.18998718261719,0.05158707126975,-0.52651345729828,2.39103770256042
466,2336809524,-0.32085630297661,-0.42320784926414,57.04877090454102,0.10339950025082,0.08324097841978,10.13573837280273,0.59811800718307,-0.42482492327690,2.63155531883240
467,2336817857,-0.32474619150162,-0.42284420132637,57.04708862304688,0.08733899146318,0.04895574599504,10.09979820251465,-0.37024098634720,-0.46050554513931,2.40968489646912
468,2336826190,-0.32453256845474,-0.42342871427536,57.04387664794922,0.14538465440273,-0.38186377286911,10.14154911041260,0.12033569067717,-0.57308006286621,2.61400938034058
469,2336834523,-0.32093298435211,-0.42140996456146,57.04697799682617,-0.00112844491377,0.15211452543736,10.18865299224854,0.53295528888702,-0.26658016443253,2.98285412788391
470,2336842856,-0.32533955574036,-0.42149892449379,57.04426193237305,0.01627497375011,0.02308317087591,10.06396389007568,-0.43240675330162,-0.51227194070816,2.42100644111633
471,2336851189,-0.32512819766998,-0.42345252633095,57.04465103149414,0.11891143023968,-0.32202115654945,10.19909954071045,0.12225673347712,-0.74110949039459,2.65750241279602
472,2336859522,-0.32210323214531,-0.42203569412231,57.04264068603516,0.08039786666632,0.13135012984276,10.11081790924072,0.46223443746567,-0.33202454447746,2.75066161155701
473,2336867855,-0.32563737034798,-0.42121663689613,57.04113006591797,0.13011470437050,0.04359702765942,10.21935653686523,-0.32731148600578,-0.40794509649277,2.43053460121155
474,2336876188,-0.32487812638283,-0.42066782712936,57.04034805297852,0.08514077961445,-0.26756969094276,10.12500762939453,0.18711200356483,-0.43601834774017,2.61756992340088
475,2336884521,-0.32239478826523,-0.42050030827522,57.04035568237305,-0.03622583299875,0.10209834575653,10.17923831939697,0.39638033509254,-0.48642712831497,2.61088466644287
476,2336892854,-0.33245977759361,-0.44270673394203,57.03641510009766,0.03920720517635,-0.07245945185423,10.09112739562988,-0.19949649274349,-0.57746016979218,2.43563199043274
477,2336901187,-0.33078584074974,-0.44340103864670,57.03725051879883,0.18605268001556,-0.22875183820724,10.19464492797852,0.30853626132011,-0.56702238321304,2.71317505836487
478,2336909520,-0.32950377464294,-0.44198256731033,57.03649902343750,0.08147593587637,0.14054930210114,10.13101196289062,0.25349128246307,-0.32973203063011,2.74462938308716
479,2336917853,-0.33287057280540,-0.44226801395416,57.03557968139648,0.10763667523861,-0.15693302452564,10.09640979766846,-0.30464291572571,-0.53281444311142,2.50007724761963
480,2336926186,-0.33006381988525,-0.44304376840591,57.03709030151367,0.00174858188257,-0.16356275975704,10.22118377685547,0.43808025121689,-0.59359711408615,2.82309865951538
481,2336934519,-0.33013045787811,-0.44213202595711,57.03669738769531,0.03444284573197,0.08978334069252,10.05783367156982,0.09175018221140,-0.38963091373444,2.56511163711548
482,2336942852,-0.33221849799156,-0.44367477297783,57.03466796875000,0.10920424014330,-0.06691624969244,10.29213523864746,-0.15303225815296,-0.68317002058029,2.54915428161621
483,2336951185,-0.33250859379768,-0.44427695870399,57.03437423706055,0.14460290968418,-0.14502872526646,10.04564857482910,0.06523945182562,-0.57159441709518,2.57620310783386
484,2336959518,-0.33191967010498,-0.44299569725990,57.03314971923828,0.07703925669193,0.00797723419964,10.25640201568604,0.17000168561935,-0.34431937336922,2.55706906318665
485,2336967851,-0.33280941843987,-0.44158884882927,57.03189086914062,0.04929589852691,-0.04463902115822,10.05422782897949,-0.00654443772510,-0.32987296581268,2.46142554283142
486,2336976184,-0.33201941847801,-0.44262552261353,57.03124618530273,0.06355803459883,-0.17732401192188,10.25212669372559,0.19282396137714,-0.62293821573257,2.61536717414856
487,2336984517,-0.33106276392937,-0.44161441922188,57.03204345703125,0.03724263980985,0.01867513917387,10.12959766387939,0.21559503674507,-0.37935966253281,2.70637464523315
488,2336992850,-0.33409729599953,-0.44232013821602,57.02972412109375,0.10467725247145,0.03716729953885,10.07213020324707,-0.26622155308723,-0.58353066444397,2.52643418312073
489,2337001183,-0.33283638954163,-0.43980470299721,57.03067016601562,0.10366178303957,-0.38055640459061,10.20936393737793,0.25291493535042,-0.19683259725571,2.72653293609619
490,2337009516,-0.33027717471123,-0.44432997703552,57.03347015380859,1.13694918155670,0.61896616220474,10.24118137359619,0.41208183765411,-1.04538094997406,3.10557246208191
491,2337017849,-0.34413865208626,-0.45171761512756,57.03053283691406,3.89254713058472,-0.02526994608343,9.97197246551514,-1.56542670726776,-1.38400113582611,2.25336098670959
492,2337026182,-0.33563369512558,-0.44453164935112,57.02904510498047,2.86271142959595,-0.70529180765152,10.59841251373291,1.11608910560608,0.39614981412888,2.61992645263672
493,2337034515,-0.32307985424995,-0.43341124057770,57.03129577636719,-1.66503202915192,0.81703668832779,9.89955139160156,1.60867631435394,0.83302611112595,2.88779973983765
494,2337042848,-0.33615851402283,-0.43107411265373,57.02231979370117,-3.41678810119629,-0.40320727229118,10.14416885375977,-1.48397350311279,-0.17331871390343,1.45209658145905
495,2337051181,-0.33049890398979,-0.44307985901833,57.02682495117188,-0.00868405308574,-0.37159681320190,10.12195110321045,0.78475600481033,-1.94250643253326,3.14177775382996
496,2337059514,-0.33733308315277,-0.44986385107040,57.02330398559570,3.70921373367310,0.73561555147171,10.24057292938232,-0.72428089380264,-1.29762995243073,2.37159633636475
497,2337067847,-0.34078821539879,-0.44003796577454,57.02780532836914,2.42765831947327,-0.62074315547943,10.17557716369629,-0.30902293324471,0.67659997940063,3.15736436843872
498,2337076180,-0.33014836907387,-0.42951282858849,57.03206634521484,-1.72516858577728,0.06069516018033,9.95840930938721,1.37740564346313,0.81371307373047,3.23968863487244
499,2337084513,-0.32979738712311,-0.42476207017899,57.02997589111328,-6.00003194808960,-0.09660280495882,10.14032649993896,0.14231270551682,0.07243705540895,2.36401462554932
500,2337092846,-0.33137953281403,-0.42782360315323,57.02698516845703,-5.13006210327148,-0.27005717158318,10.19713497161865,-0.09624549746513,-0.86305892467499,2.43120074272156
501,2337101179,-0.34031507372856,-0.44286948442459,57.02226257324219,1.32977950572968,0.08440718799829,10.01380252838135,-0.97499310970306,-2.30196428298950,2.03423118591309
502,2337109512,-0.34286460280418,-0.44743126630783,57.02231597900391,5.57668638229370,-0.30429273843765,10.33449268341064,-0.20956286787987,-1.06907427310944,2.61690402030945
503,2337117845,-0.33526265621185,-0.43765759468079,57.02584838867188,2.61916565895081,0.03556745126843,10.17620277404785,1.01726937294006,0.67042696475983,3.04092240333557
504,2337126178,-0.33094918727875,-0.42735791206360,57.02440261840820,-3.11311030387878,-0.34501317143440,10.13725090026855,0.61625283956528,0.76555818319321,2.68070888519287
505,2337134511,-0.32644692063332,-0.42892667651176,57.02589035034180,-5.09666633605957,-0.11820194125175,10.10237216949463,0.64181590080261,-0.68947118520737,2.78782773017883
506,2337142844,-0.33734703063965,-0.44109016656876,57.01815414428711,-0.84554111957550,0.13468958437443,10.09131622314453,-1.21402513980865,-1.97868680953979,1.85349714756012
507,2337151177,-0.34210813045502,-0.45214560627937,57.01827239990234,4.66328668594360,-0.37612706422806,10.20215225219727,-0.47003397345543,-1.82594907283783,2.61503410339355
508,2337159510,-0.33315867185593,-0.44699850678444,57.02217102050781,4.51811933517456,0.24835529923439,10.18104934692383,1.17938184738159,0.11429071426392,3.25574874877930
509,2337167843,-0.33159741759300,-0.43376687169075,57.02479934692383,-0.70522034168243,0.21093848347664,10.17766189575195,0.28982508182526,1.08640217781067,2.93613433837891
510,2337176176,-0.32908949255943,-0.43059194087982,57.02463912963867,-4.77753019332886,-0.22737994790077,10.06924343109131,0.40029922127724,-0.09796163439751,2.80511736869812
511,2337184509,-0.33224880695343,-0.43740615248680,57.02198028564453,-2.88694453239441,0.17663741111755,10.06252193450928,-0.28077042102814,-1.31476593017578,2.28706955909729
512,2337192842,-0.33920264244080,-0.44874760508537,57.01507949829102,2.85566663742065,0.05067438259721,10.21335411071777,-0.74256950616837,-1.88365817070007,1.90741503238678
513,2337201175,-0.33901089429855,-0.44698631763458,57.01304244995117,5.24491310119629,0.00745782209560,10.21867847442627,0.12197499722242,-0.28666174411774,2.36465501785278
514,2337209508,-0.33406612277031,-0.43434157967567,57.01444625854492,1.39813363552094,-0.12792444229126,10.16859531402588,0.69099527597427,1.03819608688354,2.88769769668579
515,2337217841,-0.32948127388954,-0.42446616292000,57.01806640625000,-4.21966505050659,-0.28906321525574,10.10665798187256,0.65408509969711,0.68323415517807,3.05293512344360
516,2337226174,-0.33416166901588,-0.42819043993950,57.01646804809570,-4.96639060974121,-0.18678127229214,10.08894538879395,-0.46396350860596,-0.94279599189758,2.55133152008057
517,2337234507,-0.34042936563492,-0.44161653518677,57.01392745971680,0.20994414389133,-0.25320631265640,10.16318225860596,-0.65363687276840,-2.10798764228821,2.29908275604248
518,2337242840,-0.34185504913330,-0.44911909103394,57.01290893554688,5.06344509124756,0.07263619452715,10.23320007324219,-0.07224494963884,-1.42518889904022,2.52443671226501
519,2337251173,-0.34011647105217,-0.44325441122055,57.01333999633789,4.06472301483154,-0.08365043252707,10.16736412048340,0.31044453382492,0.20473459362984,2.66756916046143
520,2337259506,-0.33056825399399,-0.43203741312027,57.01513290405273,-1.62229526042938,-0.22868162393570,10.11844730377197,1.24810492992401,0.87221604585648,3.06407761573792
521,2337267839,-0.32721436023712,-0.42871269583702,57.01678466796875,-5.34612035751343,0.18557538092136,10.11376380920410,0.50470292568207,-0.10239290446043,2.81016302108765
522,2337276172,-0.33600664138794,-0.43900942802429,57.01200866699219,-2.56510519981384,-0.11022706329823,10.10161495208740,-0.95972698926926,-1.74731361865997,2.24142503738403
523,2337284505,-0.33957791328430,-0.45094564557076,57.01074600219727,3.27918767929077,0.05985948070884,10.17807865142822,-0.32805430889130,-1.93022465705872,2.45253729820251
524,2337292838,-0.33904209733009,-0.45009693503380,57.00754165649414,5.45465946197510,0.30317896604538,10.22174930572510,0.16206127405167,-0.40832933783531,2.66303539276123
525,2337301171,-0.33528426289558,-0.43804144859314,57.00852966308594,1.55811560153961,-0.06612928211689,10.16673660278320,0.55224287509918,0.94675332307816,2.73611259460449
526,2337309504,-0.33013123273849,-0.42665952444077,57.00911712646484,-3.91533541679382,-0.12531337141991,10.06147289276123,0.71578979492188,0.89411616325378,2.77607107162476
527,2337317837,-0.33382865786552,-0.43012985587120,57.00549697875977,-4.44644498825073,-0.07249282300472,10.12785911560059,-0.34572815895081,-0.91410803794861,2.17398262023926
528,2337326170,-0.34019044041634,-0.44190511107445,57.00104904174805,0.34518161416054,-0.21151073276997,10.15237808227539,-0.66990196704865,-1.92948198318481,2.15295338630676
529,2337334503,-0.34184771776199,-0.44749939441681,57.00099945068359,4.56044387817383,-0.01365840807557,10.22937011718750,-0.09788480401039,-1.17004537582397,2.60207319259644
530,2337342836,-0.33895602822304,-0.44002985954285,57.00156021118164,3.29195880889893,-0.09679636359215,10.20423698425293,0.44604629278183,0.40188735723495,2.76843786239624
531,2337351169,-0.33271801471710,-0.42952638864517,57.00465774536133,-1.88161587715149,-0.21579770743847,10.13931274414062,0.85116100311279,0.76028174161911,2.98997521400452
532,2337359502,-0.33170273900032,-0.42814007401466,57.00297546386719,-4.74275922775269,-0.14231729507446,10.10128593444824,0.22069226205349,-0.32067742943764,2.60599231719971
533,2337367835,-0.33626654744148,-0.43857824802399,57.00048828125000,-1.89228808879852,-0.07124603539705,10.12490653991699,-0.44903036952019,-1.74984943866730,2.30497384071350
534,2337376168,-0.34053778648376,-0.44842129945755,56.99765396118164,3.14594149589539,0.05851613730192,10.18658065795898,-0.41570624709129,-1.70341050624847,2.41624188423157
535,2337384501,-0.33973819017410,-0.44754073023796,56.99859619140625,4.36911821365356,0.01558381412178,10.21275806427002,0.19794681668282,-0.39388290047646,2.72548294067383
536,2337392834,-0.33313867449760,-0.43862345814705,57.00123214721680,0.47329393029213,-0.03299266844988,10.12098884582520,0.89378321170807,0.58415824174881,3.06733012199402
537,2337401167,-0.33007052540779,-0.43177816271782,57.00285339355469,-3.81734251976013,-0.01238268241286,10.07745742797852,0.47099459171295,0.32176601886749,2.80975341796875
538,2337409500,-0.33427998423576,-0.43673884868622,56.99752044677734,-3.18724584579468,-0.06162521243095,10.08197975158691,-0.40863665938377,-1.09714722633362,2.41900849342346
539,2337417833,-0.33940672874451,-0.44711133837700,56.99431991577148,1.59542381763458,-0.00758350454271,10.10341644287109,-0.51876515150070,-1.74094843864441,2.21771883964539
540,2337426166,-0.34077832102776,-0.44870251417160,56.99077606201172,4.72867631912231,0.10149107873440,10.18916702270508,-0.06766001135111,-0.70069026947021,2.40422892570496
541,2337434499,-0.33686313033104,-0.43912500143051,56.99231338500977,2.42561697959900,-0.07931251823902,10.15613269805908,0.57170969247818,0.64883416891098,2.80327296257019
542,2337442832,-0.33172091841698,-0.42891854047775,56.99291610717773,-2.71867275238037,-0.11854110658169,10.11392402648926,0.71635329723358,0.74960058927536,2.91710281372070
543,2337451165,-0.33300071954727,-0.42888054251671,56.99180603027344,-4.62189674377441,-0.09223660826683,10.11874389648438,-0.05344409868121,-0.49398329854012,2.47748565673828
544,2337459498,-0.33839613199234,-0.43849512934685,56.98815536499023,-1.01486992835999,-0.17644810676575,10.13390541076660,-0.55294734239578,-1.66724348068237,2.34044957160950
545,2337467831,-0.34146463871002,-0.44695505499840,56.98476791381836,3.72671580314636,0.01205826643854,10.18133640289307,-0.27070403099060,-1.51107335090637,2.19908452033997
546,2337476164,-0.34019413590431,-0.44386947154999,56.98311614990234,4.03772115707397,-0.01142600923777,10.21593761444092,0.24994373321533,-0.12972331047058,2.60857915878296
547,2337484497,-0.33389586210251,-0.43442761898041,56.98581695556641,-0.47995370626450,-0.22041061520576,10.14938068389893,0.85922950506210,0.63195443153381,2.94120573997498
548,2337492830,-0.33015441894531,-0.42957097291946,56.98633575439453,-4.44218587875366,-0.16197134554386,10.10471820831299,0.54906672239304,0.09871726483107,2.85071086883545
549,2337501163,-0.33444541692734,-0.43763974308968,56.98500061035156,-3.11025834083557,-0.09696767479181,10.12028694152832,-0.41542446613312,-1.46647882461548,2.44615960121155
550,2337509496,-0.33904853463173,-0.44932585954666,56.98326873779297,1.97505187988281,-0.04842247813940,10.14376354217529,-0.45507529377937,-1.92389786243439,2.46867442131042
551,2337517829,-0.34009894728661,-0.45214667916298,56.98311233520508,4.86478376388550,0.09781984984875,10.19638824462891,-0.02439755946398,-0.83790570497513,2.59082865715027
552,2337526162,-0.33552333712578,-0.44410103559494,56.98341751098633,2.30231904983521,0.02072391100228,10.11873531341553,0.64919281005859,0.47514408826828,2.84394860267639
553,2337534495,-0.32982784509659,-0.43436753749847,56.98522567749023,-2.62079238891602,-0.04993274807930,10.08497524261475,0.78494828939438,0.66842913627625,2.83552169799805
554,2337542828,-0.33181369304657,-0.43429985642433,56.98294830322266,-4.15530204772949,0.00024423922878,10.07815361022949,-0.14068619906902,-0.48109936714172,2.49631237983704
555,2337551161,-0.33724865317345,-0.44323304295540,56.98014450073242,-0.57792562246323,-0.03811156377196,10.12574577331543,-0.55476593971252,-1.56911540031433,2.26849937438965
556,2337559494,-0.34091690182686,-0.44902762770653,56.97758483886719,3.67573523521423,0.02089380100369,10.20250892639160,-0.34319230914116,-1.21010613441467,2.43588829040527
557,2337567827,-0.33940842747688,-0.44512629508972,56.97832489013672,3.54505062103271,-0.01716673932970,10.24435997009277,0.28126993775368,-0.03244043141603,2.70204567909241
558,2337576160,-0.33480569720268,-0.43515029549599,56.98004913330078,-0.75590276718140,-0.16832460463047,10.16502475738525,0.65239459276199,0.71683996915817,2.89428067207336
559,2337584493,-0.33365556597710,-0.43087631464005,56.97999572753906,-4.07807493209839,-0.19308398663998,10.11027145385742,0.23790504038334,0.01311448961496,2.60719609260559
560,2337592826,-0.33806052803993,-0.43719032406807,56.97705459594727,-2.48589658737183,-0.21522027254105,10.12340545654297,-0.43256035447121,-1.26161646842957,2.33268857002258
561,2337601159,-0.34118521213531,-0.44764548540115,56.97526168823242,2.00809216499329,-0.12221042811871,10.19637870788574,-0.27631357312202,-1.75153994560242,2.38924479484558
562,2337609492,-0.34048542380333,-0.44926124811172,56.97404098510742,4.02289772033691,-0.00850531924516,10.24328517913818,0.18417914211750,-0.70331567525864,2.68059372901917
563,2337617825,-0.33576872944832,-0.44229355454445,56.97776794433594,1.24462139606476,-0.08172366023064,10.16750526428223,0.67052942514420,0.33580261468887,3.06218194961548
564,2337626158,-0.33052983880043,-0.43686193227768,56.97971725463867,-2.94783663749695,-0.06728970259428,10.08294010162354,0.73090225458145,0.16590341925621,3.04350924491882
565,2337634491,-0.33158722519875,-0.44093114137650,56.97922515869141,-3.34835839271545,-0.01165595278144,10.08135604858398,-0.02635704725981,-0.98768496513367,2.54619574546814
566,2337642824,-0.33600407838821,-0.45049947500229,56.97515106201172,0.48144367337227,0.03192992508411,10.16791915893555,-0.43510904908180,-1.66026365756989,2.26894736289978
567,2337651157,-0.33729076385498,-0.45425021648407,56.97250747680664,3.99333357810974,0.14393320679665,10.20387935638428,-0.05526271089911,-0.94776517152786,2.29111647605896
568,2337659490,-0.33590134978294,-0.44859525561333,56.97232055664062,2.90210080146790,0.03999068215489,10.17333889007568,0.26415961980820,0.18508848547935,2.66572499275208
569,2337667823,-0.33140850067139,-0.43914747238159,56.97504043579102,-1.45753419399261,-0.10243441164494,10.10940361022949,0.64230251312256,0.63318389654160,2.94630289077759
570,2337676156,-0.33135101199150,-0.43613630533218,56.97402191162109,-3.96684622764587,-0.08454016596079,10.08536052703857,0.10504398494959,-0.12598362565041,2.60284209251404
571,2337684489,-0.33656927943230,-0.44430515170097,56.97114562988281,-1.60369873046875,-0.14726315438747,10.12322044372559,-0.52858817577362,-1.47657108306885,2.26063561439514
572,2337692822,-0.34071555733681,-0.45306614041328,56.96821212768555,2.71732664108276,-0.10260506719351,10.16839218139648,-0.40192574262619,-1.56575989723206,2.39528965950012
573,2337701155,-0.34019589424133,-0.45203927159309,56.96794128417969,3.85843992233276,-0.08108869940042,10.21621990203857,0.16347005963326,-0.37518447637558,2.57968616485596
574,2337709488,-0.33498007059097,-0.44205206632614,56.96834945678711,0.42908194661140,-0.16245780885220,10.15435123443604,0.72562569379807,0.71366387605667,2.81733536720276
575,2337717821,-0.33131542801857,-0.43549644947052,56.97000122070312,-3.57119464874268,-0.11153914034367,10.12160396575928,0.54148495197296,0.28690505027771,2.81318616867065
576,2337726154,-0.33468389511108,-0.44041913747787,56.96919631958008,-3.38689184188843,-0.15447387099266,10.13602256774902,-0.30574432015419,-1.09071826934814,2.48230123519897
577,2337734487,-0.33789783716202,-0.45122024416924,56.96879196166992,0.81631076335907,-0.05361900106072,10.15380287170410,-0.28661048412323,-1.79531455039978,2.55420017242432
578,2337742820,-0.33856669068336,-0.45683044195175,56.96691131591797,4.04113101959229,0.11470443755388,10.22100353240967,0.01905699260533,-1.18574690818787,2.57489633560181
579,2337751153,-0.33540460467339,-0.45118340849876,56.96742248535156,2.62856340408325,0.00625461526215,10.15020275115967,0.48141953349113,0.17881298065186,2.67648267745972
580,2337759486,-0.33090680837631,-0.44167199730873,56.96775817871094,-1.62271749973297,-0.07059597223997,10.10703468322754,0.63943374156952,0.65826016664505,2.78495883941650
581,2337767819,-0.33070838451385,-0.44072619080544,56.96753311157227,-3.67540240287781,-0.02185199968517,10.05802631378174,0.12435709685087,-0.38560944795609,2.58434796333313
582,2337776152,-0.33566683530807,-0.44765418767929,56.96398544311523,-1.09416580200195,-0.05706425011158,10.11913013458252,-0.50041252374649,-1.33687114715576,2.25699853897095
583,2337784485,-0.33865827322006,-0.45471030473709,56.96277618408203,2.92190742492676,0.00512146716937,10.18096065521240,-0.25928011536598,-1.34486269950867,2.46145129203796
584,2337792818,-0.33765432238579,-0.45188522338867,56.96164321899414,3.59466648101807,0.01484702248126,10.17505645751953,0.21859186887741,-0.16022983193398,2.62599706649780
585,2337801151,-0.33357834815979,-0.44200274348259,56.96382522583008,0.13778874278069,-0.13930384814739,10.16696739196777,0.59289264678955,0.68487340211868,2.88167810440063
586,2337809484,-0.33117818832397,-0.43691077828407,56.96283721923828,-3.33126235008240,-0.10815511643887,10.13093566894531,0.38503322005272,0.12809680402279,2.65102243423462
587,2337817817,-0.33476617932320,-0.44062075018883,56.96124649047852,-2.76294493675232,-0.11422500759363,10.13018894195557,-0.33153787255287,-0.94394868612289,2.41706180572510
588,2337826150,-0.33903497457504,-0.44892886281013,56.95826339721680,1.05358088016510,-0.09231219440699,10.19277858734131,-0.41493782401085,-1.50876808166504,2.42297863960266
589,2337834483,-0.33987194299698,-0.45163616538048,56.95743179321289,3.45865797996521,-0.00023159530247,10.22227573394775,-0.00057632027892,-0.82258838415146,2.50842785835266
590,2337842816,-0.33677631616592,-0.44594961404800,56.95836639404297,1.66287016868591,-0.08364555984735,10.21341991424561,0.47227531671524,0.18957094848156,2.81733536720276
591,2337851149,-0.33210551738739,-0.43904054164886,56.96086502075195,-2.15128827095032,-0.13080160319805,10.13020801544189,0.66348546743393,0.32837447524071,2.91822981834412
592,2337859482,-0.33246001601219,-0.44074580073357,56.95962524414062,-3.25503420829773,-0.11655093729496,10.10727310180664,0.05668430775404,-0.70138186216354,2.62904500961304
593,2337867815,-0.33673256635666,-0.44856271147728,56.95660018920898,-0.28013342618942,-0.07740184664726,10.11021423339844,-0.41486096382141,-1.43492221832275,2.24321794509888
594,2337876148,-0.33820199966431,-0.45450219511986,56.95370483398438,3.20832371711731,0.06562943756580,10.18249130249023,-0.07910956442356,-1.22178626060486,2.37198066711426
595,2337884481,-0.33668699860573,-0.45038080215454,56.95433807373047,3.08795595169067,0.03971590474248,10.16013240814209,0.28293484449387,-0.00582723878324,2.69051933288574
596,2337892814,-0.33221095800400,-0.44088870286942,56.95548248291016,-0.54058009386063,-0.06635846942663,10.11274051666260,0.63734626770020,0.65404671430588,2.83996558189392
597,2337901147,-0.33145737648010,-0.43688362836838,56.95539855957031,-3.32601761817932,-0.04567847028375,10.08949661254883,0.19031375646591,-0.01871119812131,2.60363578796387
598,2337909480,-0.33465462923050,-0.44121497869492,56.95219039916992,-1.95878398418427,-0.02515678666532,10.12426662445068,-0.28719958662987,-1.02107310295105,2.40730237960815
599,2337917813,-0.33879536390305,-0.44754242897034,56.95064163208008,1.85437178611755,0.00772226275876,10.17455005645752,-0.39826288819313,-1.25746679306030,2.42072463035583
600,2337926146,-0.34012231230736,-0.44698891043663,56.94860839843750,3.52411079406738,0.01101013831794,10.20783901214600,-0.06087223440409,-0.43604394793510,2.50384283065796
601,2337934479,-0.33643075823784,-0.43921303749084,56.94987487792969,1.02879631519318,-0.13927471637726,10.16044616699219,0.54373896121979,0.43293178081512,2.77061486244202
602,2337942812,-0.33334150910378,-0.43171626329422,56.94970321655273,-2.71829628944397,-0.15026792883873,10.13358402252197,0.46927839517593,0.41484814882278,2.70803952217102
603,2337951145,-0.33597353100777,-0.43345329165459,56.94937896728516,-3.27934169769287,-0.15829889476299,10.14218997955322,-0.21486502885818,-0.70665836334229,2.56969690322876
604,2337959478,-0.34049105644226,-0.44265082478523,56.94660949707031,0.03339576721191,-0.17494735121727,10.15933513641357,-0.44570046663284,-1.61327421665192,2.40717458724976
605,2337967811,-0.34153607487679,-0.44859871268272,56.94653320312500,3.28203225135803,-0.01266866549850,10.20502758026123,-0.02373159117997,-1.21410202980042,2.59751439094543
606,2337976144,-0.33932909369469,-0.44517144560814,56.94753646850586,2.73238778114319,-0.03502153232694,10.16908645629883,0.36612984538078,-0.08615347743034,2.86951160430908
607,2337984477,-0.33410993218422,-0.43628630042076,56.94966125488281,-0.91958928108215,-0.05278234928846,10.10484313964844,0.72767478227615,0.56505000591278,2.87350726127625
608,2337992810,-0.33347293734550,-0.43397009372711,56.94813537597656,-3.29634261131287,-0.03785039857030,10.08544158935547,0.17668700218201,-0.21186816692352,2.66480255126953
609,2338001143,-0.33677369356155,-0.44068169593811,56.94652557373047,-1.55726122856140,-0.03004420362413,10.12267589569092,-0.29662564396858,-1.30341863632202,2.41283512115479
610,2338009476,-0.33967131376266,-0.44686889648438,56.94370269775391,2.15223264694214,0.07000932097435,10.17985820770264,-0.25110915303230,-1.25423943996429,2.41990470886230
611,2338017809,-0.34006917476654,-0.44597065448761,56.94333267211914,3.41378998756409,0.11462549120188,10.22287654876709,0.05335444957018,-0.38952845335007,2.56616210937500
612,2338026142,-0.33717516064644,-0.43825936317444,56.94340896606445,0.80476731061935,-0.07051556557417,10.12411689758301,0.44635364413261,0.43546760082245,2.80957412719727
613,2338034475,-0.33431565761566,-0.43215113878250,56.94429016113281,-2.54935097694397,-0.11624490469694,10.09532928466797,0.44358736276627,0.23232112824917,2.72146153450012
614,2338042808,-0.33666878938675,-0.43426138162613,56.94126510620117,-2.69614386558533,-0.10392091423273,10.12038803100586,-0.18648444116116,-0.74835830926895,2.38512063026428
615,2338051141,-0.34014797210693,-0.44118008017540,56.93912887573242,0.48064640164375,-0.12056756764650,10.15922451019287,-0.31839773058891,-1.32734239101410,2.34782624244690
616,2338059474,-0.34184128046036,-0.44459390640259,56.93818283081055,3.02097582817078,-0.06602576375008,10.18931198120117,-0.10531293600798,-0.91579848527908,2.53603959083557
617,2338067807,-0.33994606137276,-0.43917152285576,56.93972396850586,1.94127547740936,-0.14324294030666,10.17292594909668,0.32904043793678,0.15015065670013,2.79889297485352
618,2338076140,-0.33599844574928,-0.43201357126236,56.94165802001953,-1.46714818477631,-0.15089537203312,10.15143871307373,0.57511639595032,0.36938288807869,2.96413040161133
619,2338084473,-0.33557856082916,-0.43124118447304,56.94219589233398,-3.07272505760193,-0.09337271749973,10.12035655975342,0.15117521584034,-0.40556299686432,2.67515087127686
620,2338092806,-0.33985456824303,-0.43817618489265,56.94017410278320,-0.93727022409439,-0.07965924590826,10.13072776794434,-0.41422060132027,-1.33835649490356,2.44618487358093
621,2338101139,-0.34145876765251,-0.44497281312943,56.93875122070312,2.39371538162231,0.03020921163261,10.17488670349121,-0.09260825812817,-1.31235826015472,2.43714332580566
622,2338109472,-0.33976015448570,-0.44407722353935,56.93864440917969,2.95485663414001,0.07126766443253,10.18882846832275,0.30240169167519,-0.39421591162682,2.64036679267883
623,2338117805,-0.33611381053925,-0.43733945488930,56.94036483764648,0.09492156654596,-0.00968107115477,10.10885047912598,0.53920531272888,0.30824172496796,2.82340598106384
624,2338126138,-0.33481219410896,-0.43292385339737,56.94042968750000,-2.67045998573303,-0.07452823966742,10.09772109985352,0.25670585036278,0.03965083137155,2.77998995780945
625,2338134471,-0.33628806471825,-0.43642303347588,56.93893051147461,-2.02864623069763,-0.08223632723093,10.10117816925049,-0.07926324754953,-0.91754031181335,2.42876720428467
626,2338142804,-0.33944109082222,-0.44282120466232,56.93469238281250,1.27420020103455,-0.01474810298532,10.14210891723633,-0.28153887391090,-1.27521765232086,2.32444071769714
627,2338151137,-0.34051498770714,-0.44376039505005,56.93317794799805,3.24495053291321,0.00412206258625,10.18383789062500,-0.02895689383149,-0.60983651876450,2.42797350883484
628,2338159470,-0.33755576610565,-0.43671533465385,56.93192672729492,1.49616694450378,-0.09583431482315,10.14472389221191,0.45227059721947,0.35386064648628,2.64541268348694
629,2338167803,-0.33422023057938,-0.42898043990135,56.93381500244141,-1.97151565551758,-0.14605395495892,10.13240051269531,0.50376802682877,0.42782178521156,2.84378242492676
630,2338176136,-0.33400189876556,-0.42852443456650,56.93294525146484,-3.06627631187439,-0.14214202761650,10.15775394439697,0.12412657588720,-0.43914324045181,2.60063862800598
631,2338184469,-0.33691892027855,-0.43500086665154,56.93202590942383,-0.53811883926392,-0.11131725460291,10.15175724029541,-0.25036635994911,-1.27467954158783,2.49754166603088
632,2338192802,-0.33939716219902,-0.44010379910469,56.93078231811523,2.54172992706299,-0.00062504218658,10.19046783447266,-0.19810049235821,-1.12198019027710,2.59809017181396
633,2338201135,-0.33806869387627,-0.43656349182129,56.93185806274414,2.59997701644897,-0.04996078088880,10.17300701141357,0.26129084825516,-0.07373058050871,2.74126124382019
634,2338209468,-0.33371534943581,-0.42892825603485,56.93369674682617,-0.39018684625626,-0.11780522018671,10.15426063537598,0.62209296226501,0.42473524808884,2.86111021041870
635,2338217801,-0.33142271637917,-0.42691728472710,56.93384933471680,-2.82932519912720,-0.07086017727852,10.12929821014404,0.37673413753510,-0.25679549574852,2.63216972351074
636,2338226134,-0.33460068702698,-0.43227049708366,56.93261718750000,-1.77884697914124,-0.08802367001772,10.13706684112549,-0.28310135006905,-1.14484095573425,2.50471353530884
637,2338234467,-0.33672490715981,-0.44043618440628,56.93106079101562,1.53584682941437,-0.03355172276497,10.16955375671387,-0.15572175383568,-1.47803103923798,2.41747188568115
638,2338242800,-0.33630713820457,-0.44175314903259,56.92994689941406,3.16782307624817,0.04773645475507,10.17605304718018,0.14881870150566,-0.66032218933105,2.60811853408813
639,2338251133,-0.33332321047783,-0.43553587794304,56.93127441406250,1.25377619266510,-0.02452310174704,10.13684654235840,0.46039029955864,0.24556368589401,2.77340698242188
640,2338259466,-0.33117711544037,-0.42894500494003,56.93138504028320,-1.89536499977112,-0.05742431804538,10.09014987945557,0.35621720552444,0.30283710360527,2.75086641311646
641,2338267799,-0.33266484737396,-0.43000817298889,56.93017196655273,-2.54471993446350,-0.06736911088228,10.12100791931152,-0.07877658307552,-0.62638330459595,2.46483230590820
642,2338276132,-0.33705058693886,-0.43542301654816,56.92744064331055,-0.02540343441069,-0.07684642821550,10.15561389923096,-0.42829567193985,-1.15210282802582,2.37148118019104
643,2338284465,-0.33812817931175,-0.43885153532028,56.92581176757812,2.55360388755798,0.01273318845779,10.22850131988525,-0.03064742870629,-0.91021460294724,2.41227197647095
644,2338292798,-0.33724611997604,-0.43499749898911,56.92599487304688,2.04736399650574,-0.04275814071298,10.18855571746826,0.20540055632591,-0.03418219462037,2.71490406990051
645,2338301131,-0.33453211188316,-0.42903044819832,56.92707824707031,-0.90411061048508,-0.17275318503380,10.14670848846436,0.42732223868370,0.21769540011883,2.74489808082581
646,2338309464,-0.33362630009651,-0.42748501896858,56.92654418945312,-2.74986195564270,-0.16103395819664,10.11752510070801,0.20750093460083,-0.30748611688614,2.63201642036438
647,2338317797,-0.33602160215378,-0.43282344937325,56.92560958862305,-1.26558780670166,-0.12763880193233,10.12914657592773,-0.18827745318413,-1.13971829414368,2.49503135681152
648,2338326130,-0.33784416317940,-0.43867269158363,56.92375183105469,1.77552020549774,-0.08229726552963,10.14451694488525,-0.11993865668774,-1.20790338516235,2.45914602279663
649,2338334463,-0.33733525872231,-0.43942528963089,56.92467498779297,2.71477842330933,-0.04386958479881,10.17228126525879,0.16318829357624,-0.59083080291748,2.72212743759155
650,2338342796,-0.33393451571465,-0.43387055397034,56.92612075805664,0.52810037136078,-0.08609011024237,10.14029121398926,0.50936466455460,0.17330591380596,2.91692328453064
651,2338351129,-0.33128508925438,-0.43010962009430,56.92750549316406,-2.15604233741760,-0.04729986190796,10.13208007812500,0.42067539691925,-0.04761686548591,2.78133463859558
652,2338359462,-0.33225211501122,-0.43282145261765,56.92697525024414,-2.05273890495300,-0.02346646226943,10.10513401031494,-0.01704627461731,-0.82479125261307,2.64354300498962
653,2338367795,-0.33549472689629,-0.43895059823990,56.92489624023438,0.71486163139343,0.00462828623131,10.12175178527832,-0.28988909721375,-1.23321020603180,2.35791850090027
654,2338376128,-0.33527752757072,-0.44097411632538,56.92368316650391,2.83362507820129,0.06241354718804,10.16712093353271,0.12460044771433,-0.74555355310440,2.54898786544800
655,2338384461,-0.33259421586990,-0.43572875857353,56.92444229125977,1.74428546428680,0.00520594930276,10.15232181549072,0.42355704307556,0.12988978624344,2.70458173751831
656,2338392794,-0.33052322268486,-0.42842453718185,56.92501068115234,-1.30080318450928,-0.07107757776976,10.12826538085938,0.34794375300407,0.38749217987061,2.74653768539429
657,2338401127,-0.33031594753265,-0.42719480395317,56.92490386962891,-2.68990230560303,-0.14344556629658,10.13181591033936,0.12571467459202,-0.35044115781784,2.60017824172974
658,2338409460,-0.33364167809486,-0.43216791749001,56.92236328125000,-0.82315540313721,-0.16388107836246,10.11832618713379,-0.30341348052025,-1.09899163246155,2.36624312400818
659,2338417793,-0.33510884642601,-0.43778154253960,56.92130661010742,2.05700302124023,-0.07606077939272,10.18656063079834,-0.07516497373581,-1.17194092273712,2.48017501831055
660,2338426126,-0.33438488841057,-0.43597039580345,56.92187881469727,2.50960302352905,-0.06972791254520,10.20451641082764,0.18643321096897,-0.28144919872284,2.75392723083496
661,2338434459,-0.33111298084259,-0.42999860644341,56.92380523681641,-0.01112262252718,-0.15320201218128,10.16141128540039,0.49658313393593,0.21682448685169,2.84650969505310
662,2338442792,-0.32889494299889,-0.42670390009880,56.92464065551758,-2.45131230354309,-0.13420149683952,10.11948585510254,0.36610427498817,-0.09750058501959,2.79510211944580
663,2338451125,-0.33070319890976,-0.43007132411003,56.92389297485352,-1.95554351806641,-0.09438233822584,10.12823295593262,-0.11660880595446,-0.90191560983658,2.51821255683899
664,2338459458,-0.33275708556175,-0.43663397431374,56.92156600952148,0.94780486822128,-0.00716395117342,10.13951110839844,-0.14708974957466,-1.29350614547729,2.43496608734131
665,2338467791,-0.33286929130554,-0.43930795788765,56.92145919799805,2.75778532028198,0.08758992701769,10.16346359252930,0.08601260930300,-0.81995010375977,2.59894824028015
666,2338476124,-0.33007720112801,-0.43477520346642,56.92124938964844,1.45323908329010,0.01114536356181,10.13819313049316,0.43564683198929,0.05025512725115,2.74492359161377
667,2338484457,-0.32650348544121,-0.42888358235359,56.92309951782227,-1.36612212657928,-0.03704924136400,10.12182521820068,0.53236621618271,0.20691177248955,2.83774971961975
668,2338492790,-0.32647827267647,-0.42874601483345,56.92137145996094,-2.30614328384399,-0.03340401127934,10.10228538513184,0.10158606618643,-0.47833299636841,2.53929305076599
669,2338501123,-0.33091881871223,-0.43415424227715,56.91938018798828,-0.29084840416908,-0.08287990093231,10.13679027557373,-0.43484011292458,-1.14596807956696,2.36734437942505
670,2338509456,-0.33292183279991,-0.43694114685059,56.91846084594727,2.21755766868591,-0.03548879176378,10.18449306488037,-0.14045564830303,-0.83890461921692,2.58017301559448
671,2338517789,-0.33177644014359,-0.43421319127083,56.91898727416992,2.13724637031555,-0.05091367661953,10.19205188751221,0.23887836933136,-0.17141047120094,2.67509937286377
672,2338526122,-0.32911714911461,-0.42779216170311,56.91839981079102,-0.39921584725380,-0.13328430056572,10.12420940399170,0.41861346364021,0.28006607294083,2.70488929748535
673,2338534455,-0.32798922061920,-0.42493250966072,56.91907882690430,-2.41099262237549,-0.14600136876106,10.11431407928467,0.23631694912910,-0.15613158047199,2.69505286216736
674,2338542788,-0.33002683520317,-0.42970725893974,56.91613769531250,-1.50973010063171,-0.12943322956562,10.14658355712891,-0.14665430784225,-1.07058537006378,2.35855865478516
675,2338551121,-0.33225804567337,-0.43495926260948,56.91492080688477,1.19357526302338,-0.05799619108438,10.18571567535400,-0.16809344291687,-1.12844800949097,2.46360278129578
676,2338559454,-0.33264863491058,-0.43581381440163,56.91356277465820,2.42741036415100,0.00059032888385,10.17308521270752,0.05212496966124,-0.60443192720413,2.53171086311340
677,2338567787,-0.33087423443794,-0.43076953291893,56.91478729248047,0.71981173753738,-0.05171556770802,10.11765861511230,0.31561860442162,0.10658083111048,2.76147079467773
678,2338576120,-0.32914054393768,-0.42695271968842,56.91490173339844,-1.76825761795044,-0.09806233644485,10.10877418518066,0.30790868401527,-0.03448956832290,2.79218173027039
679,2338584453,-0.33011797070503,-0.42963758111000,56.91450119018555,-2.01522254943848,-0.05970138311386,10.12115859985352,-0.01712311804295,-0.82174313068390,2.56121897697449
680,2338592786,-0.33303931355476,-0.43591758608818,56.91212081909180,0.32192274928093,-0.02684187330306,10.14856719970703,-0.25118601322174,-1.25633990764618,2.47994470596313
681,2338601119,-0.33372482657433,-0.43917891383171,56.91212081909180,2.46306014060974,0.03738038614392,10.17039489746094,0.01818610541523,-0.89072221517563,2.60873293876648
682,2338609452,-0.33145067095757,-0.43541920185089,56.91077804565430,1.88573038578033,-0.04691170528531,10.13372230529785,0.37217485904694,-0.04399244859815,2.60888671875000
683,2338617785,-0.32736587524414,-0.42890062928200,56.91174697875977,-0.73362112045288,-0.04454734176397,10.11223602294922,0.59156078100204,0.28173097968102,2.72922229766846
684,2338626118,-0.32736727595329,-0.42725172638893,56.91087341308594,-2.33392763137817,-0.04813181608915,10.13085651397705,0.10027971863747,-0.29296278953552,2.57084918022156
685,2338634451,-0.32985454797745,-0.43101784586906,56.90914154052734,-0.99855953454971,-0.10866485536098,10.12230873107910,-0.20046983659267,-0.95058274269104,2.40307641029358
686,2338642784,-0.33153048157692,-0.43510898947716,56.90652084350586,1.58727014064789,-0.01677925884724,10.17967891693115,-0.10170132666826,-0.99461352825165,2.48363280296326
687,2338651117,-0.33139964938164,-0.43482497334480,56.90594863891602,2.31114888191223,-0.01565203070641,10.19584655761719,0.11536651104689,-0.46388658881187,2.54336547851562
