sep=,
DeviceTag:,left thigh
FirmwareVersion:,2.2.1
AppVersion:,2023.6.0
StartTime: ,2025-04-02_17:15:41_000 PDT
© Movella Technologies B. V. 2005-2025

PacketCounter,SampleTimeFine,Euler_X,Euler_Y,Euler_Z,Acc_X,Acc_Y,Acc_Z,Gyr_X,Gyr_Y,Gyr_Z
0,2395356711,-0.36513534188271,-0.40319857001305,56.00275421142578,0.00000000000000,0.00000000000000,0.00000000000000,0.00000000000000,0.00000000000000,0.00000000000000
1,2395365044,-0.36438101530075,-0.40678501129150,56.02402496337891,0.06489619612694,-0.08201505988836,10.12427616119385,0.10825857520103,-0.44596946239471,2.54909038543701
2,2395373377,-0.37133562564850,-0.41089731454849,56.07058334350586,0.08755289763212,-0.08016730844975,10.13890838623047,0.01307606697083,-0.54094702005386,2.58679461479187
3,2395381710,-0.37058752775192,-0.41521292924881,56.09209060668945,0.08477464318275,-0.03982516378164,10.13340854644775,0.10813048481941,-0.53451788425446,2.57693314552307
4,2395390043,-0.36862808465958,-0.43057602643967,56.14303588867188,0.08369506150484,-0.06172778084874,10.13340091705322,0.01128307171166,-0.62780493497849,2.56548380851746
5,2395398376,-0.36783289909363,-0.43510985374451,56.16453933715820,0.06625264137983,-0.06526132673025,10.16270732879639,0.11468774825335,-0.56077247858047,2.57857227325439
6,2395406709,-0.36442279815674,-0.44351509213448,56.18382263183594,0.07251250743866,-0.06876830011606,10.14988231658936,0.19173537194729,-0.56090050935745,2.62608671188354
7,2395415042,-0.36420822143555,-0.44756299257278,56.20518493652344,0.06601036339998,-0.05758418887854,10.13890266418457,0.04596474394202,-0.50160366296768,2.56056571006775
8,2395423375,-0.36262014508247,-0.44938158988953,56.24441528320312,0.07394787669182,-0.06490889191628,10.13521862030029,0.02485861629248,-0.41792187094688,2.65405750274658
9,2395431708,-0.36298421025276,-0.45371341705322,56.26602935791016,0.08187779784203,-0.07779168337584,10.13704204559326,-0.02297596819699,-0.53584980964661,2.58851051330566
10,2395440041,-0.36389848589897,-0.45655065774918,56.29687500000000,0.05507687851787,-0.09045571833849,10.15172195434570,0.07877656817436,-0.50987690687180,2.71466040611267
11,2395448374,-0.36239045858383,-0.46022391319275,56.31835556030273,0.05418717488647,-0.05182300880551,10.14805221557617,0.20180176198483,-0.45780318975449,2.57360315322876
12,2395456707,-0.36350378394127,-0.45857718586922,56.34514236450195,0.08598968386650,-0.05909454450011,10.13701343536377,0.15713053941727,-0.58715516328812,2.56709718704224
13,2395465040,-0.36279878020287,-0.46185499429703,56.36632919311523,0.07942975312471,-0.06435762345791,10.17181301116943,0.10523608326912,-0.40995582938194,2.53922867774963
14,2395473373,-0.36294803023338,-0.46210205554962,56.39805221557617,0.07990211248398,-0.07340029627085,10.12604904174805,0.10994911193848,-0.48044624924660,2.61958074569702
15,2395481706,-0.36228409409523,-0.46609222888947,56.41924667358398,0.06055280193686,-0.06578207761049,10.15536975860596,0.10001078248024,-0.49519997835159,2.53928017616272
16,2395490039,-0.36234539747238,-0.46753922104836,56.44284820556641,0.08342528343201,-0.05115409940481,10.15714836120605,0.15848807990551,-0.64130365848541,2.56220507621765
17,2395498372,-0.36157563328743,-0.47111901640892,56.46409225463867,0.06588771194220,-0.05997346714139,10.17182826995850,0.11335579305887,-0.44443261623383,2.54581165313721
18,2395506705,-0.36032924056053,-0.47174096107483,56.47963714599609,0.08490023761988,-0.04898514226079,10.14248657226562,0.16404639184475,-0.49379125237465,2.61135864257812
19,2395515038,-0.35964941978455,-0.47498816251755,56.50062561035156,0.08897774666548,-0.07996655255556,10.15531158447266,0.10369923710823,-0.40503790974617,2.51466488838196
20,2395523371,-0.35802277922630,-0.47722339630127,56.51814270019531,0.06788210570812,-0.05211167782545,10.15350246429443,0.21143269538879,-0.52680802345276,2.63097906112671
21,2395531704,-0.35713654756546,-0.48147523403168,56.53953933715820,0.06859844177961,-0.06285641342402,10.18097591400146,0.12777659296989,-0.52642369270325,2.56386923789978
22,2395540037,-0.35617318749428,-0.48260381817818,56.55484771728516,0.06893517822027,-0.09203663468361,10.14252281188965,0.08876614272594,-0.46553876996040,2.61138415336609
23,2395548370,-0.35502228140831,-0.48672533035278,56.57776260375977,0.07537467777729,-0.06812747567892,10.16812896728516,0.16079334914684,-0.51182365417480,2.74580740928650
24,2395556703,-0.35427820682526,-0.48902186751366,56.58963775634766,0.07439755648375,-0.06421910971403,10.16812896728516,0.19452729821205,-0.62350165843964,2.63100457191467
25,2395565036,-0.35356092453003,-0.49304920434952,56.61067199707031,0.07342018187046,-0.06580665707588,10.17362976074219,0.10820733010769,-0.49845302104950,2.52122187614441
26,2395573369,-0.35309615731239,-0.49441489577293,56.62820053100586,0.06287004798651,-0.08384966105223,10.16266536712646,0.15098312497139,-0.50521516799927,2.68676686286926
27,2395581702,-0.35251578688622,-0.49786412715912,56.64945983886719,0.06579402089119,-0.05256192013621,10.16997528076172,0.09222405403852,-0.42949953675270,2.54745101928711
28,2395590035,-0.35282647609711,-0.49820333719254,56.66601562500000,0.05355917662382,-0.04866959899664,10.14253044128418,0.07098986208439,-0.42932021617889,2.60162520408630
29,2395598368,-0.35207244753838,-0.50267964601517,56.68826675415039,0.07442851364613,-0.05063156783581,10.16994571685791,0.11455967277288,-0.55418962240219,2.66553258895874
30,2395606701,-0.35189265012741,-0.50382834672928,56.69329071044922,0.06607821583748,-0.04675177112222,10.15530395507812,0.05386673286557,-0.55708396434784,2.65581202507019
31,2395615034,-0.35022228956223,-0.50737935304642,56.71480941772461,0.09618625789881,-0.04515038803220,10.16621208190918,0.22339457273483,-0.44184553623199,2.58174824714661
32,2395623367,-0.34964287281036,-0.50904464721680,56.72192001342773,0.06555739790201,-0.05187726393342,10.13701438903809,0.03407974168658,-0.56999361515045,2.67385745048523
33,2395631700,-0.34881693124771,-0.51307219266891,56.74383163452148,0.06437020748854,-0.06093886867166,10.12785243988037,0.12139866501093,-0.50014352798462,2.62616348266602
34,2395640033,-0.34795853495598,-0.51505029201508,56.76474761962891,0.08543328940868,-0.05560432747006,10.14243507385254,0.05971959233284,-0.62760001420975,2.54268670082092
35,2395648366,-0.34636548161507,-0.51867377758026,56.78706741333008,0.08791621774435,-0.07013989984989,10.17172813415527,0.21532605588436,-0.45168143510818,2.67521476745605
36,2395656699,-0.34464564919472,-0.52037364244461,56.79744338989258,0.08883728832006,-0.05156768485904,10.15157699584961,0.17846718430519,-0.54156178236008,2.61630177497864
37,2395665032,-0.34411534667015,-0.52491682767868,56.82049560546875,0.07305891066790,-0.05479791387916,10.15161991119385,0.08838192373514,-0.56213003396988,2.76399397850037
38,2395673365,-0.34272965788841,-0.52703225612640,56.82827377319336,0.07724887877703,-0.07669191807508,10.16992473602295,0.12424183636904,-0.56738090515137,2.66886234283447
39,2395681698,-0.34183332324028,-0.53213554620743,56.84923553466797,0.06577296555042,-0.04702285304666,10.16261386871338,0.13170841336250,-0.62816351652145,2.51311516761780
40,2395690031,-0.34065416455269,-0.53324234485626,56.85953521728516,0.08281520754099,-0.06179299578071,10.16257095336914,0.11358632892370,-0.45257794857025,2.54750227928162
41,2395698364,-0.33889627456665,-0.53761291503906,56.88130950927734,0.08334139734507,-0.06709161400795,10.14792919158936,0.23422938585281,-0.54048597812653,2.60964250564575
42,2395706697,-0.33785164356232,-0.53885954618454,56.89458084106445,0.05511461198330,-0.04983517900109,10.15715789794922,0.11358631402254,-0.44602069258690,2.52619123458862
43,2395715030,-0.33776047825813,-0.54335463047028,56.91591262817383,0.05557581037283,-0.06073600426316,10.14618396759033,0.03561659157276,-0.55511164665222,2.55918216705322
44,2395723363,-0.33695280551910,-0.54459708929062,56.91389083862305,0.06905715912580,-0.06640420109034,10.15163421630859,0.08218327909708,-0.48997473716736,2.59186625480652
45,2395731696,-0.33612281084061,-0.54810541868210,56.93590927124023,0.07893123477697,-0.06644633412361,10.16624069213867,0.12543290853500,-0.43626162409782,2.64262056350708
46,2395740029,-0.33579510450363,-0.55032372474670,56.94726181030273,0.07203508913517,-0.07718681544065,10.14429569244385,0.04173839464784,-0.60267740488052,2.59199428558350
47,2395748362,-0.33560591936111,-0.55510461330414,56.96900558471680,0.07123834639788,-0.06977979838848,10.15528297424316,0.04844932630658,-0.58963966369629,2.61002659797668
48,2395756695,-0.33444690704346,-0.55685025453568,56.97219467163086,0.07421094179153,-0.04959028214216,10.13875961303711,0.17196115851402,-0.54494279623032,2.65075325965881
49,2395765028,-0.33354353904724,-0.56086999177933,56.99343872070312,0.06956650316715,-0.04378328099847,10.12596321105957,0.13287381827831,-0.49868348240852,2.55244565010071
50,2395773361,-0.33206361532211,-0.56244432926178,56.99086761474609,0.05707821995020,-0.06709625571966,10.14984035491943,0.18837986886501,-0.52547603845596,2.56873607635498
51,2395781694,-0.33135125041008,-0.56511527299881,57.01189422607422,0.07408484071493,-0.06544053554535,10.11131477355957,0.10992349684238,-0.33613562583923,2.52949547767639
52,2395790027,-0.33045610785484,-0.56661349534988,57.02064132690430,0.08595086634159,-0.05635730549693,10.13872337341309,0.13100402057171,-0.52650064229965,2.59514474868774
53,2395798360,-0.32871085405350,-0.57060533761978,57.04314804077148,0.08098006993532,-0.06516698747873,10.14059162139893,0.23650903999805,-0.49479022622108,2.70636177062988
54,2395806693,-0.32828190922737,-0.57246464490891,57.05244827270508,0.07615825533867,-0.06664406508207,10.12961101531982,0.07992922514677,-0.55214047431946,2.61983680725098
55,2395815026,-0.32699525356293,-0.57640224695206,57.07365036010742,0.06258445978165,-0.05517004430294,10.14431095123291,0.17888982594013,-0.48769497871399,2.55238175392151
56,2395823359,-0.32650271058083,-0.57765990495682,57.07922744750977,0.07575355470181,-0.06810279935598,10.13694286346436,0.09050790220499,-0.48339185118675,2.59847474098206
57,2395831692,-0.32644549012184,-0.58189833164215,57.10103225708008,0.08940478414297,-0.06466331332922,10.14419460296631,0.03272218629718,-0.52532237768173,2.62652206420898
58,2395840025,-0.32641494274139,-0.58416396379471,57.09567642211914,0.08472765982151,-0.06632840633392,10.15702724456787,0.04491456225514,-0.58948606252670,2.55928468704224
59,2395848358,-0.32530948519707,-0.58845394849777,57.11790466308594,0.07245651632547,-0.07507633417845,10.15343761444092,0.16063968837261,-0.53180277347565,2.68033766746521
60,2395856691,-0.32493919134140,-0.58985078334808,57.12671661376953,0.08617423474789,-0.07154385000467,10.17167663574219,0.09903744608164,-0.48180374503136,2.70997309684753
61,2395865024,-0.32396930456161,-0.59295868873596,57.14751434326172,0.06852608919144,-0.06365873664618,10.13146495819092,0.14235112071037,-0.38738968968391,2.51307678222656
62,2395873357,-0.32279604673386,-0.59360289573669,57.15842056274414,0.08759515732527,-0.06021327897906,10.15701484680176,0.19972699880600,-0.38644191622734,2.51458764076233
63,2395881690,-0.32201296091080,-0.59787869453430,57.17979812622070,0.07030738890171,-0.04487980529666,10.16257858276367,0.12101445347071,-0.52967679500580,2.58374619483948
64,2395890023,-0.32198098301888,-0.59965437650681,57.18513870239258,0.08217465132475,-0.04503412544727,10.18265533447266,0.05551885813475,-0.51735639572144,2.55603194236755
65,2395898356,-0.32140919566154,-0.60451656579971,57.20671844482422,0.06551948189735,-0.07566638290882,10.15713500976562,0.09721882641315,-0.59988534450531,2.61333084106445
66,2395906689,-0.32151386141777,-0.60622054338455,57.21511459350586,0.05729539692402,-0.07167034596205,10.16267108917236,0.04104681313038,-0.51059418916702,2.62165546417236
67,2395915022,-0.32061836123466,-0.61054521799088,57.23696517944336,0.07055588066578,-0.08108925819397,10.15528297424316,0.13584509491920,-0.53646457195282,2.64601492881775
68,2395923355,-0.32042375206947,-0.61185580492020,57.24834823608398,0.09430901706219,-0.04309966415167,10.15328025817871,0.09078965336084,-0.47191670536995,2.61822295188904
69,2395931688,-0.31894698739052,-0.61515027284622,57.26990890502930,0.07050310820341,-0.06061070412397,10.12779521942139,0.20472174882889,-0.41285023093224,2.61625051498413
70,2395940021,-0.31899815797806,-0.61772018671036,57.27084350585938,0.07123292237520,-0.06769350916147,10.16626167297363,0.05405883863568,-0.61568939685822,2.52332258224487
71,2395948354,-0.31839203834534,-0.62100565433502,57.29297637939453,0.06604511290789,-0.08211064338684,10.16446781158447,0.10172693431377,-0.41133898496628,2.69849824905396
72,2395956687,-0.31804439425468,-0.62271088361740,57.29623031616211,0.08931789547205,-0.05519079044461,10.14232921600342,0.11489265412092,-0.51812475919724,2.68543481826782
73,2395965020,-0.31774339079857,-0.62619274854660,57.31742477416992,0.09201917052269,-0.05510265752673,10.16978168487549,0.06335681676865,-0.43544203042984,2.58553934097290
74,2395973353,-0.31763544678688,-0.62857794761658,57.32245254516602,0.08291311562061,-0.07127105444670,10.13689136505127,0.07901991903782,-0.58654040098190,2.53803777694702
75,2395981686,-0.31759497523308,-0.63365793228149,57.34375381469727,0.08902043104172,-0.07870330661535,10.13503932952881,0.03428465500474,-0.62683159112930,2.59396648406982
76,2395990019,-0.31779700517654,-0.63494962453842,57.34661865234375,0.06875877827406,-0.05053570121527,10.14610576629639,0.05175356194377,-0.45004212856293,2.58886933326721
77,2395998352,-0.31760662794113,-0.63857680559158,57.36701965332031,0.06553790718317,-0.05404561385512,10.12964725494385,0.05142057687044,-0.45173266530037,2.49706792831421
78,2396006685,-0.31728386878967,-0.63990354537964,57.37001800537109,0.08962813764811,-0.06568568199873,10.13318061828613,0.10915505886078,-0.46072322130203,2.65433907508850
79,2396015018,-0.31677338480949,-0.64379018545151,57.39142990112305,0.06841064244509,-0.06849588453770,10.16261386871338,0.09068720042706,-0.48341742157936,2.62160396575928
80,2396023351,-0.31619483232498,-0.64564025402069,57.39806747436523,0.05973695591092,-0.07174766063690,10.14619255065918,0.14416973292828,-0.52199244499207,2.63295102119446
81,2396031684,-0.31506198644638,-0.65004396438599,57.41886138916016,0.06986762583256,-0.06088882312179,10.12047004699707,0.16486603021622,-0.54532712697983,2.55585265159607
82,2396040017,-0.31484234333038,-0.65216135978699,57.43610763549805,0.07471501827240,-0.06257932633162,10.19369316101074,0.10404503345490,-0.56068283319473,2.58229923248291
83,2396048350,-0.31412923336029,-0.65618222951889,57.45758819580078,0.05492065101862,-0.06731436401606,10.15538406372070,0.11499510705471,-0.50183409452438,2.63302803039551
84,2396056683,-0.31429934501648,-0.65907359123230,57.46959304809570,0.06821498274803,-0.07860615104437,10.15896511077881,0.05790096893907,-0.65997636318207,2.52350163459778
85,2396065016,-0.31248050928116,-0.66288173198700,57.49006652832031,0.08097396790981,-0.05497650429606,10.17899417877197,0.24795860052109,-0.47465738654137,2.51947999000549
86,2396073349,-0.31235152482986,-0.66330784559250,57.50356292724609,0.06048208102584,-0.07968493551016,10.16634941101074,0.09598933905363,-0.36541265249252,2.61993885040283
87,2396081682,-0.31164225935936,-0.66658389568329,57.52469253540039,0.07049003243446,-0.06707908213139,10.14795875549316,0.11486703157425,-0.41167202591896,2.60841321945190
88,2396090015,-0.31062084436417,-0.66786009073257,57.52959823608398,0.07323605567217,-0.06324875354767,10.16991138458252,0.20867916941643,-0.47237774729729,2.53603959083557
89,2396098348,-0.30985000729561,-0.67234736680984,57.55047225952148,0.07950584590435,-0.05957862734795,10.16253566741943,0.12367834895849,-0.55772435665131,2.57900762557983
90,2396106681,-0.30886948108673,-0.67323940992355,57.54440689086914,0.09675319492817,-0.05632258951664,10.14776515960693,0.20287755131721,-0.42640021443367,2.51796936988831
91,2396115014,-0.30797478556633,-0.67730534076691,57.56516265869141,0.06618732213974,-0.06225622817874,10.17179107666016,0.13932862877846,-0.50718748569489,2.58057022094727
92,2396123347,-0.30754885077477,-0.67827296257019,57.56522369384766,0.08168939501047,-0.05349848791957,10.14969635009766,0.13410332798958,-0.43167674541473,2.57562661170959
93,2396131680,-0.30689427256584,-0.68273866176605,57.58615875244141,0.07131016254425,-0.06021556630731,10.17541790008545,0.11064068228006,-0.55582892894745,2.60039567947388
94,2396140013,-0.30728340148926,-0.68475997447968,57.59605026245117,0.07754216343164,-0.06216375902295,10.17720603942871,0.03524518758059,-0.55931246280670,2.63188838958740
95,2396148346,-0.30661162734032,-0.68865281343460,57.61682510375977,0.07028543949127,-0.07830295711756,10.16446685791016,0.11184455454350,-0.48700344562531,2.58561587333679
96,2396156679,-0.30588233470917,-0.69043564796448,57.61616897583008,0.07537589967251,-0.05451266467571,10.14059066772461,0.17498365044594,-0.53249430656433,2.59035468101501
97,2396165012,-0.30599707365036,-0.69379824399948,57.63690567016602,0.06728471070528,-0.05031974613667,10.16811466217041,0.01800680533051,-0.42451751232147,2.59413266181946
98,2396173345,-0.30588197708130,-0.69400918483734,57.63515853881836,0.06526909023523,-0.06306933611631,10.13519859313965,0.09497758001089,-0.34570252895355,2.59377431869507
99,2396181678,-0.30508080124855,-0.69766002893448,57.65678405761719,0.06042034178972,-0.06269692629576,10.14987564086914,0.12926222383976,-0.45941689610481,2.70853877067566
100,2396190011,-0.30370745062828,-0.69914263486862,57.65336227416992,0.06669577211142,-0.06265562027693,10.16081237792969,0.24744631350040,-0.50611162185669,2.56550908088684
101,2396198344,-0.30303430557251,-0.70264881849289,57.67404174804688,0.07660264521837,-0.06455496698618,10.17905139923096,0.11445721983910,-0.44112837314606,2.60528826713562
102,2396206677,-0.30253875255585,-0.70427066087723,57.67572402954102,0.07547560334206,-0.06432624906301,10.18455886840820,0.14242796599865,-0.52363181114197,2.63643503189087
103,2396215010,-0.30200111865997,-0.70915436744690,57.69612503051758,0.07805399596691,-0.06425038725138,10.17537403106689,0.09780795127153,-0.60808193683624,2.57273197174072
104,2396223343,-0.30199211835861,-0.71000671386719,57.69010925292969,0.07875028252602,-0.06052675470710,10.14425277709961,0.08462943136692,-0.43081867694855,2.46280860900879
105,2396231676,-0.30107966065407,-0.71315407752991,57.71065139770508,0.07024243474007,-0.05820008739829,10.14431095123291,0.14159549772739,-0.39910823106766,2.59866666793823
106,2396240009,-0.30102747678757,-0.71518349647522,57.71281051635742,0.07723436504602,-0.03815445303917,10.14422416687012,0.09030298888683,-0.57511645555496,2.58753728866577
107,2396248342,-0.30049753189087,-0.71920830011368,57.73280334472656,0.07128074765205,-0.06891165673733,10.14798641204834,0.09647601097822,-0.50477975606918,2.53500223159790
108,2396256675,-0.29922577738762,-0.71980041265488,57.73987960815430,0.06787707656622,-0.04460761696100,10.19924449920654,0.23493374884129,-0.40274542570114,2.57038855552673
109,2396265008,-0.29862985014915,-0.72348958253860,57.75992584228516,0.09232378005981,-0.03630839288235,10.15691375732422,0.10399380326271,-0.46555155515671,2.55627512931824
110,2396273341,-0.29809835553169,-0.72488117218018,57.77500152587891,0.08828312903643,-0.05980034172535,10.14966011047363,0.13730512559414,-0.49917024374008,2.46599769592285
111,2396281674,-0.29732570052147,-0.72946476936340,57.79555130004883,0.07076335698366,-0.05883392691612,10.15531158447266,0.12652151286602,-0.57255500555038,2.61858177185059
112,2396290007,-0.29626724123955,-0.73093593120575,57.79919433593750,0.07645875960588,-0.07168161869049,10.15528392791748,0.20177616178989,-0.50862187147141,2.63789486885071
113,2396298340,-0.29537495970726,-0.73516994714737,57.82033920288086,0.06230352818966,-0.07447763532400,10.14443302154541,0.14250478148460,-0.53185397386551,2.69557785987854
114,2396306673,-0.29576736688614,-0.73715591430664,57.81555938720703,0.08568861335516,-0.06069968268275,10.14419460296631,0.03495062142611,-0.57534694671631,2.69939470291138
115,2396315006,-0.29600235819817,-0.74175590276718,57.83596801757812,0.06072979420424,-0.06501737236977,10.15175628662109,0.00671093026176,-0.57477062940598,2.61426591873169
116,2396323339,-0.29633432626724,-0.74410337209702,57.84546661376953,0.08824386447668,-0.08271920681000,10.14970970153809,0.04191769659519,-0.61981320381165,2.65188026428223
117,2396331672,-0.29611310362816,-0.74822443723679,57.86610031127930,0.09414189308882,-0.04813865572214,10.12762165069580,0.06220417469740,-0.52025073766708,2.64678311347961
118,2396340005,-0.29613128304482,-0.75003099441528,57.86656570434570,0.07336444407701,-0.04515583813190,10.16259956359863,0.07928886264563,-0.55185872316360,2.59427356719971
119,2396348338,-0.29516172409058,-0.75301283597946,57.88626480102539,0.05268060043454,-0.07151981443167,10.16284370422363,0.15189240872860,-0.38145998120308,2.53967690467834
120,2396356671,-0.29522725939751,-0.75427842140198,57.89089584350586,0.08660704642534,-0.06739762425423,10.17900180816650,0.07392268627882,-0.49274101853371,2.55163908004761
121,2396365004,-0.29485031962395,-0.75844854116440,57.91058731079102,0.08860087394714,-0.07476916909218,10.15518856048584,0.07960904389620,-0.52571940422058,2.54016375541687
122,2396373337,-0.29467940330505,-0.75941717624664,57.91611862182617,0.07165458798409,-0.05735528469086,10.14066982269287,0.10606854408979,-0.45579251646996,2.56787824630737
123,2396381670,-0.29404124617577,-0.76266336441040,57.93497848510742,0.07245040684938,-0.05718186870217,10.15531826019287,0.10973137617111,-0.41505303978920,2.44482755661011
124,2396390003,-0.29391112923622,-0.76280522346497,57.94033050537109,0.06586878001690,-0.05666528642178,10.17735767364502,0.10039498656988,-0.36049470305443,2.62191128730774
125,2396398336,-0.29322326183319,-0.76668536663055,57.96035766601562,0.06713207066059,-0.04010158032179,10.16267108917236,0.11996428668499,-0.49217757582664,2.58753728866577
126,2396406669,-0.29320204257965,-0.76793479919434,57.96072006225586,0.07834571599960,-0.04966029152274,10.16074752807617,0.08380977809429,-0.49785110354424,2.60578751564026
127,2396415002,-0.29229861497879,-0.77141964435577,57.98058319091797,0.07568466663361,-0.07510085403919,10.13518428802490,0.14404165744781,-0.44527783989906,2.57757329940796
128,2396423335,-0.29190549254417,-0.77268600463867,57.98711776733398,0.08064690977335,-0.06591462343931,10.15526866912842,0.13147787749767,-0.50228238105774,2.64659094810486
129,2396431668,-0.29118174314499,-0.77648967504501,58.00706863403320,0.08357676118612,-0.06215402856469,10.17537498474121,0.12340938299894,-0.48412182927132,2.58432245254517
130,2396440001,-0.29129290580750,-0.77722454071045,58.00778579711914,0.08974353969097,-0.05506829544902,10.13684272766113,0.06837719678879,-0.43854129314423,2.49107408523560
131,2396448334,-0.29034820199013,-0.78086185455322,58.02744293212891,0.08932623267174,-0.07145767658949,10.11674308776855,0.15002258121967,-0.46516737341881,2.55794000625610
132,2396456667,-0.29054239392281,-0.78223079442978,58.02984619140625,0.07965514808893,-0.07063098996878,10.17910194396973,0.06208891421556,-0.51370632648468,2.59943509101868
133,2396465000,-0.29019802808762,-0.78628426790237,58.05018997192383,0.07914076745510,-0.05405546724796,10.15343761444092,0.08023659139872,-0.51574259996414,2.64199304580688
134,2396473333,-0.28949069976807,-0.78668338060379,58.06003189086914,0.07984510809183,-0.05028989911079,10.13695812225342,0.17011693120003,-0.40001749992371,2.62667584419250
135,2396481666,-0.28906479477882,-0.79127877950668,58.07999420166016,0.07062914222479,-0.06425493955612,10.13890266418457,0.08976509422064,-0.58162248134613,2.59775757789612
136,2396489999,-0.28935733437538,-0.79217112064362,58.08333587646484,0.07842434942722,-0.07185308635235,10.14798641204834,0.05013986676931,-0.46090257167816,2.55846500396729
137,2396498332,-0.28908243775368,-0.79660660028458,58.10241317749023,0.08783657103777,-0.04659150913358,10.14785003662109,0.07001651823521,-0.56318014860153,2.49619674682617
138,2396506665,-0.28867712616920,-0.79753816127777,58.10429000854492,0.08334477990866,-0.04433939233422,10.16071891784668,0.13334771990776,-0.46651211380959,2.49743938446045
139,2396514998,-0.28827914595604,-0.80263870954514,58.12382507324219,0.06382708996534,-0.08159414678812,10.17016029357910,0.08451417833567,-0.64386504888535,2.55364966392517
140,2396523331,-0.28815409541130,-0.80316901206970,58.12500762939453,0.06958441436291,-0.05429252609611,10.14989662170410,0.10167571157217,-0.42301908135414,2.49261093139648
141,2396531664,-0.28805193305016,-0.80686980485916,58.14478683471680,0.06287899613380,-0.05922657251358,10.17744922637939,0.04990933835506,-0.47560513019562,2.58807539939880
142,2396539997,-0.28880557417870,-0.80752706527710,58.15369415283203,0.08727317303419,-0.05147975683212,10.12772941589355,-0.00312493671663,-0.44458624720573,2.62936520576477
143,2396548330,-0.28788223862648,-0.81174379587173,58.17272186279297,0.06914200633764,-0.06135993823409,10.13161373138428,0.14774291217327,-0.53748917579651,2.49585127830505
144,2396556663,-0.28765204548836,-0.81264692544937,58.18195724487305,0.07369329035282,-0.06498011946678,10.17003154754639,0.11609651893377,-0.47732126712799,2.69767808914185
145,2396564996,-0.28659713268280,-0.81569308042526,58.20098495483398,0.09338067471981,-0.04942714422941,10.15147018432617,0.16477638483047,-0.39859592914581,2.49562072753906
146,2396573329,-0.28598365187645,-0.81691622734070,58.20940017700195,0.08104357123375,-0.05213775858283,10.15528297424316,0.15842403471470,-0.51640862226486,2.54500460624695
147,2396581662,-0.28551942110062,-0.82034075260162,58.22920227050781,0.06800217181444,-0.06769782304764,10.15546989440918,0.09510564804077,-0.44570052623749,2.59121274948120
148,2396589995,-0.28549656271935,-0.82141453027725,58.23637390136719,0.08219134807587,-0.08310491591692,10.13336658477783,0.09044386446476,-0.50290989875793,2.63721585273743
149,2396598328,-0.28502723574638,-0.82609653472900,58.25611114501953,0.07694213092327,-0.06786414980888,10.17186260223389,0.09563075006008,-0.59660679101944,2.58648729324341
150,2396606661,-0.28497153520584,-0.82728695869446,58.26742172241211,0.08876501023769,-0.03177194297314,10.14967346191406,0.09805129468441,-0.51957195997238,2.61590504646301
151,2396614994,-0.28464353084564,-0.83140105009079,58.28751754760742,0.08375579863787,-0.07524280250072,10.19011020660400,0.07973712682724,-0.53049641847610,2.62917327880859
152,2396623327,-0.28422570228577,-0.83187633752823,58.29346466064453,0.04912967979908,-0.07498399168253,10.14656448364258,0.13961039483547,-0.43393078446388,2.56474065780640
153,2396631660,-0.28324070572853,-0.83491992950439,58.31234359741211,0.06374862790108,-0.05904769152403,10.16651344299316,0.15655420720577,-0.40174648165703,2.48919129371643
154,2396639993,-0.28362894058228,-0.83672553300858,58.31621170043945,0.08280040323734,-0.05456883460283,10.14613342285156,0.04412051290274,-0.60334324836731,2.52455163002014
155,2396648326,-0.28370743989944,-0.84110420942307,58.33584594726562,0.08157150447369,-0.08745165914297,10.13890171051025,0.03089076839387,-0.56350040435791,2.58035254478455
156,2396656659,-0.28359839320183,-0.84137886762619,58.34323883056641,0.07310262322426,-0.06472260504961,10.17741489410400,0.10745170712471,-0.42149502038956,2.59615635871887
157,2396664992,-0.28311026096344,-0.84468394517899,58.36269760131836,0.08266521245241,-0.05794680491090,10.12418174743652,0.10029254108667,-0.43444308638573,2.56340861320496
158,2396673325,-0.28252282738686,-0.84441375732422,58.36014175415039,0.08561380952597,-0.05419677123427,10.15160655975342,0.16507095098495,-0.36090457439423,2.59903812408447
159,2396681658,-0.28235122561455,-0.84839200973511,58.38003921508789,0.08751077950001,-0.03393047675490,10.15704154968262,0.06367699056864,-0.51688247919083,2.62118148803711
160,2396689991,-0.28241807222366,-0.84863162040710,58.38761901855469,0.07472493499517,-0.06796529889107,10.12798118591309,0.08496242016554,-0.42234036326408,2.67835283279419
161,2396698324,-0.28192660212517,-0.85232186317444,58.40696334838867,0.09095076471567,-0.05593772605062,10.14056968688965,0.10035657137632,-0.48368635773659,2.55368781089783
162,2396706657,-0.28256067633629,-0.85252481698990,58.40781021118164,0.09804571419954,-0.04160552844405,10.14412403106689,0.01734083890915,-0.42193052172661,2.60827207565308
163,2396714990,-0.28242439031601,-0.85636246204376,58.42712402343750,0.09540620446205,-0.03948378562927,10.16245555877686,0.05881028994918,-0.50205183029175,2.55566072463989
164,2396723323,-0.28200718760490,-0.85737752914429,58.42580032348633,0.08340433239937,-0.06610565632582,10.16084003448486,0.13848336040974,-0.51935422420502,2.54371142387390
165,2396731656,-0.28099426627159,-0.86063611507416,58.44522476196289,0.06855206936598,-0.05385677143931,10.17747879028320,0.16437935829163,-0.43323913216591,2.56968402862549
166,2396739989,-0.28111490607262,-0.86106199026108,58.45106506347656,0.07572764903307,-0.02857721783221,10.12973308563232,0.07513935863972,-0.45332074165344,2.56699466705322
167,2396748322,-0.28069549798965,-0.86423218250275,58.47060775756836,0.06985729187727,-0.07571752369404,10.14823055267334,0.09256985783577,-0.42436388134956,2.58168482780457
168,2396756655,-0.28117227554321,-0.86474984884262,58.47482681274414,0.07328387349844,-0.06474547833204,10.16831493377686,0.03370833396912,-0.46836912631989,2.57553696632385
169,2396764988,-0.28163021802902,-0.86907017230988,58.49395370483398,0.06900236010551,-0.08101087063551,10.14642620086670,-0.01394695229828,-0.56365400552750,2.53496408462524
170,2396773321,-0.28115260601044,-0.87101489305496,58.50230026245117,0.07510536909103,-0.06646361202002,10.19942951202393,0.15161064267159,-0.64600384235382,2.68334746360779
171,2396781654,-0.28108212351799,-0.87486672401428,58.52215957641602,0.09836059063673,-0.04964651167393,10.14048957824707,0.05243233963847,-0.50830173492432,2.62474203109741
172,2396789987,-0.28108966350555,-0.87639600038528,58.53191375732422,0.06156513839960,-0.06177204102278,10.13733577728271,0.09397862106562,-0.59984695911407,2.67381882667542
173,2396798320,-0.28046742081642,-0.88034242391586,58.55231475830078,0.07507586479187,-0.06431975215673,10.13900279998779,0.12134744971991,-0.52199250459671,2.69158220291138
174,2396806653,-0.27986332774162,-0.88175392150879,58.55498886108398,0.07760711014271,-0.04577236622572,10.17739200592041,0.16604429483414,-0.59084361791611,2.61430430412292
175,2396814986,-0.27962604165077,-0.88541382551193,58.57417297363281,0.08409019559622,-0.03692698478699,10.14433193206787,0.07234740257263,-0.48766937851906,2.55080628395081
176,2396823319,-0.28003481030464,-0.88651371002197,58.58127593994141,0.08784592151642,-0.08461312949657,10.20299148559570,0.04225068539381,-0.55718648433685,2.57083702087402
177,2396831652,-0.27959179878235,-0.89038008451462,58.60118103027344,0.06309364736080,-0.07376204431057,10.16118431091309,0.09997235983610,-0.51316845417023,2.63765144348145
178,2396839985,-0.27977070212364,-0.89175999164581,58.60424041748047,0.07630824297667,-0.05068863183260,10.14814281463623,0.07379460334778,-0.59600490331650,2.58219647407532
179,2396848318,-0.27918234467506,-0.89529758691788,58.62376022338867,0.06773705780506,-0.07750676572323,10.13734436035156,0.11577635258436,-0.47605341672897,2.59651494026184
180,2396856651,-0.27915152907372,-0.89612042903900,58.62765502929688,0.06156146153808,-0.07497507333755,10.15940284729004,0.10223922133446,-0.53462028503418,2.59834647178650
181,2396864984,-0.27828082442284,-0.89915853738785,58.64695739746094,0.08138673007488,-0.06332460045815,10.15544700622559,0.14885713160038,-0.41656434535980,2.57165646553040
182,2396873317,-0.27762851119041,-0.89996027946472,58.65387344360352,0.08546584844589,-0.06522488594055,10.14807224273682,0.17719927430153,-0.53898751735687,2.55033254623413
183,2396881650,-0.27661839127541,-0.90415239334106,58.67289733886719,0.07370179891586,-0.03834111243486,10.16649150848389,0.16672305762768,-0.55502206087112,2.53895974159241
184,2396889983,-0.27625331282616,-0.90548110008240,58.67859268188477,0.07001870125532,-0.07635667175055,10.16847229003906,0.14159548282623,-0.60671156644821,2.49165034294128
185,2396898316,-0.27551239728928,-0.90855830907822,58.69831848144531,0.07756280899048,-0.06191917881370,10.18848037719727,0.13426980376244,-0.42415890097618,2.62430644035339
186,2396906649,-0.27562364935875,-0.90986126661301,58.70460891723633,0.10228750109673,-0.05262339115143,10.15149021148682,0.08816419541836,-0.60954195261002,2.60850262641907
187,2396914982,-0.27562782168388,-0.91385316848755,58.72439575195312,0.07814127206802,-0.06727780401707,10.14821529388428,0.04839809611440,-0.53423607349396,2.63658833503723
188,2396923315,-0.27564704418182,-0.91391164064407,58.73117065429688,0.06974729150534,-0.06653276830912,10.15016174316406,0.10047183185816,-0.46389940381050,2.68207907676697
189,2396931648,-0.27536496520042,-0.91811758279800,58.75123977661133,0.07591620087624,-0.06863965094090,10.15741443634033,0.08205518871546,-0.56164324283600,2.67088580131531
190,2396939981,-0.27496635913849,-0.91863727569580,58.75764465332031,0.07221911847591,-0.05530336499214,10.16110515594482,0.15241751074791,-0.52483564615250,2.68510198593140
191,2396948314,-0.27453789114952,-0.92180478572845,58.77696990966797,0.08109999448061,-0.04651017859578,10.17377281188965,0.09911426901817,-0.43772163987160,2.58200454711914
192,2396956647,-0.27469962835312,-0.92228806018829,58.78409194946289,0.08093237876892,-0.05375947058201,10.15365886688232,0.08465504646301,-0.52577060461044,2.61838960647583
193,2396964980,-0.27419117093086,-0.92614752054214,58.80363464355469,0.05997776612639,-0.07225313037634,10.14486217498779,0.10935997217894,-0.52176201343536,2.61164021492004
194,2396973313,-0.27412933111191,-0.92675197124481,58.81085205078125,0.07222668826580,-0.03996213525534,10.13545513153076,0.10921909660101,-0.54654371738434,2.49687552452087
195,2396981646,-0.27421957254410,-0.93006473779678,58.82998275756836,0.07579951733351,-0.05109580606222,10.13725757598877,0.03757608309388,-0.45843076705933,2.56457400321960
196,2396989979,-0.27461740374565,-0.93018418550491,58.82667160034180,0.08348861336708,-0.05888386815786,10.15548992156982,0.05445586889982,-0.49513599276543,2.59239125251770
197,2396998312,-0.27435728907585,-0.93327063322067,58.84599304199219,0.08319667726755,-0.04590756073594,10.14813709259033,0.07983957976103,-0.43212500214577,2.59541392326355
198,2397006645,-0.27453878521919,-0.93348717689514,58.85156250000000,0.07707357406616,-0.06544010341167,10.16293621063232,0.08168378472328,-0.51091426610947,2.59059786796570
199,2397014978,-0.27419197559357,-0.93732780218124,58.87142181396484,0.08553591370583,-0.06043807789683,10.16463851928711,0.09151966124773,-0.52433615922928,2.65783548355103
200,2397023311,-0.27465644478798,-0.93753224611282,58.87637329101562,0.08605821430683,-0.06399606168270,10.16830825805664,0.04958915710449,-0.51447474956512,2.70081615447998
201,2397031644,-0.27390086650848,-0.94162535667419,58.89591598510742,0.07043165713549,-0.05721722915769,10.14289379119873,0.13926459848881,-0.55581611394882,2.62148904800415
202,2397039977,-0.27356010675430,-0.94134277105331,58.90371704101562,0.09812799096107,-0.06644493341446,10.15166282653809,0.14634694159031,-0.46249067783356,2.64752578735352
203,2397048310,-0.27332162857056,-0.94482308626175,58.92393493652344,0.10824070870876,-0.03950538858771,10.15143299102783,0.08026220649481,-0.48444205522537,2.70223808288574
204,2397056643,-0.27389830350876,-0.94384944438934,58.93058013916016,0.07741874456406,-0.06095411628485,10.12449645996094,0.03355464711785,-0.37966701388359,2.48424792289734
205,2397064976,-0.27352565526962,-0.94738590717316,58.95016098022461,0.08059987425804,-0.07937441766262,10.15013980865479,0.09583566337824,-0.49176770448685,2.63000583648682
206,2397073309,-0.27295297384262,-0.94714754819870,58.95151901245117,0.09607849270105,-0.05287507176399,10.13885211944580,0.17482997477055,-0.47365847229958,2.56210231781006
207,2397081642,-0.27251997590065,-0.95011872053146,58.97088241577148,0.07597463577986,-0.04354047030210,10.17577552795410,0.10161166638136,-0.42638733983040,2.60857915878296
208,2397089975,-0.27178269624710,-0.94932246208191,58.97786331176758,0.06618414819241,-0.07751616090536,10.15588474273682,0.19397659599781,-0.41048091650009,2.59141778945923
209,2397098308,-0.27064856886864,-0.95320606231689,58.99667358398438,0.07437054812908,-0.07420789450407,10.15208530426025,0.18684305250645,-0.53659266233444,2.54409575462341
210,2397106641,-0.27076092362404,-0.95255005359650,59.00090789794922,0.07659800350666,-0.05575541406870,10.15568351745605,0.09669373929501,-0.43590307235718,2.65791249275208
211,2397114974,-0.27051317691803,-0.95579385757446,59.02022552490234,0.09940394759178,-0.05558789148927,10.16264915466309,0.08045431226492,-0.46165820956230,2.60722184181213
212,2397123307,-0.27046152949333,-0.95444309711456,59.02540206909180,0.06238305196166,-0.06349414587021,10.14860248565674,0.11432915180922,-0.35634523630142,2.61007785797119
213,2397131640,-0.27001133561134,-0.95766967535019,59.04497909545898,0.08785226941109,-0.05429859459400,10.16649818420410,0.10701627284288,-0.46101775765419,2.64151930809021
214,2397139973,-0.26945233345032,-0.95671409368515,59.05105590820312,0.09078811854124,-0.06726749241352,10.14818000793457,0.17609786987305,-0.40976372361183,2.60811853408813
215,2397148306,-0.26870045065880,-0.95992964506149,59.07022857666016,0.07646741718054,-0.04564757272601,10.13737201690674,0.14269691705704,-0.46091529726982,2.59369754791260
216,2397156639,-0.26904469728470,-0.95934087038040,59.07409667968750,0.07804512232542,-0.05840323492885,10.14654159545898,0.06733981519938,-0.45942968130112,2.59922981262207
217,2397164972,-0.26851296424866,-0.96344792842865,59.09334945678711,0.07936353981495,-0.09691471606493,10.15761470794678,0.11694179475307,-0.56978863477707,2.60889935493469
218,2397173305,-0.26761192083359,-0.96370065212250,59.09926605224609,0.09478479623795,-0.05383867025375,10.15542507171631,0.22035926580429,-0.56595927476883,2.59169960021973
219,2397181638,-0.26769441366196,-0.96685022115707,59.11864089965820,0.07668930292130,-0.04275307059288,10.18317127227783,0.04318559914827,-0.45502412319183,2.62412714958191
220,2397189971,-0.26862189173698,-0.96667754650116,59.12254714965820,0.10370162874460,-0.07267892360687,10.15168380737305,0.00345792155713,-0.52049410343170,2.72138452529907
221,2397198304,-0.26795938611031,-0.97045451402664,59.14195251464844,0.06723846495152,-0.07684791088104,10.14496803283691,0.13343735039234,-0.53272485733032,2.63172197341919
222,2397206637,-0.26855143904686,-0.97082006931305,59.14794158935547,0.07184216380119,-0.05496939271688,10.15217113494873,0.04410771280527,-0.58963972330093,2.63590979576111
223,2397214970,-0.26807415485382,-0.97405916452408,59.16733551025391,0.06693615764380,-0.06344801187515,10.18524646759033,0.11156281083822,-0.46948331594467,2.63021039962769
224,2397223303,-0.26958158612251,-0.97411936521530,59.17160797119141,0.08596067130566,-0.03396300598979,10.13723468780518,-0.06499613076448,-0.56040108203888,2.58757567405701
225,2397231636,-0.26921769976616,-0.97808951139450,59.19154739379883,0.07411582022905,-0.05489799007773,10.15032577514648,0.09838428348303,-0.56070840358734,2.69945883750916
226,2397239969,-0.26866182684898,-0.97645646333694,59.19770812988281,0.05903510376811,-0.06443513184786,10.13595676422119,0.18188668787479,-0.36265915632248,2.62953186035156
227,2397248302,-0.26854506134987,-0.97929888963699,59.21742630004883,0.07965143769979,-0.04757465422153,10.15021800994873,0.06961948424578,-0.42492732405663,2.67653369903564
228,2397256635,-0.26871833205223,-0.97793751955032,59.21982955932617,0.07499130815268,-0.08384188264608,10.13575649261475,0.09415792673826,-0.40324491262436,2.55486631393433
229,2397264968,-0.26757475733757,-0.98187941312790,59.23924255371094,0.08267563581467,-0.08976490795612,10.15030384063721,0.19144080579281,-0.55835187435150,2.64295339584351
230,2397273301,-0.26769214868546,-0.98030441999435,59.24444580078125,0.07048715651035,-0.04618860036135,10.13757991790771,0.10489029437304,-0.38240772485733,2.54659295082092
231,2397281634,-0.26817649602890,-0.98395180702209,59.26292419433594,0.08786290884018,-0.04573055356741,10.14644050598145,-0.00499477609992,-0.52521991729736,2.53301763534546
232,2397289967,-0.26745766401291,-0.98333144187927,59.26658248901367,0.05843325331807,-0.05577513948083,10.15615653991699,0.20446565747261,-0.50342220067978,2.53943395614624
233,2397298300,-0.26701954007149,-0.98649328947067,59.28539276123047,0.06559011340141,-0.04690309986472,10.16516113281250,0.10783593356609,-0.46947056055069,2.57630562782288
234,2397306633,-0.26742494106293,-0.98515897989273,59.29074096679688,0.08624859899282,-0.05220947787166,10.18130493164062,0.06923527270555,-0.42497855424881,2.62417840957642
235,2397314966,-0.26730400323868,-0.98852157592773,59.30904769897461,0.08225376904011,-0.05914516746998,10.16125488281250,0.06840281933546,-0.49571231007576,2.51930093765259
236,2397323299,-0.26642215251923,-0.99129086732864,59.32789230346680,0.07407093048096,-0.04916181787848,10.13024139404297,0.15942300856113,-0.41770413517952,2.57420516014099
237,2397331632,-0.35266560316086,-0.40016067028046,56.89085388183594,0.06178009510040,-0.07528298348188,10.15984630584717,0.06728859990835,-0.50853216648102,2.64738488197327
238,2397339965,-0.35277852416039,-0.39917424321175,56.89185714721680,0.06243855133653,-0.05316214263439,10.14880275726318,0.09041824936867,-0.37360924482346,2.52225923538208
239,2397348298,-0.35314685106277,-0.39894768595695,56.89268112182617,0.06577616184950,-0.04053168371320,10.13588428497314,0.06278048455715,-0.47377368807793,2.69830584526062
240,2397356631,-0.35337352752686,-0.39898258447647,56.88869476318359,0.08541890233755,-0.05685481429100,10.14840888977051,0.07556200027466,-0.49754375219345,2.60304689407349
241,2397364964,-0.35393199324608,-0.39918702840805,56.88840866088867,0.08806558698416,-0.07897129654884,10.16491699218750,0.03949715197086,-0.52546328306198,2.56406188011169
242,2397373297,-0.35314419865608,-0.39866760373116,56.88402175903320,0.07721845805645,-0.06308566778898,10.15774440765381,0.19819013774395,-0.42947387695312,2.56084704399109
243,2397381630,-0.35323873162270,-0.39911851286888,56.88434219360352,0.07764729857445,-0.04451151564717,10.15036869049072,0.09620707482100,-0.55422800779343,2.63588428497314
244,2397389963,-0.35323956608772,-0.39997655153275,56.88053894042969,0.06236994639039,-0.06122790649533,10.16168403625488,0.10396818071604,-0.59725993871689,2.62607383728027
245,2397398296,-0.35312899947166,-0.40022641420364,56.88040924072266,0.07818456739187,-0.07184081524611,10.13031196594238,0.11988743394613,-0.52916449308395,2.58315730094910
246,2397406629,-0.35314905643463,-0.40072858333588,56.87656402587891,0.08311031758785,-0.05354462563992,10.16498184204102,0.10145798325539,-0.55442005395889,2.67202568054199
247,2397414962,-0.35256218910217,-0.40058118104935,56.87651062011719,0.09042611718178,-0.05599432438612,10.13372421264648,0.17635402083397,-0.48266187310219,2.59082865715027
248,2397423295,-0.35267716646194,-0.40083578228951,56.87305450439453,0.06952151656151,-0.03705960139632,10.16153430938721,0.09109703451395,-0.52278655767441,2.63272070884705
249,2397431628,-0.35247305035591,-0.40003421902657,56.87280654907227,0.06431836634874,-0.07509182393551,10.13978385925293,0.13067103922367,-0.40337300300598,2.56648254394531
250,2397439961,-0.35188162326813,-0.40004616975784,56.86783981323242,0.09202234447002,-0.04434395954013,10.15199279785156,0.17417679727077,-0.49408581852913,2.59257054328918
251,2397448294,-0.35232755541801,-0.39990761876106,56.86845397949219,0.09258147329092,-0.04422369971871,10.14466762542725,0.05386673286557,-0.48481345176697,2.67082190513611
252,2397456627,-0.35247147083282,-0.40091371536255,56.86464691162109,0.07978609204292,-0.05740555003285,10.17608928680420,0.08439891040325,-0.61127096414566,2.55266332626343
253,2397464960,-0.35236197710037,-0.40096387267113,56.86486053466797,0.07109366357327,-0.09148317575455,10.14157199859619,0.11972094327211,-0.50617569684982,2.62271833419800
254,2397473293,-0.35169330239296,-0.40113732218742,56.85980987548828,0.06623794138432,-0.05754623934627,10.15805149078369,0.18306496739388,-0.51426982879639,2.59426116943359
255,2397481626,-0.35209369659424,-0.40138664841652,56.86114883422852,0.07039981335402,-0.03577166795731,10.13044834136963,0.05914327502251,-0.52919012308121,2.75796175003052
256,2397489959,-0.35163331031799,-0.40195897221565,56.85688018798828,0.07665404677391,-0.05998452752829,10.15604782104492,0.15894913673401,-0.56241178512573,2.54865455627441
257,2397498292,-0.35106125473976,-0.40307164192200,56.85620498657227,0.06841140240431,-0.05706211924553,10.14706420898438,0.17320345342159,-0.63217216730118,2.51421666145325
258,2397506625,-0.35064429044724,-0.40374660491943,56.85172653198242,0.06024093925953,-0.05413817241788,10.14172840118408,0.15225100517273,-0.57351553440094,2.59313392639160
259,2397514958,-0.35106423497200,-0.40300247073174,56.85089492797852,0.08661275357008,-0.06369484215975,10.18520259857178,0.05609517544508,-0.40971249341965,2.49856615066528
260,2397523291,-0.35155642032623,-0.40312421321869,56.84706878662109,0.06612951308489,-0.04879458248615,10.15809345245361,0.04360823705792,-0.50744360685349,2.56287074089050
261,2397531624,-0.35091784596443,-0.40319803357124,56.84740829467773,0.07666630297899,-0.07731477171183,10.14883899688721,0.18207879364491,-0.50928789377213,2.63543605804443
262,2397539957,-0.35026407241821,-0.40428942441940,56.84191894531250,0.08666843175888,-0.08156318217516,10.17247772216797,0.18078526854515,-0.62264358997345,2.57827734947205
263,2397548290,-0.35055670142174,-0.40375331044197,56.84162521362305,0.06772150844336,-0.03354898840189,10.13790130615234,0.07182231545448,-0.43663302063942,2.56257629394531
264,2397556623,-0.35140389204025,-0.40427607297897,56.83856964111328,0.07947091758251,-0.05659774690866,10.16522407531738,0.00061474170070,-0.55438172817230,2.60294437408447
265,2397564956,-0.35211330652237,-0.40520387887955,56.83840560913086,0.07792802900076,-0.09509654343128,10.15073966979980,0.02041454613209,-0.61127090454102,2.57658720016479
266,2397573289,-0.35175210237503,-0.40471866726875,56.83483123779297,0.08584257960320,-0.04776325821877,10.17423725128174,0.14789660274982,-0.43550607562065,2.60781097412109
267,2397581622,-0.35120424628258,-0.40407776832581,56.83535766601562,0.10020166635513,-0.05816220119596,10.17949485778809,0.17201240360737,-0.42350575327873,2.66176748275757
268,2397589955,-0.35066494345665,-0.40375444293022,56.83104705810547,0.07515011727810,-0.07014206051826,10.15440368652344,0.16790129244328,-0.45143803954124,2.55519914627075
269,2397598288,-0.35046985745430,-0.40386486053467,56.83165359497070,0.04660118371248,-0.06336558610201,10.13298797607422,0.12965926527977,-0.51488453149796,2.66900348663330
270,2397606621,-0.34969159960747,-0.40406304597855,56.82651138305664,0.06731433421373,-0.04507103934884,10.11604213714600,0.19607697427273,-0.51519197225571,2.58301615715027
271,2397614954,-0.34938916563988,-0.40442538261414,56.82626342773438,0.08607406914234,-0.05393903329968,10.14317321777344,0.14190286397934,-0.54364931583405,2.56887722015381
272,2397623287,-0.35025805234909,-0.40581390261650,56.82467269897461,0.08137756586075,-0.04742135852575,10.20187568664551,-0.00098614813760,-0.65909278392792,2.67069411277771
273,2397631620,-0.35119327902794,-0.40647068619728,56.82455825805664,0.08057576417923,-0.05489953607321,10.15429496765137,-0.00585285248235,-0.57856160402298,2.58360552787781
274,2397639953,-0.35022601485252,-0.40628370642662,56.82164764404297,0.07194056361914,-0.07405888289213,10.15454673767090,0.21864309906960,-0.47046947479248,2.62707281112671
275,2397648286,-0.35113051533699,-0.40645876526833,56.82167816162109,0.08869932591915,-0.02768840640783,10.15956592559814,-0.00103737646714,-0.52128809690475,2.59992170333862
276,2397656619,-0.35211434960365,-0.40682139992714,56.81988525390625,0.06830845028162,-0.05310797318816,10.15824413299561,-0.01614977605641,-0.53519660234451,2.63954687118530
277,2397664952,-0.35262298583984,-0.40739247202873,56.81987762451172,0.05812243372202,-0.10532990843058,10.16413116455078,0.04392840713263,-0.56967335939407,2.59467053413391
278,2397673285,-0.35284119844437,-0.40768954157829,56.81674575805664,0.08411498367786,-0.02686777152121,10.17433643341064,0.07699639350176,-0.52719217538834,2.55158782005310
279,2397681618,-0.35233789682388,-0.40825712680817,56.81694412231445,0.06162711232901,-0.04836605861783,10.14191436767578,0.16742745041847,-0.56802129745483,2.61970877647400
280,2397689951,-0.35219773650169,-0.40863639116287,56.81215667724609,0.07520163059235,-0.08093494176865,10.12893199920654,0.11822248995304,-0.53910279273987,2.63330984115601
281,2397698284,-0.35196137428284,-0.40846794843674,56.81208419799805,0.07133454084396,-0.05809748917818,10.14360904693604,0.13411614298820,-0.47930634021759,2.58711481094360
282,2397706617,-0.35164162516594,-0.40848201513290,56.80763626098633,0.09165225178003,-0.06551299989223,10.15237140655518,0.14133936166763,-0.49454689025879,2.57230973243713
283,2397714950,-0.35101893544197,-0.40880703926086,56.80780410766602,0.10361408442259,-0.04451602324843,10.14106941223145,0.18042668700218,-0.53924369812012,2.61800551414490
284,2397723283,-0.35129177570343,-0.40863233804703,56.80450439453125,0.08757726848125,-0.03497939556837,10.17068958282471,0.06974755972624,-0.47071278095245,2.66500735282898
285,2397731616,-0.35200268030167,-0.40863943099976,56.80470275878906,0.07257568836212,-0.07383698225021,10.15282917022705,0.02164403162897,-0.50102722644806,2.61964488029480
286,2397739949,-0.35210847854614,-0.40828001499176,56.80088043212891,0.07032905519009,-0.07329553365707,10.18585395812988,0.08821542561054,-0.44895350933075,2.58931756019592
287,2397748282,-0.35207790136337,-0.40807887911797,56.80012130737305,0.07397396117449,-0.02928897552192,10.18382263183594,0.11051262170076,-0.47499039769173,2.50539255142212
288,2397756615,-0.35279941558838,-0.40861511230469,56.79664230346680,0.07838165760040,-0.05561617389321,10.14901542663574,0.01549661252648,-0.55808293819427,2.64951062202454
289,2397764948,-0.35262408852577,-0.40859276056290,56.79637908935547,0.06359955668449,-0.07424421608448,10.12193012237549,0.12635503709316,-0.49710828065872,2.56611108779907
290,2397773281,-0.35216030478477,-0.40888392925262,56.79383850097656,0.05756920576096,-0.04180653393269,10.15494060516357,0.15865457057953,-0.52659028768539,2.66767120361328
291,2397781614,-0.35214591026306,-0.40908971428871,56.79391479492188,0.06769417226315,-0.05739899724722,10.15844440460205,0.10716996341944,-0.52551448345184,2.60747790336609
292,2397789947,-0.35179191827774,-0.40887692570686,56.78963088989258,0.08831535279751,-0.07966130971909,10.17272853851318,0.14332446455956,-0.46676823496819,2.61023163795471
293,2397798280,-0.35151571035385,-0.40923041105270,56.79050827026367,0.08090019971132,-0.06579770892859,10.15272235870361,0.14163391292095,-0.54361087083817,2.70080351829529
294,2397806613,-0.35198584198952,-0.40960294008255,56.78733825683594,0.09770682454109,-0.05994457006454,10.18164730072021,0.04478649049997,-0.53823190927505,2.67726397514343
295,2397814946,-0.35223096609116,-0.40975901484489,56.78734588623047,0.08625482022762,-0.04943582043052,10.15805816650391,0.07795691490173,-0.51727944612503,2.59803867340088
296,2397823279,-0.35220849514008,-0.40900519490242,56.78245162963867,0.06003927811980,-0.06094285845757,10.16785812377930,0.10326378792524,-0.40237399935722,2.51374268531799
297,2397831612,-0.35254800319672,-0.40912163257599,56.78234863281250,0.05913607776165,-0.06642739474773,10.12760829925537,0.06488086283207,-0.51332211494446,2.58345174789429
298,2397839945,-0.35288947820663,-0.40898817777634,56.78028106689453,0.08610398322344,-0.08038339018822,10.13805866241455,0.06147416308522,-0.47679618000984,2.67865991592407
299,2397848278,-0.35298806428909,-0.40836232900620,56.78117752075195,0.08283902704716,-0.03556600213051,10.14531135559082,0.09582285583019,-0.42615687847137,2.70450472831726
300,2397856611,-0.35355669260025,-0.40846884250641,56.77804565429688,0.08779834955931,-0.03403409942985,10.16352176666260,0.03181288018823,-0.50499743223190,2.52479529380798
301,2397864944,-0.35365012288094,-0.40897154808044,56.77738952636719,0.06992419064045,-0.10000484436750,10.16782855987549,0.09595093131065,-0.55963259935379,2.51931405067444
302,2397873277,-0.35345944762230,-0.40866199135780,56.77371978759766,0.06004652753472,-0.04170076176524,10.13305950164795,0.12435711920261,-0.45438373088837,2.60412287712097
303,2397881610,-0.35389134287834,-0.40840807557106,56.77412414550781,0.09152863919735,-0.03400091454387,10.15247154235840,0.05494253337383,-0.46993154287338,2.64605259895325
304,2397889943,-0.35486036539078,-0.40922832489014,56.77098083496094,0.09697756171227,-0.08802499622107,10.15071010589600,-0.01520205009729,-0.59080517292023,2.58806252479553
305,2397898276,-0.35403117537498,-0.40865200757980,56.77113342285156,0.06370378285646,-0.06187518313527,10.14224433898926,0.20634828507900,-0.43125408887863,2.61803102493286
306,2397906609,-0.35456028580666,-0.40852737426758,56.76766967773438,0.07766948640347,-0.04655410349369,10.16202068328857,0.03693572804332,-0.47732126712799,2.54123950004578
307,2397914942,-0.35364320874214,-0.40786501765251,56.76767730712891,0.07314598560333,-0.08826974779367,10.15312385559082,0.21665799617767,-0.42043209075928,2.59988307952881
308,2397923275,-0.35275250673294,-0.40728697180748,56.76562881469727,0.07176101952791,-0.02512584067881,10.14379596710205,0.20880722999573,-0.42314720153809,2.64600157737732
309,2397931608,-0.35280466079712,-0.40717440843582,56.76604843139648,0.10136582702398,-0.07807327806950,10.15430259704590,0.10156045109034,-0.48742610216141,2.64902424812317
310,2397939941,-0.35337403416634,-0.40705162286758,56.76380920410156,0.07428198307753,-0.10971666872501,10.15503978729248,0.03370833396912,-0.47674497961998,2.68757390975952
311,2397948274,-0.35265985131264,-0.40708255767822,56.76387405395508,0.08079992234707,-0.01620043441653,10.16189861297607,0.19200432300568,-0.50445955991745,2.60373830795288
312,2397956607,-0.35308834910393,-0.40702122449875,56.75985717773438,0.05972234904766,-0.02997034043074,10.16795063018799,0.04957635328174,-0.48454451560974,2.54296875000000
313,2397964940,-0.35322400927544,-0.40728265047073,56.75884628295898,0.05028614401817,-0.12294359505177,10.13371086120605,0.08881735056639,-0.52983045578003,2.47529578208923
314,2397973273,-0.35282701253891,-0.40725627541542,56.75567245483398,0.07315323501825,-0.04260427877307,10.11458969116211,0.15027871727943,-0.49049985408783,2.61413764953613
315,2397981606,-0.35252320766449,-0.40749377012253,56.75535964965820,0.10949692130089,-0.02810538560152,10.14300060272217,0.14249201118946,-0.52794784307480,2.56014299392700
316,2397989939,-0.35205319523811,-0.40828311443329,56.75206375122070,0.08864398300648,-0.08790288120508,10.16021060943604,0.15818069875240,-0.58646351099014,2.52234888076782
317,2397998272,-0.35175520181656,-0.40839371085167,56.75241851806641,0.04977557063103,-0.06621794402599,10.16838741302490,0.14267130196095,-0.51295065879822,2.63900899887085
318,2398006605,-0.35235181450844,-0.40925857424736,56.74939727783203,0.04663858935237,-0.06211875006557,10.13732910156250,0.03036567755044,-0.59652996063232,2.60277795791626
319,2398014938,-0.35269710421562,-0.40929687023163,56.74917984008789,0.09320860356092,-0.08415760844946,10.15829277038574,0.06352330744267,-0.50502306222916,2.57100367546082
320,2398023271,-0.35266277194023,-0.40940707921982,56.74603652954102,0.09420321881771,-0.02675317414105,10.18372154235840,0.10668329149485,-0.50597077608109,2.61319017410278
321,2398031604,-0.35228610038757,-0.40927717089653,56.74590682983398,0.09093321859837,-0.03919160738587,10.15820121765137,0.15195645391941,-0.48418593406677,2.58144092559814
322,2398039937,-0.35212951898575,-0.40895482897758,56.74208831787109,0.07584475725889,-0.10359558463097,10.14232254028320,0.12043812870979,-0.45446056127548,2.53580904006958
323,2398048270,-0.35122248530388,-0.40896666049957,56.74164199829102,0.07205373793840,-0.02160960063338,10.14764308929443,0.21464730799198,-0.49966970086098,2.54467201232910
324,2398056603,-0.35164743661880,-0.40925401449203,56.73949432373047,0.07919440418482,-0.02958015725017,10.14933109283447,0.05069057270885,-0.52717936038971,2.57464051246643
325,2398064936,-0.35165852308273,-0.40844219923019,56.73932266235352,0.06706884503365,-0.13127277791500,10.14634227752686,0.10445485264063,-0.40242525935173,2.57538318634033
326,2398073269,-0.35103711485863,-0.40761077404022,56.73534774780273,0.10306999087334,-0.03017187677324,10.17258548736572,0.17748105525970,-0.39219239354134,2.58437418937683
327,2398081602,-0.35165715217590,-0.40809732675552,56.73492050170898,0.09626492857933,-0.02737733535469,10.15443801879883,0.03025041520596,-0.55881297588348,2.54551720619202
328,2398089935,-0.35190862417221,-0.40881034731865,56.73150253295898,0.05477590113878,-0.10128609091043,10.16672801971436,0.07253950834274,-0.57776749134064,2.61078214645386
329,2398098268,-0.35129702091217,-0.40907016396523,56.73202896118164,0.04112005233765,-0.05143412202597,10.14857387542725,0.17955578863621,-0.53181552886963,2.66034555435181
330,2398106601,-0.35135093331337,-0.40929734706879,56.72773361206055,0.09593172371387,-0.03761910647154,10.17467308044434,0.09639917314053,-0.52002024650574,2.65147042274475
331,2398114934,-0.35147824883461,-0.40848377346992,56.72718811035156,0.11726997047663,-0.07711859047413,10.16696929931641,0.09095615893602,-0.40169525146484,2.53137803077698
332,2398123267,-0.35089167952538,-0.40904867649078,56.72452545166016,0.08259759098291,-0.01721606031060,10.14747810363770,0.17243504524231,-0.55942773818970,2.62776446342468
333,2398131600,-0.35175061225891,-0.40933293104172,56.72463989257812,0.05575084313750,-0.07625608146191,10.15753555297852,0.00297125149518,-0.53389030694962,2.60845160484314
334,2398139933,-0.35138955712318,-0.40972924232483,56.72156143188477,0.04818153753877,-0.07719411700964,10.12293148040771,0.14384955167770,-0.54001218080521,2.47369456291199
335,2398148266,-0.35029011964798,-0.40992376208305,56.72153472900391,0.07812004536390,-0.02877563796937,10.15682792663574,0.23844289779663,-0.52272254228592,2.59239101409912
336,2398156599,-0.35070186853409,-0.41035661101341,56.71848297119141,0.09540059417486,-0.03065599128604,10.16374397277832,0.05220181122422,-0.54505813121796,2.65888571739197
337,2398164932,-0.35080307722092,-0.41063734889030,56.71778106689453,0.09152664244175,-0.09463025629520,10.16043186187744,0.09385056048632,-0.53340363502502,2.51544570922852
338,2398173265,-0.35056957602501,-0.41108331084251,56.71461868286133,0.05851490795612,-0.04792666807771,10.11897468566895,0.12991540133953,-0.54541677236557,2.57092666625977
339,2398181598,-0.34984225034714,-0.41168290376663,56.71487808227539,0.06919516623020,-0.05413953587413,10.17919445037842,0.19295203685760,-0.57238847017288,2.62773847579956
340,2398189931,-0.35038053989410,-0.41207692027092,56.71125411987305,0.05776233971119,-0.04510666802526,10.15931701660156,0.03634659945965,-0.53939735889435,2.54421067237854
341,2398198264,-0.35126143693924,-0.41242790222168,56.71077728271484,0.06614898890257,-0.08491448312998,10.15560436248779,-0.00003842135993,-0.54198449850082,2.53975415229797
342,2398206597,-0.35101053118706,-0.41217035055161,56.70907974243164,0.09403550624847,-0.04420750215650,10.14193534851074,0.13334770500660,-0.46164527535439,2.66769695281982
343,2398214930,-0.35114964842796,-0.41229420900345,56.70989227294922,0.09247284382582,-0.03805332258344,10.16760635375977,0.08904789388180,-0.51617807149887,2.69473266601562
344,2398223263,-0.35059034824371,-0.41176557540894,56.70652770996094,0.06059240177274,-0.06128521636128,10.17035484313965,0.16892589628696,-0.42812916636467,2.57686901092529
345,2398231596,-0.35056051611900,-0.41159850358963,56.70643997192383,0.04364956915379,-0.03315884992480,10.13223743438721,0.10978260636330,-0.48004919290543,2.58929157257080
346,2398239929,-0.35167846083641,-0.41146171092987,56.70449829101562,0.06908267736435,-0.08616486191750,10.14828681945801,-0.03410535678267,-0.47700110077858,2.62730336189270
347,2398248262,-0.35090467333794,-0.41116726398468,56.70411682128906,0.11768817901611,-0.07578021287918,10.16164779663086,0.19907383620739,-0.46478313207626,2.55202293395996
348,2398256595,-0.35133832693100,-0.41053405404091,56.70116424560547,0.09877961874008,0.01379686314613,10.15814399719238,0.04915371537209,-0.41670519113541,2.65573501586914
349,2398264928,-0.35174334049225,-0.41083699464798,56.70092010498047,0.07488185912371,-0.11225453019142,10.14826583862305,0.05814431980252,-0.53583699464798,2.56887745857239
350,2398273261,-0.35111317038536,-0.41135632991791,56.69786453247070,0.06121727079153,-0.06414431333542,10.12647914886475,0.17704559862614,-0.55527818202972,2.58714008331299
351,2398281594,-0.35130313038826,-0.41165089607239,56.69838333129883,0.07363928854465,-0.01170838717371,10.16077613830566,0.08396346122026,-0.53570890426636,2.65898823738098
352,2398289927,-0.35224410891533,-0.41206806898117,56.69632720947266,0.08999842405319,-0.07473187893629,10.16426563262939,-0.01220518257469,-0.54405915737152,2.63565349578857
353,2398298260,-0.35211923718452,-0.41257089376450,56.69730377197266,0.05241313949227,-0.03830918669701,10.13399696350098,0.12241042405367,-0.56114387512207,2.71282911300659
354,2398306593,-0.35209193825722,-0.41310855746269,56.69456100463867,0.08128894865513,-0.10655237734318,10.14998245239258,0.10391695797443,-0.55678945779800,2.66057610511780
355,2398314926,-0.35124847292900,-0.41416209936142,56.69489288330078,0.07801923900843,-0.05943464487791,10.17189121246338,0.20719355344772,-0.62799704074860,2.63314366340637
356,2398323259,-0.35115218162537,-0.41471782326698,56.69195556640625,0.09574554115534,0.00874917861074,10.17667579650879,0.11306124180555,-0.55917155742645,2.61611008644104
357,2398331592,-0.35168832540512,-0.41460725665092,56.69137191772461,0.06381120532751,-0.11626084148884,10.14871597290039,0.04131575301290,-0.48547938466072,2.52653670310974
358,2398339925,-0.35060998797417,-0.41504684090614,56.69041061401367,0.08379983901978,-0.08719027787447,10.16822242736816,0.23014388978481,-0.54598027467728,2.57845711708069
359,2398348258,-0.35079228878021,-0.41461348533630,56.69044113159180,0.08653087168932,-0.00412592897192,10.16052532196045,0.08427083492279,-0.44879984855652,2.59989619255066
360,2398356591,-0.35192465782166,-0.41450244188309,56.68802642822266,0.06795455515385,-0.08837595582008,10.15403842926025,-0.03469448164105,-0.48010039329529,2.59008574485779
361,2398364924,-0.35117429494858,-0.41435712575912,56.68783187866211,0.05641325935721,-0.07935811579227,10.13417530059814,0.19674295186996,-0.48132994771004,2.57389760017395
362,2398373257,-0.35227495431900,-0.41470605134964,56.68541717529297,0.06266012787819,-0.04288789257407,10.15220737457275,-0.03182568773627,-0.53606748580933,2.60509562492371
363,2398381590,-0.35268372297287,-0.41401115059853,56.68566131591797,0.08690060675144,-0.09090568125248,10.10777378082275,0.05904081091285,-0.41578307747841,2.62656068801880
364,2398389923,-0.35244515538216,-0.41340550780296,56.68329620361328,0.09040244668722,-0.03504948318005,10.20091056823730,0.12899328768253,-0.42075228691101,2.59771895408630
365,2398398256,-0.35314989089966,-0.41267171502113,56.68266296386719,0.08238144963980,-0.05824480950832,10.13894557952881,0.02174648456275,-0.41183847188950,2.52359151840210
366,2398406589,-0.35321494936943,-0.41163203120232,56.67911911010742,0.04296519979835,-0.09906058013439,10.10537910461426,0.09319739788771,-0.36894744634628,2.60303401947021
367,2398414922,-0.35246530175209,-0.41211041808128,56.67965698242188,0.06335209310055,-0.03824485465884,10.17787170410156,0.19748577475548,-0.55689191818237,2.66139602661133
368,2398423255,-0.35275268554688,-0.41204616427422,56.67972946166992,0.08425215631723,-0.03374093398452,10.14616966247559,0.06639209389687,-0.48553061485291,2.55947685241699
369,2398431588,-0.35244974493980,-0.41169807314873,56.67930984497070,0.12173214554787,-0.08517869561911,10.13618373870850,0.14213339984417,-0.45804652571678,2.54851388931274
370,2398439921,-0.35170248150826,-0.41195380687714,56.67675781250000,0.06722822785378,-0.09384891390800,10.12674331665039,0.19041624665260,-0.52384960651398,2.57441020011902
371,2398448254,-0.35114711523056,-0.41208717226982,56.67643737792969,0.06992509216070,-0.04737913236022,10.15948104858398,0.17271679639816,-0.51606279611588,2.55983567237854
372,2398456587,-0.35196447372437,-0.41170910000801,56.67400360107422,0.07924219220877,-0.06688099354506,10.17214202880859,0.00471301935613,-0.44789057970047,2.66224122047424
373,2398464920,-0.35234776139259,-0.41242671012878,56.67425918579102,0.07491007447243,-0.05715653672814,10.13926029205322,0.06011660397053,-0.58678370714188,2.62904500961304
374,2398473253,-0.35227000713348,-0.41334241628647,56.67181015014648,0.09972769021988,-0.07158423215151,10.14415168762207,0.11047419160604,-0.60374027490616,2.55281686782837
375,2398481586,-0.35173565149307,-0.41344097256660,56.67197036743164,0.12700185179710,-0.05664781108499,10.15432357788086,0.17223012447357,-0.51104241609573,2.61751866340637
376,2398489919,-0.35095784068108,-0.41321253776550,56.67045593261719,0.08087585866451,-0.04018038138747,10.18305015563965,0.19437363743782,-0.46640962362289,2.67787885665894
377,2398498252,-0.35076159238815,-0.41273012757301,56.67005538940430,0.05592262744904,-0.04571299627423,10.15632057189941,0.13032524287701,-0.44083383679390,2.54892373085022
378,2398506585,-0.35166719555855,-0.41295552253723,56.66677093505859,0.04709557816386,-0.12024460732937,10.13854503631592,-0.00779953505844,-0.51977688074112,2.48534965515137
379,2398514918,-0.35116216540337,-0.41338554024696,56.66688537597656,0.08735579997301,-0.05369787663221,10.14632701873779,0.16754271090031,-0.55184590816498,2.61121773719788
380,2398523251,-0.35226961970329,-0.41296720504761,56.66468048095703,0.11162338405848,0.00410610064864,10.15642642974854,-0.03149270266294,-0.44365134835243,2.62691903114319
381,2398531584,-0.35255992412567,-0.41284269094467,56.66489410400391,0.09348792582750,-0.07278785854578,10.15174961090088,0.07236021757126,-0.48414751887321,2.62230849266052
382,2398539917,-0.35254216194153,-0.41306561231613,56.66070938110352,0.07431201636791,-0.07736286520958,10.12668514251709,0.10307167470455,-0.51952075958252,2.53819131851196
383,2398548250,-0.35229629278183,-0.41253280639648,56.66037368774414,0.04016042500734,-0.04226718470454,10.15318775177002,0.13585788011551,-0.43471199274063,2.55560874938965
384,2398556583,-0.35189163684845,-0.41282755136490,56.65863800048828,0.08298709243536,-0.08343833684921,10.15762901306152,0.15040679275990,-0.52945905923843,2.56557297706604
385,2398564916,-0.35180565714836,-0.41277903318405,56.65884399414062,0.11241031438112,-0.04117826372385,10.16579627990723,0.11600686609745,-0.49390646815300,2.62187314033508
386,2398573249,-0.35210368037224,-0.41296699643135,56.65592956542969,0.09214384853840,-0.05296974629164,10.14080429077148,0.06614876538515,-0.51502543687820,2.57829046249390
387,2398581582,-0.35139986872673,-0.41275480389595,56.65613174438477,0.07447218149900,-0.10546824336052,10.16167831420898,0.19140237569809,-0.47483673691750,2.62081027030945
388,2398589915,-0.35178217291832,-0.41250610351562,56.65400695800781,0.05157289654016,-0.01654115691781,10.16934585571289,0.05610798299313,-0.46307978034019,2.64245414733887
389,2398598248,-0.35217157006264,-0.41306281089783,56.65390777587891,0.06780827790499,-0.06315612792969,10.17822933197021,0.05906642973423,-0.56708639860153,2.58365654945374
390,2398606581,-0.35205274820328,-0.41337978839874,56.65177536010742,0.09727627038956,-0.12325568497181,10.13731479644775,0.11695460975170,-0.53012502193451,2.64518213272095
391,2398614914,-0.35165292024612,-0.41372296214104,56.65136718750000,0.11833556741476,-0.05782654508948,10.11448192596436,0.15417207777500,-0.54144650697708,2.54771971702576
392,2398623247,-0.35183113813400,-0.41435933113098,56.64936828613281,0.08142665028572,-0.03896234184504,10.12282943725586,0.08047993481159,-0.56864887475967,2.59659194946289
393,2398631580,-0.35165482759476,-0.41516330838203,56.64898300170898,0.06103741005063,-0.04842136800289,10.14363765716553,0.12714907526970,-0.59531325101852,2.54999995231628
394,2398639913,-0.35143023729324,-0.41522279381752,56.64633560180664,0.04549439251423,-0.07343736290932,10.15887451171875,0.12942874431610,-0.50013077259064,2.55299663543701
395,2398648246,-0.35133308172226,-0.41577985882759,56.64461898803711,0.07256557792425,-0.05874989554286,10.15803623199463,0.11557141691446,-0.56534463167191,2.39226722717285
396,2398656579,-0.35131970047951,-0.41573402285576,56.64400482177734,0.12795652449131,-0.05798263847828,10.12343025207520,0.10535134375095,-0.48822015523911,2.64382457733154
397,2398664912,-0.35093536973000,-0.41641050577164,56.64419555664062,0.11881868541241,-0.06897623836994,10.16040325164795,0.15225102007389,-0.58063632249832,2.61882519721985
398,2398673245,-0.35054641962051,-0.41715627908707,56.64315414428711,0.04720970988274,-0.06533461809158,10.13689327239990,0.14899802207947,-0.58196824789047,2.62876343727112
399,2398681578,-0.35076791048050,-0.41603007912636,56.64323043823242,0.03059691935778,-0.09219995886087,10.13018512725830,0.07973711937666,-0.36468270421028,2.60448122024536
400,2398689911,-0.35060551762581,-0.41646173596382,56.64030075073242,0.06789056956768,-0.04535145685077,10.18752765655518,0.12159077823162,-0.54551923274994,2.58967614173889
401,2398698244,-0.35088646411896,-0.41649180650711,56.63984298706055,0.10494171082973,-0.05663594603539,10.15717029571533,0.07317987084389,-0.50248718261719,2.54093194007874
402,2398706577,-0.35064393281937,-0.41659957170486,56.63860702514648,0.11508834362030,-0.10250839591026,10.15339374542236,0.13278418779373,-0.50658553838730,2.69961237907410
403,2398714910,-0.35070171952248,-0.41635739803314,56.63833236694336,0.06814693659544,-0.08754348009825,10.15659999847412,0.09907586872578,-0.46985474228859,2.56518888473511
404,2398723243,-0.35088011622429,-0.41610077023506,56.63555526733398,0.04143966734409,-0.05916036292911,10.14814472198486,0.08150450140238,-0.46196556091309,2.55727410316467
405,2398731576,-0.35067453980446,-0.41658502817154,56.63519287109375,0.04871032759547,-0.06555593013763,10.15346717834473,0.12994101643562,-0.55783963203430,2.55525088310242
406,2398739909,-0.35056766867638,-0.41750621795654,56.63278579711914,0.07943598181009,-0.01100026257336,10.12486076354980,0.11646793037653,-0.60448312759399,2.55560898780823
407,2398748242,-0.35142695903778,-0.41721507906914,56.63304901123047,0.11357077956200,-0.10285865515471,10.17183303833008,0.00356037868187,-0.46393787860870,2.63094043731689
408,2398756575,-0.35038498044014,-0.41813957691193,56.62976074218750,0.08571346849203,-0.04115701466799,10.13214206695557,0.22845336794853,-0.60496985912323,2.57046556472778
409,2398764908,-0.35071107745171,-0.41815587878227,56.62931823730469,0.05829902738333,-0.03453026339412,10.14581203460693,0.06685315072536,-0.50033569335938,2.54464602470398
410,2398773241,-0.35100150108337,-0.41840326786041,56.62812423706055,0.05590368807316,-0.11364109814167,10.14988327026367,0.06718613952398,-0.52331167459488,2.57599830627441
411,2398781574,-0.35054448246956,-0.41890391707420,56.62876510620117,0.06337802112103,-0.04782140254974,10.15124130249023,0.16280408203602,-0.56014496088028,2.67335772514343
412,2398789907,-0.35097000002861,-0.41879424452782,56.62541580200195,0.11259049922228,-0.04608662053943,10.14973831176758,0.05084425956011,-0.48089447617531,2.57784223556519
413,2398798240,-0.35064470767975,-0.41866105794907,56.62536621093750,0.10587543994188,-0.06893953680992,10.14821434020996,0.14618045091629,-0.48348149657249,2.59121274948120
414,2398806573,-0.35105332732201,-0.41845187544823,56.62112808227539,0.07355433702469,-0.05077083781362,10.12717151641846,0.05307269096375,-0.46798494458199,2.55153632164001
415,2398814906,-0.35082730650902,-0.41811057925224,56.62120437622070,0.06516083329916,-0.05631645023823,10.16411781311035,0.13368070125580,-0.45779043436050,2.60619711875916
416,2398823239,-0.35035574436188,-0.41858142614365,56.61995315551758,0.06614708155394,-0.04317528381944,10.16589736938477,0.16057564318180,-0.55046272277832,2.58970165252686
417,2398831572,-0.35090747475624,-0.41905960440636,56.62007141113281,0.10981895774603,-0.05767340213060,10.12797164916992,0.04031680151820,-0.55725049972534,2.60973215103149
418,2398839905,-0.35050097107887,-0.41878655552864,56.61765670776367,0.10827406495810,-0.07735678553581,10.15742111206055,0.15173873305321,-0.46083852648735,2.61756992340088
419,2398848238,-0.35139086842537,-0.41868385672569,56.61848068237305,0.07001349329948,-0.02313573099673,10.11627864837646,-0.00051228475058,-0.48789998888969,2.69573211669922
420,2398856571,-0.35224890708923,-0.41823926568031,56.61422729492188,0.06105497851968,-0.11396169662476,10.15907382965088,0.00007684271259,-0.43768322467804,2.47520613670349
421,2398864904,-0.35111990571022,-0.41847854852676,56.61493301391602,0.05714455991983,-0.03537401184440,10.14058494567871,0.24269489943981,-0.52889549732208,2.68229699134827
422,2398873237,-0.35187169909477,-0.41929841041565,56.61199188232422,0.12227958440781,-0.01771486178041,10.14762592315674,0.01168009173125,-0.59134304523468,2.53811454772949
423,2398881570,-0.35241129994392,-0.41873031854630,56.61203384399414,0.11601638793945,-0.15784160792828,10.11910247802734,0.04200734943151,-0.43240675330162,2.60297012329102
424,2398889903,-0.35060918331146,-0.41795408725739,56.61065673828125,0.07106659561396,-0.01078442856669,10.15293025970459,0.32010111212730,-0.40018400549889,2.75478553771973
425,2398898236,-0.35116171836853,-0.41796877980232,56.61038589477539,0.04992201179266,-0.02164164930582,10.16648387908936,0.04070102050900,-0.50146275758743,2.56383156776428
426,2398906569,-0.35085210204124,-0.41855531930923,56.60844421386719,0.02390047162771,-0.15304736793041,10.12023544311523,0.13944390416145,-0.56344908475876,2.67766118049622
427,2398914902,-0.35056158900261,-0.41919484734535,56.60891342163086,0.05912403762341,-0.02656568586826,10.14060497283936,0.14287620782852,-0.57697343826294,2.65299439430237
428,2398923235,-0.35169038176537,-0.41928038001060,56.60716247558594,0.10620816797018,-0.03201009705663,10.16478824615479,-0.03354183956981,-0.50361424684525,2.56019401550293
429,2398931568,-0.35229840874672,-0.41924375295639,56.60692214965820,0.12469208985567,-0.12243334949017,10.14258480072021,0.03463044762611,-0.49605813622475,2.56734061241150
430,2398939901,-0.35210844874382,-0.41965579986572,56.60582351684570,0.07988499104977,-0.04987544193864,10.14375209808350,0.12627817690372,-0.54270160198212,2.67299914360046
431,2398948234,-0.35163784027100,-0.42040550708771,56.60646057128906,0.06024007126689,-0.00493191555142,10.20101833343506,0.16347004473209,-0.59019035100937,2.67100095748901
432,2398956567,-0.35326343774796,-0.42014771699905,56.60473632812500,0.05271860584617,-0.10634587705135,10.11925411224365,-0.09365844726562,-0.46101781725883,2.48878169059753
433,2398964900,-0.35155940055847,-0.42078056931496,56.60500717163086,0.11324479430914,-0.12148134410381,10.15401649475098,0.31200700998306,-0.57640999555588,2.63081264495850
434,2398973233,-0.35181897878647,-0.42096632719040,56.60337448120117,0.08243084698915,0.10303846746683,10.14130496978760,0.07335916906595,-0.51549929380417,2.61803102493286
435,2398981566,-0.35470160841942,-0.42094513773918,56.60238647460938,0.10390371084213,-0.20684643089771,10.14737415313721,-0.24152944982052,-0.49639108777046,2.47830557823181
436,2398989899,-0.35073170065880,-0.42005041241646,56.60227203369141,0.09544938057661,-0.12123212963343,10.16747570037842,0.58280074596405,-0.38622426986694,2.83152556419373
437,2398998232,-0.35229215025902,-0.42067176103592,56.60163116455078,0.04474475979805,0.16050232946873,10.16066932678223,-0.08133800327778,-0.57528293132782,2.52051758766174
438,2399006565,-0.35422298312187,-0.42094063758850,56.59956359863281,0.06705684959888,-0.25943118333817,10.14334869384766,-0.13092714548111,-0.52372139692307,2.44218921661377
439,2399014898,-0.35086518526077,-0.42037624120712,56.60097503662109,0.08666199445724,-0.06763847917318,10.13095092773438,0.51046609878540,-0.43330317735672,2.76713132858276
440,2399023231,-0.35197490453720,-0.42065921425819,56.59717178344727,0.11018851399422,0.12261333316565,10.18438529968262,-0.02993023209274,-0.52697443962097,2.49828433990479
441,2399031564,-0.35320383310318,-0.42002686858177,56.59708786010742,0.10676010698080,-0.20386883616447,10.16386508941650,-0.04122611507773,-0.42372351884842,2.58532166481018
442,2399039897,-0.35099199414253,-0.42015457153320,56.59596633911133,0.05783184990287,-0.02272069826722,10.15009784698486,0.37097096443176,-0.50894200801849,2.77304840087891
443,2399048230,-0.35266429185867,-0.41991075873375,56.59594726562500,0.03412057086825,-0.00336632085964,10.15449714660645,-0.09433722496033,-0.47012361884117,2.59468340873718
444,2399056563,-0.35180869698524,-0.41997897624969,56.59505462646484,0.10615026205778,-0.20151481032372,10.13460445404053,0.20807726681232,-0.50349903106689,2.74452686309814
445,2399064896,-0.34908369183540,-0.41808333992958,56.59705352783203,0.13907228410244,0.03923235088587,10.20399284362793,0.43495529890060,-0.27242019772530,2.83713507652283
446,2399073229,-0.34850412607193,-0.41619080305099,56.59613800048828,0.19769394397736,-0.07496755570173,10.14206409454346,0.17363889515400,-0.26570928096771,2.62264156341553
447,2399081562,-0.34699404239655,-0.41681593656540,56.59690093994141,0.16710934042931,-0.00624079536647,10.13730430603027,0.28803205490112,-0.57635867595673,2.68934106826782
448,2399089895,-0.34871819615364,-0.41441971063614,56.59425735473633,-0.01531627215445,-0.05439330637455,10.13813209533691,-0.10464695096016,-0.20282630622387,2.48227548599243
449,2399098228,-0.34775525331497,-0.41330358386040,56.59392166137695,0.41258093714714,-0.13900677859783,10.18461036682129,0.22166557610035,-0.36552792787552,2.55811905860901
450,2399106561,-0.34808695316315,-0.41947454214096,56.59235382080078,1.31507325172424,0.21392518281937,10.17841339111328,0.06356172263622,-1.22899663448334,2.56876182556152
451,2399114894,-0.35084801912308,-0.41900515556335,56.58944702148438,1.20911049842834,-0.21809987723827,10.15249347686768,-0.22764649987221,-0.44144853949547,2.24834060668945
452,2399123227,-0.34405484795570,-0.41140282154083,56.59193038940430,-0.87298822402954,-0.29282048344612,10.07295322418213,0.91975593566895,0.43936091661453,2.93539118766785
453,2399131560,-0.34374627470970,-0.41239061951637,56.59245681762695,-2.83885121345520,0.31629171967506,10.17716598510742,0.14390078186989,-0.61846852302551,2.66090917587280
454,2399139893,-0.35244593024254,-0.41777628660202,56.58578109741211,-1.58704912662506,-0.34921774268150,10.06461238861084,-0.94615143537521,-1.14327859878540,2.00797677040100
455,2399148226,-0.35046166181564,-0.42358547449112,56.58761978149414,1.63495635986328,-0.18937110900879,10.17785263061523,0.34625327587128,-1.19857978820801,2.81098318099976
456,2399156559,-0.35201129317284,-0.42537394165993,56.58600997924805,2.87966084480286,0.34069153666496,10.14021968841553,-0.08123553544283,-0.71610999107361,2.58614134788513
457,2399164892,-0.35197961330414,-0.41958484053612,56.58600997924805,0.87385302782059,-0.35964283347130,10.12933254241943,0.11043576896191,0.19375886023045,2.60106134414673
458,2399173225,-0.34491944313049,-0.41515123844147,56.58576965332031,-2.15952610969543,-0.09517374634743,10.11681461334229,0.95392525196075,0.05668430775404,2.87207293510437
459,2399181558,-0.34927293658257,-0.41800981760025,56.58165359497070,-2.50694346427917,0.06027871370316,10.29682540893555,-0.41995820403099,-0.83936566114426,2.10041856765747
460,2399189891,-0.35129180550575,-0.42697808146477,56.57749176025391,0.35422435402870,-0.31238794326782,10.09933280944824,-0.13966161012650,-1.58584117889404,2.31232500076294
461,2399198224,-0.35020765662193,-0.42867049574852,56.57809066772461,2.57018136978149,0.09232654422522,10.10692596435547,0.23708531260490,-0.70425057411194,2.66646742820740
462,2399206557,-0.35086458921432,-0.42589348554611,56.57759094238281,1.91575551033020,-0.09529685974121,10.26219654083252,0.02651073224843,-0.15710490942001,2.73401188850403
463,2399214890,-0.34583711624146,-0.42091926932335,56.58153533935547,-0.92237263917923,-0.16515375673771,10.14126777648926,0.71299773454666,0.09449090808630,3.07357978820801
464,2399223223,-0.34607607126236,-0.41835141181946,56.58049011230469,-2.50364112854004,0.03257957473397,10.11479568481445,0.07691954821348,-0.17634120583534,2.70696353912354
465,2399231556,-0.34992900490761,-0.42206484079361,56.57870101928711,-0.78711140155792,-0.08782266825438,10.13817596435547,-0.35743385553360,-0.94387185573578,2.37989544868469
466,2399239889,-0.35151645541191,-0.42759820818901,56.57601547241211,2.01640939712524,0.09272018074989,10.23371219635010,-0.08707559108734,-1.17347776889801,2.44521188735962
467,2399248222,-0.35141587257385,-0.42575350403786,56.57522201538086,2.39204430580139,-0.08208614587784,10.17524147033691,0.11905497312546,-0.27808097004890,2.50430393218994
468,2399256555,-0.34646165370941,-0.41860216856003,56.57618713378906,0.02060015872121,-0.03430468589067,10.16118907928467,0.70049816370010,0.37893703579903,2.83915901184082
469,2399264888,-0.34670042991638,-0.41625365614891,56.57595443725586,-2.31830596923828,-0.02358406223357,10.04717922210693,0.07604866474867,-0.21793873608112,2.57074737548828
470,2399273221,-0.34901982545853,-0.41866964101791,56.57300949096680,-1.92312729358673,-0.30558103322983,10.12443351745605,-0.17529100179672,-0.78531962633133,2.40937733650208
471,2399281554,-0.34901827573776,-0.42419153451920,56.57259750366211,0.99586391448975,0.00864266697317,10.13581180572510,0.10588924586773,-1.16243803501129,2.54418540000916
472,2399289887,-0.35126578807831,-0.42761996388435,56.56872940063477,2.82307863235474,0.03047265112400,10.19176006317139,-0.16583938896656,-0.91298103332520,2.38173961639404
473,2399298220,-0.34752705693245,-0.42207139730453,56.57126235961914,1.24467623233795,-0.26154527068138,10.17927932739258,0.55628991127014,0.16285531222820,2.90350151062012
474,2399306553,-0.34278100728989,-0.41576525568962,56.57226181030273,-1.71261417865753,0.02107761800289,10.22443675994873,0.67741972208023,0.27873411774635,2.92076563835144
475,2399314886,-0.34668087959290,-0.41917419433594,56.57125091552734,-2.70677447319031,0.04317767545581,10.16995525360107,-0.36176267266273,-0.90778136253357,2.47430968284607
476,2399323219,-0.35287091135979,-0.41608974337578,56.56180191040039,-0.39414817094803,-0.33508083224297,10.06018733978271,-0.42482492327690,-1.30587780475616,2.35348725318909
477,2399331552,-0.35090628266335,-0.42130163311958,56.56223297119141,2.59536623954773,0.07383529841900,10.34351825714111,0.34510058164597,-1.13623476028442,2.65371155738831
478,2399339885,-0.35253104567528,-0.42000836133957,56.56179428100586,2.64810180664062,0.27232226729393,10.01618194580078,-0.08984193205833,-0.34091266989708,2.62561297416687
479,2399348218,-0.35069721937180,-0.41029292345047,56.56287002563477,-0.24001799523830,-0.40685850381851,10.08631610870361,0.32824644446373,0.66176939010620,2.73465251922607
480,2399356551,-0.34554409980774,-0.40705028176308,56.56344223022461,-2.68218278884888,0.00411827024072,10.14300632476807,0.72521585226059,-0.09217283129692,2.83749389648438
481,2399364884,-0.35073229670525,-0.41208741068840,56.56152725219727,-1.90213370323181,0.12852932512760,10.13658428192139,-0.51744604110718,-1.10588181018829,2.36624312400818
482,2399373217,-0.35552620887756,-0.41888490319252,56.55830383300781,1.24656546115875,-0.30544337630272,10.13117313385010,-0.47235214710236,-1.32873845100403,2.44371342658997
483,2399381550,-0.35179978609085,-0.41958805918694,56.55960083007812,2.94178009033203,0.01878565177321,10.24767684936523,0.55664855241776,-0.58776980638504,2.75514388084412
484,2399389883,-0.35093462467194,-0.41285070776939,56.55819320678711,1.23982846736908,0.11439318954945,10.09467220306396,0.20862793922424,0.32317477464676,2.61311316490173
485,2399398216,-0.34986791014671,-0.40699332952499,56.55806350708008,-1.70633828639984,-0.40321713685989,10.18742942810059,0.23452393710613,0.19879208505154,2.58842110633850
486,2399406549,-0.34726977348328,-0.40755000710487,56.55893707275391,-2.59593844413757,0.02643332257867,10.11717605590820,0.41886961460114,-0.55712246894836,2.73626661300659
487,2399414882,-0.35380980372429,-0.41439864039421,56.55669403076172,-0.27626219391823,0.08038460463285,10.12619495391846,-0.67922538518906,-1.32426869869232,2.32428669929504
488,2399423215,-0.35690590739250,-0.41885641217232,56.55471038818359,2.27104401588440,-0.29246789216995,10.17011833190918,-0.26683631539345,-1.04404890537262,2.55955362319946
489,2399431548,-0.35129353404045,-0.41481545567513,56.55814743041992,2.11466526985168,0.06646281480789,10.18149948120117,0.78233551979065,-0.02060665003955,3.01420617103577
490,2399439881,-0.35058027505875,-0.40939891338348,56.55762100219727,-0.46458902955055,0.11576706916094,10.17710971832275,0.19174817204475,0.16697920858860,2.71469926834106
491,2399448214,-0.35111680626869,-0.40828919410706,56.55786514282227,-2.33763957023621,-0.29187574982643,10.13223934173584,0.04254524409771,-0.37103500962257,2.62894272804260
492,2399456547,-0.35002413392067,-0.41166284680367,56.55630111694336,-1.20096743106842,0.00427909009159,10.12965393066406,0.23713657259941,-0.90529668331146,2.51057910919189
493,2399464880,-0.35391151905060,-0.41654804348946,56.55356216430664,1.57548236846924,0.06860674172640,10.19002628326416,-0.36245423555374,-1.08687603473663,2.26862740516663
494,2399473213,-0.35419729351997,-0.41661730408669,56.55305862426758,2.50803899765015,-0.12631234526634,10.19640731811523,0.07107950747013,-0.50914698839188,2.54838609695435
495,2399481546,-0.35082241892815,-0.40986606478691,56.55554199218750,0.51180714368820,-0.06880584359169,10.14197731018066,0.51361662149429,0.30509114265442,2.90114498138428
496,2399489879,-0.34985670447350,-0.40612435340881,56.55504989624023,-1.96411824226379,-0.00714160222560,10.12547492980957,0.22253648936749,-0.03338815271854,2.78928804397583
497,2399498212,-0.35213723778725,-0.40854096412659,56.55452346801758,-2.00014615058899,-0.21201494336128,10.10581970214844,-0.16722252964973,-0.79285019636154,2.53427243232727
498,2399506545,-0.35304570198059,-0.41343531012535,56.55337905883789,0.54411596059799,-0.07784239947796,10.21224594116211,-0.00372687121853,-1.09509813785553,2.51106595993042
499,2399514878,-0.35412436723709,-0.41551771759987,56.55232620239258,2.49119973182678,0.10834410041571,10.17885971069336,-0.02444878779352,-0.75232845544815,2.47067213058472
500,2399523211,-0.35323768854141,-0.41180574893951,56.55127716064453,1.51858007907867,-0.15617585182190,10.16683483123779,0.21218833327293,-0.04473525658250,2.61508536338806
501,2399531544,-0.34868037700653,-0.40604653954506,56.55387878417969,-1.24676680564880,-0.15167573094368,10.11658954620361,0.65498161315918,0.18580566346645,2.91733360290527
502,2399539877,-0.34781405329704,-0.40694636106491,56.55337905883789,-2.54565024375916,0.11062062531710,10.15874099731445,0.21167603135109,-0.59774655103683,2.69810080528259
503,2399548210,-0.35378333926201,-0.41277843713760,56.55066680908203,-0.71287345886230,-0.19428166747093,10.10790443420410,-0.61209064722061,-1.20214009284973,2.27272558212280
504,2399556543,-0.35389620065689,-0.41810607910156,56.54949951171875,2.06641459465027,-0.13708689808846,10.15668964385986,0.09125071763992,-1.14997673034668,2.62019538879395
505,2399564876,-0.35146301984787,-0.41733446717262,56.55036926269531,2.50226879119873,0.15349937975407,10.22299194335938,0.39981260895729,-0.41019919514656,2.70381307601929
506,2399573209,-0.35070213675499,-0.41108599305153,56.55037307739258,0.13358339667320,-0.13136008381844,10.17296981811523,0.19728083908558,0.26482555270195,2.65061235427856
507,2399581542,-0.34740826487541,-0.40810543298721,56.55119323730469,-2.25081849098206,-0.18574076890945,10.11711120605469,0.50273060798645,-0.14514306187630,2.69927954673767
508,2399589875,-0.34881508350372,-0.41151109337807,56.54906082153320,-1.76272523403168,0.05345720425248,10.06838607788086,-0.06456067413092,-0.90637248754501,2.48076415061951
509,2399598208,-0.35424700379372,-0.41702383756638,56.54605102539062,0.83972603082657,-0.08625116199255,10.19170093536377,-0.54710727930069,-1.16182327270508,2.23394560813904
510,2399606541,-0.35286074876785,-0.41793593764305,56.54576110839844,2.63516855239868,-0.10248850286007,10.15591335296631,0.27207443118095,-0.61403733491898,2.65453124046326
511,2399614874,-0.34999281167984,-0.41342335939407,56.54738998413086,1.37743401527405,0.11360446363688,10.17746543884277,0.45378172397614,0.03765292093158,2.80009675025940
512,2399623207,-0.35032775998116,-0.40734377503395,56.54647827148438,-1.40185344219208,-0.15742695331573,10.12394905090332,0.06368979066610,0.24798424541950,2.60077977180481
513,2399631540,-0.34949839115143,-0.40599721670151,56.54658508300781,-2.36094784736633,-0.21290563046932,10.15363216400146,0.20716795325279,-0.34101516008377,2.61365103721619
514,2399639873,-0.35097399353981,-0.41107305884361,56.54328918457031,-0.45134997367859,0.09289190918207,10.16531467437744,-0.07360250502825,-1.11169624328613,2.40136027336121
515,2399648206,-0.35493764281273,-0.41485098004341,56.54132461547852,1.93571925163269,-0.09170075505972,10.18588256835938,-0.37044581770897,-0.95578229427338,2.36030030250549
516,2399656539,-0.35180675983429,-0.41196903586388,56.54101181030273,2.05606460571289,-0.16844047605991,10.18872642517090,0.48323813080788,-0.15057328343391,2.69830584526062
517,2399664872,-0.34785115718842,-0.40695452690125,56.54272842407227,-0.21068042516708,0.04071667417884,10.16742801666260,0.58226275444031,0.09707795083523,2.80591154098511
518,2399673205,-0.34865537285805,-0.40591806173325,56.54162979125977,-2.10383176803589,-0.06245921552181,10.12023067474365,0.00922112446278,-0.36263352632523,2.61938858032227
519,2399681538,-0.35052123665810,-0.40937209129333,56.54083251953125,-1.31238949298859,-0.19209042191505,10.12144756317139,-0.11728758364916,-0.91737389564514,2.50055122375488
520,2399689871,-0.35055568814278,-0.41423249244690,56.53898239135742,1.14152407646179,0.06594203412533,10.19179534912109,0.10127869248390,-1.09070539474487,2.50865817070007
521,2399698204,-0.35151097178459,-0.41515547037125,56.53907775878906,2.28562402725220,0.08968833088875,10.17802906036377,-0.00741532118991,-0.61311513185501,2.60934782028198
522,2399706537,-0.34916672110558,-0.41076838970184,56.54083633422852,0.81225711107254,-0.21584349870682,10.15258693695068,0.38664686679840,0.03562940284610,2.85455298423767
523,2399714870,-0.34503811597824,-0.40714389085770,56.54317092895508,-1.52602219581604,0.02094833180308,10.09279918670654,0.60567420721054,-0.07017020136118,2.88377857208252
524,2399723203,-0.34786531329155,-0.40801653265953,56.54163742065430,-1.85567700862885,0.00854191090912,10.13518714904785,-0.23561255633831,-0.59592801332474,2.40794324874878
525,2399731536,-0.35153704881668,-0.41135445237160,56.53886032104492,0.23759628832340,-0.30686736106873,10.14434814453125,-0.33673757314682,-0.90278655290604,2.26450324058533
526,2399739869,-0.34867659211159,-0.41391217708588,56.53820419311523,2.16343450546265,0.05808571726084,10.22084903717041,0.44976031780243,-0.81052398681641,2.65921854972839
527,2399748202,-0.34987580776215,-0.40984401106834,56.53890991210938,1.53433001041412,0.10077197104692,10.14639949798584,-0.03641063719988,-0.01489467825741,2.68854713439941
528,2399756535,-0.34856280684471,-0.40485689043999,56.53842163085938,-0.85297906398773,-0.42069596052170,10.12195301055908,0.26430046558380,0.11315087974072,2.74150443077087
529,2399764868,-0.34384185075760,-0.40340611338615,56.54177856445312,-2.23590588569641,-0.05413065850735,10.15486526489258,0.67606210708618,-0.33115363121033,3.00403738021851
530,2399773201,-0.34877935051918,-0.40742692351341,56.53895568847656,-0.88903719186783,0.15391305088997,10.19614887237549,-0.48865559697151,-0.98377871513367,2.36542344093323
531,2399781534,-0.35265660285950,-0.41368478536606,56.53788375854492,1.62978041172028,-0.29538047313690,10.19167232513428,-0.35912442207336,-1.25365042686462,2.46624112129211
532,2399789867,-0.34874135255814,-0.41237744688988,56.53801727294922,2.20751285552979,0.06792154908180,10.19441223144531,0.57801085710526,-0.34244954586029,2.74894571304321
533,2399798200,-0.34793692827225,-0.40708780288696,56.53835296630859,0.34530651569366,0.10844025015831,10.15118694305420,0.20396615564823,0.13199014961720,2.64067387580872
534,2399806533,-0.34754940867424,-0.40418261289597,56.53797149658203,-1.81414687633514,-0.28579974174500,10.12907981872559,0.15235349535942,-0.13786862790585,2.67584228515625
535,2399814866,-0.34545961022377,-0.40570506453514,56.53874206542969,-1.72343039512634,-0.01522468868643,10.15004634857178,0.35862490534782,-0.68634623289108,2.69062185287476
536,2399823199,-0.35028180480003,-0.41169461607933,56.53730392456055,0.56449592113495,0.04688566923141,10.15001487731934,-0.47359439730644,-1.22332310676575,2.48196816444397
537,2399831532,-0.35187542438507,-0.41381511092186,56.53728866577148,2.29824256896973,-0.12756742537022,10.18544292449951,-0.08564119040966,-0.75832211971283,2.59761619567871
538,2399839865,-0.34841591119766,-0.40940177440643,56.53844070434570,1.42214953899384,-0.02277672849596,10.17986488342285,0.52375990152359,0.03716625645757,2.85089015960693
539,2399848198,-0.34748199582100,-0.40429681539536,56.53883361816406,-0.98120743036270,0.03209462016821,10.13718128204346,0.21895046532154,0.10896295309067,2.65068936347961
540,2399856531,-0.34880545735359,-0.40328076481819,56.53644943237305,-2.06928586959839,-0.21396289765835,10.10331153869629,-0.05485288798809,-0.36637321114540,2.45871067047119
541,2399864864,-0.34855622053146,-0.40777739882469,56.53589248657227,-0.61611104011536,-0.11542873829603,10.18735122680664,0.13695931434631,-1.04361367225647,2.53032779693604
542,2399873197,-0.35032689571381,-0.41157582402229,56.53449249267578,1.57038104534149,0.14783860743046,10.20768642425537,-0.10761821269989,-0.95918911695480,2.47559046745300
543,2399881530,-0.35199621319771,-0.41071698069572,56.53514480590820,1.89270269870758,-0.15860670804977,10.15361785888672,-0.09337670356035,-0.40100365877151,2.67904424667358
544,2399889863,-0.34682667255402,-0.40492853522301,56.53512954711914,0.00113411294296,-0.15031407773495,10.15168380737305,0.72878903150558,0.20505477488041,2.88253641128540
545,2399898196,-0.34583246707916,-0.40340718626976,56.53566360473633,-1.81912934780121,0.08907705545425,10.11291408538818,0.22616088390350,-0.32045966386795,2.66412353515625
546,2399906529,-0.34857866168022,-0.40720075368881,56.53230285644531,-1.29261171817780,-0.22268511354923,10.15531635284424,-0.22536684572697,-0.95227319002151,2.34798002243042
547,2399914862,-0.34855699539185,-0.41188803315163,56.53175735473633,0.85322576761246,-0.10340224206448,10.12588787078857,0.10778469592333,-1.06546247005463,2.53132653236389
548,2399923195,-0.34838128089905,-0.41431584954262,56.53092956542969,2.06371736526489,0.12779064476490,10.18143844604492,0.12834013998508,-0.79191535711288,2.62047743797302
549,2399931528,-0.34809723496437,-0.41110128164291,56.53110122680664,0.91674333810806,-0.13696281611919,10.15081596374512,0.14150583744049,-0.11733880639076,2.62232112884521
550,2399939861,-0.34414318203926,-0.40656754374504,56.53261947631836,-1.20890402793884,-0.11961283534765,10.13006401062012,0.58134073019028,0.05660746246576,2.83856964111328
551,2399948194,-0.34525230526924,-0.40729972720146,56.53156661987305,-1.70625758171082,0.05876753106713,10.14065647125244,-0.02693337015808,-0.59152233600616,2.47295188903809
552,2399956527,-0.34945175051689,-0.41235727071762,56.52790832519531,0.01464610639960,-0.13163238763809,10.16047382354736,-0.40031206607819,-1.10693192481995,2.27510762214661
553,2399964860,-0.34951582551003,-0.41505795717239,56.52742004394531,1.84088289737701,-0.08542998135090,10.17813014984131,0.09802568703890,-0.82709652185440,2.53908801078796
554,2399973193,-0.34769272804260,-0.41206985712051,56.52816772460938,1.54155385494232,0.09116484969854,10.20617198944092,0.32540324330330,-0.13476929068565,2.73429369926453
555,2399981526,-0.34727331995964,-0.40740862488747,56.52908706665039,-0.56210917234421,-0.10323496162891,10.11108589172363,0.15868018567562,0.05432778969407,2.71221446990967
556,2399989859,-0.34611418843269,-0.40579742193222,56.52870178222656,-1.94566023349762,-0.22258068621159,10.14343929290771,0.24435979127884,-0.29629266262054,2.67740488052368
557,2399998192,-0.34731456637383,-0.41000777482986,56.52838516235352,-0.96208924055099,0.00336777581833,10.15852737426758,-0.03660274296999,-1.00725412368774,2.55938720703125
558,2400006525,-0.35058024525642,-0.41513338685036,56.52596282958984,1.26073741912842,-0.07670278847218,10.15601921081543,-0.28719958662987,-1.11961102485657,2.42492532730103
559,2400014858,-0.34958875179291,-0.41617795825005,56.52684402465820,2.05376958847046,-0.14880068600178,10.17795658111572,0.22614806890488,-0.62912404537201,2.70412063598633
560,2400023191,-0.34618616104126,-0.41069939732552,56.52766418457031,0.47704336047173,0.00451439619064,10.14075374603271,0.51571702957153,0.16797815263271,2.76887345314026
561,2400031524,-0.34559518098831,-0.40791541337967,56.52832031250000,-1.55385255813599,-0.11242613941431,10.17517089843750,0.17909473180771,-0.17065484821796,2.68173360824585
562,2400039857,-0.34590974450111,-0.40908360481262,56.52867507934570,-1.69575488567352,-0.07514759898186,10.16824436187744,0.06767281144857,-0.63573253154755,2.58227372169495
563,2400048190,-0.34884378314018,-0.41379910707474,56.52758026123047,0.28118926286697,0.00674465391785,10.16181945800781,-0.24512821435928,-1.06762683391571,2.46542119979858
564,2400056523,-0.35001748800278,-0.41634804010391,56.52741622924805,2.06343102455139,-0.06898563355207,10.16562747955322,-0.03514273092151,-0.80943548679352,2.58033967018127
565,2400064856,-0.34840849041939,-0.41327348351479,56.52790832519531,1.45637309551239,0.03437878564000,10.11379337310791,0.30007076263428,-0.13448753952980,2.65950036048889
566,2400073189,-0.34734255075455,-0.40831986069679,56.52780914306641,-0.68592429161072,-0.08880237489939,10.13908767700195,0.23460081219673,0.10696505010128,2.69610333442688
567,2400081522,-0.34629085659981,-0.40785866975784,56.52812957763672,-1.87564611434937,-0.08789328485727,10.13271617889404,0.23431903123856,-0.44742947816849,2.63926506042480
568,2400089855,-0.34819233417511,-0.41132926940918,56.52572250366211,-0.73283153772354,-0.05500136315823,10.12089729309082,-0.12380639463663,-0.91572165489197,2.45924830436707
569,2400098188,-0.34949901700020,-0.41317960619926,56.52518844604492,1.42853081226349,-0.12865146994591,10.15208244323730,-0.05044723674655,-0.72545927762985,2.53278684616089
570,2400106521,-0.34690868854523,-0.40905261039734,56.52855682373047,2.31269478797913,-0.06152779608965,10.14332675933838,0.42079064249992,-0.00411108462140,3.08210945129395
571,2400114854,-0.34516349434853,-0.40813842415810,56.52830123901367,1.34317004680634,0.24676916003227,10.32079410552979,0.31628456711769,-0.39416462182999,2.56987595558167
572,2400123187,-0.34778329730034,-0.40600037574768,56.52542877197266,0.03944575786591,-0.24435847997665,10.10552501678467,-0.21181693673134,-0.22185771167278,2.36916327476501
573,2400131520,-0.34277808666229,-0.40648263692856,56.52725601196289,-0.68059831857681,-0.23347422480583,10.14733219146729,0.70872020721436,-0.56321859359741,2.81648969650269
574,2400139853,-0.34424081444740,-0.40762749314308,56.52684402465820,-0.29914367198944,0.30583816766739,10.18917274475098,-0.06827474385500,-0.62090188264847,2.56764793395996
575,2400148186,-0.34948527812958,-0.40958613157272,56.52533340454102,0.77133488655090,-0.28646859526634,10.09266757965088,-0.52481001615524,-0.73797172307968,2.41629338264465
576,2400156519,-0.34521281719208,-0.40988892316818,56.52669906616211,1.01838278770447,-0.07302628457546,10.12322330474854,0.62053042650223,-0.51939260959625,2.78032279014587
577,2400164852,-0.34351465106010,-0.40427520871162,56.52938461303711,-0.65850740671158,0.16200093924999,10.16697216033936,0.31351825594902,0.16841360926628,2.92563247680664
578,2400173185,-0.34520211815834,-0.40468835830688,56.52584075927734,-1.27581655979156,-0.09430583566427,10.11412334442139,-0.09906305372715,-0.53091907501221,2.36688351631165
579,2400181518,-0.34449142217636,-0.40829432010651,56.52650451660156,0.04045962914824,-0.12646092474461,10.21146202087402,0.19261905550957,-0.93629002571106,2.67599606513977
580,2400189851,-0.34518143534660,-0.41142207384109,56.52273941040039,1.57594275474548,0.20486383140087,10.07381629943848,0.01982541568577,-0.86305880546570,2.24060487747192
581,2400198184,-0.34696212410927,-0.40655159950256,56.52209854125977,0.69356667995453,-0.34602889418602,10.20795917510986,-0.10667048394680,0.08117151260376,2.52771544456482
582,2400206517,-0.34167632460594,-0.40400046110153,56.52251434326172,-0.96913641691208,-0.12095045298338,10.12159347534180,0.73994404077530,-0.17234538495541,2.70056009292603
583,2400214850,-0.34272623062134,-0.40135022997856,56.52380752563477,-1.89584171772003,-0.02153105661273,10.11565494537354,-0.01768662966788,-0.18658690154552,2.75816655158997
584,2400223183,-0.34759011864662,-0.40703049302101,56.52149581909180,-0.35888975858688,-0.12204521894455,10.14282989501953,-0.47992116212845,-1.17427182197571,2.42956137657166
585,2400231516,-0.34836173057556,-0.41004690527916,56.52246093750000,1.48974907398224,-0.28499358892441,10.16547679901123,0.01611135341227,-0.86549216508865,2.71285486221313
586,2400239849,-0.34311336278915,-0.40748080611229,56.52350234985352,1.08604395389557,0.10562834888697,10.18503761291504,0.73792046308517,-0.18305212259293,2.94824957847595
587,2400248182,-0.34637379646301,-0.40632113814354,56.52149581909180,-0.19498696923256,0.14137420058250,10.18237972259521,-0.28507363796234,-0.36294093728065,2.35912227630615
588,2400256515,-0.34493631124496,-0.40409782528877,56.52135467529297,-0.94390588998795,-0.39797356724739,10.17729282379150,0.27619829773903,-0.21901452541351,2.53609108924866
589,2400264848,-0.34218513965607,-0.40648803114891,56.52439880371094,-0.33433979749680,0.39487043023109,10.24245738983154,0.44041115045547,-0.79164630174637,2.96261930465698
590,2400273181,-0.35195869207382,-0.41292190551758,56.51646423339844,1.69317138195038,0.00129421520978,10.13101863861084,-1.07360792160034,-1.25987446308136,1.78992271423340
591,2400281514,-0.34705606102943,-0.40971833467484,56.51897811889648,2.11745405197144,-0.43511027097702,10.22763347625732,0.69650226831436,-0.12147551774979,2.90122199058533
592,2400289847,-0.34102910757065,-0.40642711520195,56.52061843872070,-0.00409750174731,0.57615613937378,10.10811710357666,0.83187353610992,-0.08259310573339,2.85188889503479
593,2400298180,-0.34898829460144,-0.40217953920364,56.51569747924805,-2.69929289817810,-0.46284487843513,10.06693935394287,-0.85258257389069,0.01042499300092,2.01207494735718
594,2400306513,-0.34205275774002,-0.40415331721306,56.51731491088867,-2.28907799720764,-0.42944741249084,10.10746192932129,0.93968379497528,-0.72825109958649,2.98467326164246
595,2400314846,-0.34629929065704,-0.40991586446762,56.51608276367188,0.65590667724609,0.57460075616837,10.18888092041016,-0.40246367454529,-1.19361054897308,2.44533991813660
596,2400323179,-0.35408851504326,-0.41250970959663,56.51276397705078,2.57445025444031,-0.40968856215477,10.22488975524902,-0.83362817764282,-0.80652821063995,2.37057185173035
597,2400331512,-0.34591916203499,-0.40702384710312,56.51795959472656,1.63769984245300,-0.28349542617798,10.14689731597900,1.09190940856934,0.15102155506611,3.22808551788330
598,2400339845,-0.34105172753334,-0.40246766805649,56.52024459838867,-0.75284135341644,0.34290185570717,10.16472911834717,0.69312119483948,0.06498332321644,2.95519161224365
599,2400348178,-0.34661531448364,-0.40595498681068,56.51767730712891,-1.05221283435822,-0.12517590820789,10.27186203002930,-0.56332111358643,-0.91982001066208,2.29111647605896
600,2400356511,-0.34656929969788,-0.41424453258514,56.51336669921875,1.02093291282654,-0.30882713198662,10.07912445068359,0.10955207794905,-1.48074615001678,2.26573276519775
601,2400364844,-0.34341070055962,-0.41056543588638,56.51437377929688,1.55142712593079,0.03698513284326,10.26265716552734,0.48569709062576,-0.06279329210520,2.72276711463928
602,2400373177,-0.34200170636177,-0.40843415260315,56.51458358764648,-0.23012903332710,0.20931583642960,10.09092330932617,0.27665936946869,-0.22339454293251,2.76290535926819
603,2400381510,-0.34718531370163,-0.40764483809471,56.51444244384766,-0.85758781433105,-0.37942340970039,10.07778453826904,-0.51628053188324,-0.40847021341324,2.58177423477173
604,2400389843,-0.34036916494370,-0.40886583924294,56.51505661010742,-0.59415787458420,-0.11970202624798,10.25918292999268,0.92720961570740,-0.63089144229889,3.03113746643066
605,2400398176,-0.34291547536850,-0.41112145781517,56.51435089111328,0.00923430919647,0.66458719968796,10.09474372863770,-0.19857437908649,-0.77381891012192,2.51554846763611
606,2400406509,-0.35389673709869,-0.41148558259010,56.50785064697266,1.52040004730225,-0.65155357122421,10.15297603607178,-1.21953225135803,-0.52740985155106,2.01233100891113
607,2400414842,-0.33974036574364,-0.41000032424927,56.51030349731445,1.84204673767090,-0.15165330469608,10.27731037139893,1.80813467502594,-0.32674804329872,2.89440870285034
608,2400423175,-0.34062838554382,-0.40763795375824,56.50624084472656,0.19330251216888,0.98394554853439,10.10522651672363,-0.00231808796525,-0.18817494809628,2.34511113166809
609,2400431508,-0.35348263382912,-0.40536853671074,56.50043869018555,-1.15803134441376,-1.03926289081573,10.07646560668945,-1.44124901294708,-0.22569984197617,1.90388071537018
610,2400439841,-0.33603206276894,-0.40210866928101,56.50814819335938,-2.22592997550964,-0.43806725740433,10.18666458129883,2.20787048339844,-0.09483671188354,3.68012571334839
611,2400448174,-0.34276932477951,-0.40971061587334,56.50393676757812,-0.78416973352432,1.19071185588837,10.13787651062012,-0.70419931411743,-1.41148519515991,2.08804702758789
612,2400456507,-0.36042150855064,-0.41302862763405,56.49807357788086,1.75008881092072,-0.93933880329132,10.20359992980957,-2.01966953277588,-0.88734108209610,2.16307067871094
613,2400464840,-0.34595206379890,-0.41234052181244,56.50013732910156,2.04639315605164,-0.71720427274704,10.15415859222412,1.84425055980682,-0.42244279384613,2.84612607955933
614,2400473173,-0.33750557899475,-0.40725859999657,56.50239181518555,0.45062977075577,0.86621648073196,10.10323810577393,1.12446486949921,0.13160593807697,2.96551370620728
615,2400481506,-0.34626951813698,-0.40376123785973,56.49948501586914,-1.50376629829407,-0.34379461407661,10.20004844665527,-0.94599777460098,-0.08241380751133,2.25241351127625
616,2400489839,-0.34277254343033,-0.40692931413651,56.50205612182617,-1.07271921634674,-0.21475213766098,10.07530975341797,0.52844732999802,-0.86451894044876,3.11276984214783
617,2400498172,-0.34643349051476,-0.41278746724129,56.49983596801758,1.17674016952515,0.24086153507233,10.23567581176758,-0.33358699083328,-1.20413792133331,2.32999897003174
618,2400506505,-0.34383428096771,-0.41133767366409,56.49847412109375,2.08958792686462,-0.05686175078154,10.12869930267334,0.41761451959610,-0.30881807208061,2.67845511436462
619,2400514838,-0.34515473246574,-0.40910562872887,56.49943542480469,0.74536997079849,0.37496209144592,10.02763366699219,-0.05180478841066,-0.23653465509415,2.71692752838135
620,2400523171,-0.34668210148811,-0.40512937307358,56.49539566040039,-0.93752688169479,-0.69129925966263,10.30072593688965,-0.08028782159090,0.00786357000470,2.36967515945435
621,2400531504,-0.33802214264870,-0.40690919756889,56.49809265136719,-0.38401576876640,0.54491293430328,10.09934329986572,1.14713358879089,-0.71982401609421,2.92317342758179
622,2400539837,-0.35385081171989,-0.40814790129662,56.48760986328125,1.05276250839233,0.08249651640654,10.04207134246826,-1.80253779888153,-0.61977481842041,1.59330797195435
623,2400548170,-0.34953027963638,-0.40669232606888,56.48987197875977,0.78881752490997,-1.02369725704193,10.35590839385986,0.62774080038071,-0.33009064197540,2.87208557128906
624,2400556503,-0.33840870857239,-0.39874655008316,56.49464797973633,-0.71502071619034,0.68737804889679,9.93647861480713,1.44612848758698,0.47806406021118,3.38615036010742
625,2400564836,-0.35216447710991,-0.39960461854935,56.48984527587891,-2.51459836959839,-0.18255391716957,10.47850227355957,-1.54657483100891,-0.60263895988464,2.02516388893127
626,2400573169,-0.35002663731575,-0.40096545219421,56.48881912231445,-1.14981567859650,-0.82522076368332,9.97788524627686,0.36052033305168,-0.64946174621582,2.68347525596619
627,2400581502,-0.33995440602303,-0.40674212574959,56.49166870117188,0.15118969976902,0.56054329872131,10.22863006591797,1.31780135631561,-1.19904077053070,2.93831157684326
628,2400589835,-0.35534852743149,-0.40536171197891,56.48382568359375,1.09068322181702,0.10690961033106,10.18477344512939,-1.74704468250275,-0.31907653808594,1.88511812686920
629,2400598168,-0.35057550668716,-0.40190547704697,56.48408126831055,0.58331364393234,-1.03046035766602,10.02808570861816,0.67952007055283,-0.08881735801697,2.63053107261658
630,2400606501,-0.33908385038376,-0.40314686298370,56.49007415771484,-0.28538480401039,0.57158452272415,10.18130111694336,1.49356579780579,-0.63693630695343,3.47659397125244
631,2400614834,-0.35111168026924,-0.40328806638718,56.48513031005859,0.00191849353723,0.15927484631538,10.11463451385498,-1.34050810337067,-0.51688247919083,2.00582504272461
632,2400623167,-0.35049593448639,-0.40369722247124,56.48716354370117,0.73729628324509,-0.61287933588028,10.05761909484863,0.18296247720718,-0.53857773542404,3.13830709457397
633,2400631500,-0.34654057025909,-0.40872526168823,56.48867034912109,1.38302695751190,0.34571111202240,10.19538784027100,0.58295440673828,-1.10746991634369,2.77512335777283
634,2400639833,-0.34865903854370,-0.40343841910362,56.48523330688477,1.02605211734772,0.06053335592151,10.10709381103516,-0.15131609141827,0.15709209442139,2.32351827621460
635,2400648166,-0.34580585360527,-0.40031957626343,56.48815155029297,-0.03263702616096,0.15200085937977,10.36392116546631,0.45274436473846,-0.13122172653675,2.95177173614502
636,2400656499,-0.35157829523087,-0.40457043051720,56.47779846191406,0.94129920005798,-0.12258737534285,10.00181961059570,-0.59608167409897,-0.97814363241196,1.64258956909180
637,2400664832,-0.34389770030975,-0.40817594528198,56.47629928588867,1.81142294406891,-0.39851430058479,10.18527317047119,1.02792477607727,-0.93595695495605,2.41711306571960
638,2400673165,-0.34127381443977,-0.39813694357872,56.47924423217773,-0.15060311555862,0.71639871597290,10.20771884918213,0.42319843173027,0.73725450038910,3.14322543144226
639,2400681498,-0.35420143604279,-0.39345681667328,56.47507095336914,-2.23285484313965,-0.58781099319458,10.14344215393066,-1.44662809371948,0.06027029827237,2.10354351997375
640,2400689831,-0.34224167466164,-0.39481404423714,56.47725296020508,-2.36507582664490,-0.68824785947800,9.91007232666016,1.54343712329865,-0.64088106155396,3.15203690528870
641,2400698164,-0.34355983138084,-0.39426833391190,56.47749710083008,-1.27251517772675,0.94397252798080,10.34633636474609,-0.05144619569182,-0.43804186582565,2.62855863571167
642,2400706497,-0.36020636558533,-0.40138894319534,56.46759796142578,1.32057654857635,-0.49216005206108,10.28945064544678,-1.90125489234924,-1.33912503719330,1.66894686222076
643,2400714830,-0.35315048694611,-0.40122005343437,56.46701431274414,1.98015129566193,-0.90785700082779,10.01187992095947,0.95389962196350,-0.48156040906906,2.53068637847900
644,2400723163,-0.33842632174492,-0.39630731940269,56.47442626953125,0.24491170048714,0.69538617134094,10.46597194671631,1.88267183303833,0.10409625619650,3.75164031982422
645,2400731496,-0.35288280248642,-0.39487344026566,56.46931838989258,-1.10550749301910,0.05540291965008,10.07688808441162,-1.63235688209534,-0.32702973484993,1.98827946186066
646,2400739829,-0.34732487797737,-0.39846199750900,56.47138214111328,-1.60781347751617,-1.13532614707947,9.92277908325195,0.77611136436462,-0.91651576757431,3.08751416206360
647,2400748162,-0.34166291356087,-0.40081033110619,56.47206878662109,-0.37790393829346,0.86723488569260,10.18726730346680,0.78589594364166,-0.78596001863480,2.68022251129150
648,2400756495,-0.35245236754417,-0.40219613909721,56.46441650390625,0.68857705593109,-0.30367925763130,10.05105209350586,-1.19258606433868,-0.65179258584976,1.95510900020599
649,2400764828,-0.34534206986427,-0.40198820829391,56.46757507324219,0.40761357545853,-0.31221562623978,10.17463397979736,0.96150708198547,-0.48112499713898,2.98019027709961
650,2400773161,-0.34196862578392,-0.39668571949005,56.46603012084961,-1.65131568908691,0.43548962473869,10.09684848785400,0.51305305957794,0.14999696612358,2.71180486679077
651,2400781494,-0.34744605422020,-0.39514273405075,56.46226119995117,-2.17468070983887,-0.15813238918781,10.12838172912598,-0.55330586433411,-0.31668159365654,2.14816331863403
652,2400789827,-0.34720450639725,-0.39871609210968,56.45934295654297,-0.93791776895523,-0.11091116070747,10.18030357360840,0.13529439270496,-0.92927157878876,2.55791449546814
653,2400798160,-0.35278451442719,-0.40396651625633,56.45608139038086,1.40636885166168,0.17052482068539,10.21212005615234,-0.56601059436798,-1.13100945949554,2.20402812957764
654,2400806493,-0.35459703207016,-0.40315243601799,56.45326232910156,2.01544117927551,-0.40697634220123,9.93172073364258,-0.11240807920694,-0.40256613492966,2.57284760475159
655,2400814826,-0.34155192971230,-0.39652100205421,56.44876480102539,-1.93894541263580,-0.00622614240274,11.06871986389160,1.66830646991730,0.29561391472816,2.06371355056763
656,2400823159,-0.34146571159363,-0.38080006837845,56.45465469360352,-8.77141094207764,-0.78863477706909,8.66105175018311,0.12379359453917,1.37971055507660,3.58606958389282
657,2400831492,-0.35264331102371,-0.38804799318314,56.45653533935547,-8.72950458526611,-0.80475693941116,11.00393295288086,-1.23392748832703,-1.37398612499237,2.81987142562866
658,2400839825,-0.34613570570946,-0.41123777627945,56.43957138061523,-0.45325273275375,0.64172214269638,10.14500522613525,0.88123220205307,-3.33611345291138,0.84534662961960
659,2400848158,-0.37317612767220,-0.42042174935341,56.44787216186523,7.68234682083130,0.09022632241249,9.37445449829102,-3.13037967681885,-1.61178863048553,3.59006524085999
660,2400856491,-0.37878808379173,-0.42287600040436,56.44155502319336,6.93771362304688,-0.49317657947540,11.39942073822021,-0.57051867246628,-0.82863324880600,2.03453850746155
661,2400864824,-0.35686808824539,-0.40963530540466,56.44095611572266,-1.05524563789368,-1.31989479064941,9.80349540710449,2.73805928230286,1.08466041088104,2.53739714622498
662,2400873157,-0.32561609148979,-0.39409130811691,56.46211624145508,-5.34616804122925,0.59243005514145,9.83302211761475,3.88316917419434,1.33270847797394,5.36625909805298
663,2400881490,-0.34371781349182,-0.41800582408905,56.45171356201172,-1.84170913696289,1.95681333541870,10.35125350952148,-2.07433032989502,-3.36608171463013,1.33475768566132
664,2400889823,-0.37668389081955,-0.43117275834084,56.44696426391602,5.30888938903809,-0.18106070160866,10.29477214813232,-3.85364913940430,-2.12220358848572,2.20851063728333
665,2400898156,-0.39062088727951,-0.43915241956711,56.43360900878906,8.20517539978027,-0.12415552139282,9.73184776306152,-1.57813131809235,-1.44908690452576,0.99022066593170
666,2400906489,-0.38560077548027,-0.41840022802353,56.43621063232422,2.36959862709045,-1.48020923137665,10.09321308135986,0.71248555183411,1.98950886726379,3.17949485778809
667,2400914822,-0.33370336890221,-0.39987516403198,56.45050048828125,-3.88745689392090,-0.92860060930252,10.40933513641357,6.34725999832153,1.70972490310669,4.32803773880005
668,2400923155,-0.32290574908257,-0.40613231062889,56.45103073120117,-4.33989763259888,3.41979098320007,10.08097553253174,1.41090893745422,-1.25487983226776,2.79574298858643
669,2400931488,-0.37595227360725,-0.42051506042480,56.43698883056641,1.23086309432983,-0.10947053134441,10.20791816711426,-6.27114534378052,-2.21748828887939,0.90405440330505
670,2400939821,-0.40383711457253,-0.42428550124168,56.43051147460938,6.10049533843994,-0.65620964765549,10.25441646575928,-3.24856376647949,-0.96233963966370,2.03638291358948
671,2400948154,-0.40541923046112,-0.42098855972290,56.42655181884766,3.89171242713928,-1.16793620586395,10.21628093719482,-0.08769033104181,-0.10423712432384,2.12549471855164
672,2400956487,-0.37024620175362,-0.39683645963669,56.42932510375977,-3.48451304435730,-2.07686376571655,10.00183963775635,4.33331394195557,2.41470527648926,3.14565849304199
673,2400964820,-0.31224986910820,-0.38285753130913,56.45434188842773,-7.87659645080566,1.32427656650543,10.16330242156982,7.08616590499878,1.15698218345642,5.61078596115112
674,2400973153,-0.35298141837120,-0.39579021930695,56.43364715576172,-7.62788343429565,1.87769091129303,9.94723701477051,-4.79420375823975,-2.05791163444519,0.34276968240738
675,2400981486,-0.38377708196640,-0.41012021899223,56.42899703979492,-2.94978713989258,-2.10850071907043,10.36309814453125,-3.59258866310120,-2.21910214424133,2.03195190429688
676,2400989819,-0.37553098797798,-0.41914251446724,56.41663742065430,1.78927481174469,-1.22345066070557,10.11350059509277,1.09098708629608,-1.62943673133850,1.26898038387299
677,2400998152,-0.34273913502693,-0.41040635108948,56.42461395263672,1.83213186264038,-0.53451764583588,10.45733261108398,4.04825305938721,0.53953820466995,3.56486105918884
678,2401006485,-0.33182594180107,-0.41259306669235,56.43495941162109,-2.36183857917786,1.95899534225464,10.07999420166016,1.43585717678070,-0.81428933143616,4.04451370239258
679,2401014818,-0.35728165507317,-0.40454983711243,56.43108749389648,-5.80826187133789,-1.04000389575958,9.53969097137451,-2.95179700851440,0.46459096670151,2.14181065559387
680,2401023151,-0.34560900926590,-0.39929962158203,56.43722915649414,-4.02762842178345,-1.48353469371796,9.94406986236572,1.51964128017426,0.05378989130259,3.48064136505127
681,2401031484,-0.33294260501862,-0.42724767327309,56.43187332153320,0.05035901069641,1.80135154724121,11.19809436798096,1.62189340591431,-3.85239410400391,1.93805003166199
682,2401039817,-0.35422974824905,-0.43093919754028,56.41776275634766,1.74880862236023,-0.02701883390546,9.93445205688477,-2.45700716972351,-1.01710283756256,0.94928926229477
683,2401048150,-0.34477582573891,-0.41049158573151,56.42211532592773,-1.62543761730194,-1.32624566555023,10.23180484771729,1.24497985839844,1.94622075557709,3.13817882537842
684,2401056483,-0.32840195298195,-0.41046616435051,56.42694091796875,-4.70180845260620,0.66026633977890,8.54353904724121,2.08423018455505,-0.58417105674744,3.23835611343384
685,2401064816,-0.34214830398560,-0.42447736859322,56.42441558837891,-6.44359207153320,-0.34702572226524,11.12634944915771,-1.54467940330505,-2.18306303024292,2.28558421134949
686,2401073149,-0.35179954767227,-0.42030882835388,56.42619323730469,-0.26998424530029,-0.32960215210915,10.73797512054443,-1.04522728919983,-0.11978496611118,2.63383483886719
687,2401081482,-0.35016673803329,-0.44486260414124,56.42456817626953,8.43260955810547,0.44872450828552,10.28090286254883,0.30237606167793,-3.44894409179688,2.38596630096436
