sep=,
DeviceTag:,left thigh
FirmwareVersion:,2.2.1
AppVersion:,2023.6.0
StartTime: ,2025-04-02_17:16:50_000 PDT
© Movella Technologies B. V. 2005-2025

PacketCounter,SampleTimeFine,Euler_X,Euler_Y,Euler_Z,Acc_X,Acc_Y,Acc_Z,Gyr_X,Gyr_Y,Gyr_Z
0,2465347127,-0.33515092730522,-0.41551217436790,55.65893173217773,0.00000000000000,0.00000000000000,0.00000000000000,0.00000000000000,0.00000000000000,0.00000000000000
1,2465355460,-0.33417379856110,-0.41959854960442,55.68041610717773,0.09614702314138,-0.03427343070507,10.14989566802979,0.13605001568794,-0.50498467683792,2.57531952857971
2,2465363793,-0.32564753293991,-0.43902590870857,55.69039916992188,0.08209578692913,-0.06527514755726,10.12242984771729,0.01156482752413,-0.42286539077759,2.51141166687012
3,2465372126,-0.32441213726997,-0.44188341498375,55.71171951293945,0.07721472531557,-0.04686668515205,10.13158607482910,0.16740185022354,-0.35749790072441,2.55726122856140
4,2465380459,-0.31842321157455,-0.45486766099930,55.70587921142578,0.06873074918985,-0.03565532714128,10.12792301177979,0.14573217928410,-0.59683728218079,2.62613773345947
5,2465388792,-0.31823405623436,-0.45934709906578,55.72729110717773,0.09153205156326,-0.04658193886280,10.15353679656982,0.04250682517886,-0.55237096548080,2.56714844703674
6,2465397125,-0.30683729052544,-0.46730345487595,55.75237274169922,0.06841719895601,-0.06475687772036,10.15172100067139,0.07536989450455,-0.51966160535812,2.61794137954712
7,2465405458,-0.30592864751816,-0.47098904848099,55.77378845214844,0.06552561372519,-0.04814849421382,10.12791728973389,0.12959522008896,-0.45585659146309,2.56709742546082
8,2465413791,-0.30128642916679,-0.47034898400307,55.77597045898438,0.08446080982685,-0.05907185375690,10.15352344512939,0.07712446153164,-0.48195746541023,2.62781572341919
9,2465422124,-0.30066871643066,-0.47399234771729,55.79788970947266,0.09243248403072,-0.06634390354156,10.16267108917236,0.09522092342377,-0.45086181163788,2.62780284881592
10,2465430457,-0.30116412043571,-0.47798821330070,55.79846191406250,0.08044235408306,-0.04242710769176,10.13521099090576,0.01445923745632,-0.59980851411819,2.59506797790527
11,2465438790,-0.30099871754646,-0.48202231526375,55.81991195678711,0.07023432850838,-0.04784558713436,10.12605571746826,0.04096997156739,-0.49824807047844,2.57206630706787
12,2465447123,-0.29834628105164,-0.48421528935432,55.82277679443359,0.06909004598856,-0.05506378039718,10.12422466278076,0.15065012872219,-0.55595701932907,2.60644054412842
13,2465455456,-0.29853096604347,-0.48785561323166,55.84471130371094,0.08269931375980,-0.04953869804740,10.14252185821533,0.00019210675964,-0.45055440068245,2.62949347496033
14,2465463789,-0.29678630828857,-0.48854583501816,55.84856033325195,0.07223817706108,-0.06591600179672,10.12422466278076,0.10997472703457,-0.46241378784180,2.59168672561646
15,2465472122,-0.29516538977623,-0.49233630299568,55.86974334716797,0.08040844649076,-0.04927555844188,10.15716361999512,0.21647870540619,-0.46771594882011,2.53917765617371
16,2465480455,-0.29380249977112,-0.49313458800316,55.87958145141602,0.08461797237396,-0.06733898073435,10.16082572937012,0.18848234415054,-0.49384242296219,2.51789236068726
17,2465488788,-0.29236572980881,-0.49712288379669,55.90039825439453,0.08713973313570,-0.06527324020863,10.14067649841309,0.19501398503780,-0.49222880601883,2.49491620063782
18,2465497121,-0.29338508844376,-0.49965533614159,55.90994644165039,0.07890830934048,-0.04304429143667,10.14799976348877,0.07339758425951,-0.59827166795731,2.63438558578491
19,2465505454,-0.29236826300621,-0.50372421741486,55.93167495727539,0.07597167789936,-0.05387956276536,10.14250755310059,0.14591148495674,-0.50188535451889,2.60480117797852
20,2465513787,-0.29259818792343,-0.50430965423584,55.92997360229492,0.09117186069489,-0.06667830795050,10.14796543121338,0.08082571625710,-0.38518685102463,2.54747629165649
21,2465522120,-0.29206442832947,-0.50825834274292,55.95108413696289,0.07532090693712,-0.06460475176573,10.14800071716309,0.08687067776918,-0.48684981465340,2.52944421768188
22,2465530453,-0.29332822561264,-0.51017808914185,55.95395660400391,0.07606780529022,-0.05354820191860,10.12785148620605,0.05408446118236,-0.51453882455826,2.65736174583435
23,2465538786,-0.29248720407486,-0.51345741748810,55.97498321533203,0.07834744453430,-0.07910893112421,10.13334560394287,0.12334534525871,-0.40670284628868,2.52283573150635
24,2465547119,-0.29364532232285,-0.51428622007370,55.97818374633789,0.08460129052401,-0.05339377745986,10.10036277770996,0.12180848419666,-0.40670284628868,2.60485243797302
25,2465555452,-0.29274347424507,-0.51885175704956,55.99992370605469,0.10199133306742,-0.04058865085244,10.14609718322754,0.13079909980297,-0.56084930896759,2.60813117027283
26,2465563785,-0.29356226325035,-0.52080589532852,56.00389862060547,0.08788466453552,-0.05495735630393,10.12231540679932,0.07557480037212,-0.45398667454720,2.52785634994507
27,2465572118,-0.29282382130623,-0.52475655078888,56.02521133422852,0.09040126204491,-0.05852736160159,10.15160560607910,0.11146035045385,-0.48697787523270,2.55567312240601
28,2465580451,-0.29343828558922,-0.52649784088135,56.03880691528320,0.07469924539328,-0.04174342751503,10.11867427825928,0.08907350152731,-0.39504837989807,2.55567336082458
29,2465588784,-0.29261833429337,-0.52996307611465,56.06014251708984,0.08065998554230,-0.05449956655502,10.14063358306885,0.12165482342243,-0.42801389098167,2.56059122085571
30,2465597117,-0.29242926836014,-0.53204751014709,56.06056976318359,0.06862797588110,-0.04865874722600,10.17179107666016,0.13945670425892,-0.46915039420128,2.58351588249207
31,2465605450,-0.29192000627518,-0.53669029474258,56.08231353759766,0.08179979026318,-0.07067602127790,10.14429569244385,0.08471908420324,-0.57037776708603,2.60820817947388
32,2465613783,-0.29295453429222,-0.53901702165604,56.09007644653320,0.06786911189556,-0.07408845424652,10.13700675964355,0.00633952254429,-0.53707921504974,2.67390823364258
33,2465622116,-0.29205217957497,-0.54310196638107,56.11139297485352,0.09651341289282,-0.05059821903706,10.16255569458008,0.13102962076664,-0.50352460145950,2.55564737319946
34,2465630449,-0.29254788160324,-0.54532575607300,56.11613464355469,0.07496471703053,-0.06482151895761,10.12965393066406,0.08664015680552,-0.52291464805603,2.57870030403137
35,2465638782,-0.29260569810867,-0.55000621080399,56.13795852661133,0.06087705120444,-0.08648385107517,10.17548942565918,0.01745610311627,-0.57480907440186,2.61650705337524
36,2465647115,-0.29345637559891,-0.55179172754288,56.14415740966797,0.07831981033087,-0.06839887052774,10.13329505920410,0.09650162607431,-0.51643419265747,2.55900287628174
37,2465655448,-0.29394102096558,-0.55585259199142,56.16554260253906,0.07920576632023,-0.05738365650177,10.12780094146729,-0.03283745050430,-0.50068145990372,2.56410050392151
38,2465663781,-0.29454401135445,-0.55732637643814,56.17946624755859,0.08338452875614,-0.07023458927870,10.13694953918457,0.12800715863705,-0.48062554001808,2.59337759017944
39,2465672114,-0.29426833987236,-0.56148612499237,56.20149993896484,0.08251529186964,-0.04996979609132,10.11863136291504,0.05895115807652,-0.51284813880920,2.64107060432434
40,2465680447,-0.29536315798759,-0.56374400854111,56.20974731445312,0.09085235744715,-0.04086375981569,10.14787864685059,0.06176873669028,-0.56694549322128,2.63287472724915
41,2465688780,-0.29452735185623,-0.56813770532608,56.23180770874023,0.08973280340433,-0.04623399674892,10.14972496032715,0.12757168710232,-0.54130566120148,2.64750027656555
42,2465697113,-0.29434388875961,-0.56890338659286,56.23181152343750,0.08072965592146,-0.06971241533756,10.11130809783936,0.16829834878445,-0.36628353595734,2.54737424850464
43,2465705446,-0.29317796230316,-0.57331222295761,56.25343322753906,0.08906393498182,-0.05312602967024,10.14056205749512,0.16514779627323,-0.54163867235184,2.59335207939148
44,2465713779,-0.29345020651817,-0.57504767179489,56.24895858764648,0.08054383099079,-0.06010815501213,10.15157699584961,0.11499512195587,-0.47724446654320,2.63441133499146
45,2465722112,-0.29307863116264,-0.57766318321228,56.27011489868164,0.07063505798578,-0.03414892405272,10.14793014526367,0.07197599858046,-0.32604360580444,2.54100894927979
46,2465730445,-0.29343035817146,-0.57926470041275,56.27791213989258,0.06705778837204,-0.05962039157748,10.15528964996338,0.07729095220566,-0.47524648904800,2.64596319198608
47,2465738778,-0.29205149412155,-0.58349251747131,56.29916763305664,0.08955293148756,-0.06540292501450,10.13323783874512,0.19145360589027,-0.52063488960266,2.55231738090515
48,2465747111,-0.29244583845139,-0.58508497476578,56.29714584350586,0.06318124383688,-0.05001582577825,10.15346622467041,0.08039028197527,-0.47693705558777,2.55254817008972
49,2465755444,-0.29210287332535,-0.58894568681717,56.31879806518555,0.07095096260309,-0.06470394879580,10.17176246643066,0.06740385293961,-0.47680899500847,2.60339236259460
50,2465763777,-0.29211300611496,-0.59178352355957,56.31996536254883,0.08583448082209,-0.08689922839403,10.14973068237305,0.12134743481874,-0.64947456121445,2.59020090103149
51,2465772110,-0.29093313217163,-0.59573864936829,56.34152603149414,0.06912957131863,-0.04972255975008,10.14795112609863,0.16891308128834,-0.48928317427635,2.59332609176636
52,2465780443,-0.29137668013573,-0.59705036878586,56.34712600708008,0.06814678758383,-0.04400237277150,10.15893077850342,0.08236257731915,-0.46871489286423,2.63123536109924
53,2465788776,-0.29062104225159,-0.60163873434067,56.36848831176758,0.09996370226145,-0.04457143694162,10.14781379699707,0.11722355335951,-0.56420481204987,2.56891560554504
54,2465797109,-0.29098996520042,-0.60289168357849,56.37587356567383,0.07670794427395,-0.05492482334375,10.15157699584961,0.06748070567846,-0.45547229051590,2.52145218849182
55,2465805442,-0.29025772213936,-0.60816729068756,56.39645004272461,0.08805009722710,-0.07519622147083,10.16068935394287,0.11443160474300,-0.64617031812668,2.47388696670532
56,2465813775,-0.28914210200310,-0.60981029272079,56.39945220947266,0.09236394613981,-0.08239550888538,10.16617774963379,0.25431090593338,-0.50011795759201,2.68994307518005
57,2465822108,-0.28784152865410,-0.61442714929581,56.42132568359375,0.08477069437504,-0.04891119524837,10.17533206939697,0.18453775346279,-0.56820058822632,2.63599944114685
58,2465830441,-0.28845089673996,-0.61659348011017,56.42766952514648,0.07965987920761,-0.06329051405191,10.14972400665283,0.04996056482196,-0.55360043048859,2.49696516990662
59,2465838774,-0.28725719451904,-0.62089759111404,56.44894409179688,0.08583042025566,-0.06332652270794,10.13138484954834,0.17170502245426,-0.53039389848709,2.56061649322510
60,2465847107,-0.28783535957336,-0.62253493070602,56.45751190185547,0.10157234221697,-0.05616589263082,10.17159748077393,0.05920730903745,-0.48805367946625,2.60513424873352
61,2465855440,-0.28727400302887,-0.62645107507706,56.47872161865234,0.08051643520594,-0.04822000488639,10.17535305023193,0.09686023741961,-0.48359677195549,2.55587816238403
62,2465863773,-0.28638321161270,-0.62731522321701,56.49580764770508,0.06900610029697,-0.08076447993517,10.10768127441406,0.22432945668697,-0.38521245121956,2.55714607238770
63,2465872106,-0.28542664647102,-0.63103073835373,56.51682281494141,0.04654982313514,-0.05608827620745,10.13523387908936,0.14463077485561,-0.45959618687630,2.53443884849548
64,2465880439,-0.28594782948494,-0.63203692436218,56.52043533325195,0.08745270967484,-0.06061656028032,10.15518283843994,0.06315190345049,-0.42578545212746,2.56576538085938
65,2465888772,-0.28613874316216,-0.63625645637512,56.54174804687500,0.09185482561588,-0.05520891770720,10.14416599273682,0.00618583802134,-0.52173644304276,2.57580614089966
66,2465897105,-0.28633838891983,-0.63775217533112,56.54735565185547,0.08901199698448,-0.05323611199856,10.15699195861816,0.10205992311239,-0.47709074616432,2.64437532424927
67,2465905438,-0.28549817204475,-0.64239794015884,56.56878280639648,0.07834380865097,-0.06745783984661,10.14606952667236,0.13013312220573,-0.57258063554764,2.58863878250122
68,2465913771,-0.28571277856827,-0.64486879110336,56.57804107666016,0.07827959954739,-0.09662730991840,10.13328075408936,0.09721883386374,-0.59176570177078,2.64122486114502
69,2465922104,-0.28522542119026,-0.64952188730240,56.60034561157227,0.08153269439936,-0.01593422144651,10.16979503631592,0.09105861186981,-0.57359242439270,2.69533491134644
70,2465930437,-0.28526306152344,-0.65055692195892,56.60780715942383,0.07009122520685,-0.05761574953794,10.16074848175049,0.11427792161703,-0.42155912518501,2.60011386871338
71,2465938770,-0.28481015563011,-0.65522611141205,56.62890625000000,0.08630504459143,-0.09091760218143,10.15704154968262,0.08407872170210,-0.57521885633469,2.55436706542969
72,2465947103,-0.28569439053535,-0.65732991695404,56.63299179077148,0.09656045585871,-0.07831677794456,10.14781379699707,0.02380843088031,-0.55142319202423,2.57419228553772
73,2465955436,-0.28572246432304,-0.66169226169586,56.65426635742188,0.09838907420635,-0.04535453766584,10.16240596771240,0.02729196473956,-0.53833436965942,2.57747101783752
74,2465963769,-0.28635311126709,-0.66311478614807,56.65179824829102,0.07109255343676,-0.06100663542747,10.14426708221436,0.05295743420720,-0.46005725860596,2.56425356864929
75,2465972102,-0.28641092777252,-0.66782873868942,56.67334365844727,0.06001375988126,-0.07900466024876,10.10223674774170,0.02510194852948,-0.58091807365417,2.61526465415955
76,2465980435,-0.28667700290680,-0.67014575004578,56.67317962646484,0.05840104445815,-0.04403275996447,10.12967586517334,0.10218799859285,-0.57877928018570,2.61829996109009
77,2465988768,-0.28574585914612,-0.67398107051849,56.69445800781250,0.07942407578230,-0.04629852622747,10.15702819824219,0.14301708340645,-0.47614300251007,2.59027767181396
78,2465997101,-0.28599005937576,-0.67553913593292,56.70380020141602,0.09963610768318,-0.06871994584799,10.16792106628418,0.09360722452402,-0.49668565392494,2.60682463645935
79,2466005434,-0.28618368506432,-0.67880034446716,56.72452545166016,0.07091955095530,-0.06230036169291,10.12229347229004,0.00783795677125,-0.40688216686249,2.51851987838745
80,2466013767,-0.28650483489037,-0.68111515045166,56.73357772827148,0.06792497634888,-0.06579601764679,10.14428138732910,0.08570523560047,-0.58509314060211,2.63642239570618
81,2466022100,-0.28634926676750,-0.68534886837006,56.75481414794922,0.08168125897646,-0.05882162600756,10.12771511077881,0.05048565194011,-0.52392637729645,2.58570551872253
82,2466030433,-0.28619450330734,-0.68665313720703,56.76252365112305,0.06969209760427,-0.06010817363858,10.15160655975342,0.14314515888691,-0.46804895997047,2.57716369628906
83,2466038766,-0.28463184833527,-0.69008260965347,56.78408432006836,0.08609954267740,-0.08237820118666,10.15701484680176,0.22105084359646,-0.42829561233521,2.63101720809937
84,2466047099,-0.28456181287766,-0.69197201728821,56.79048919677734,0.07645898312330,-0.05982687324286,10.14422416687012,0.13697211444378,-0.54005044698715,2.56410002708435
85,2466055432,-0.28399708867073,-0.69545423984528,56.81147003173828,0.06624229997396,-0.06292993575335,10.17177772521973,0.09942165017128,-0.43451985716820,2.56581640243530
86,2466063765,-0.28467407822609,-0.69655662775040,56.82560348510742,0.09611423313618,-0.05838327854872,10.14044094085693,0.04691247269511,-0.45324394106865,2.64962625503540
87,2466072098,-0.28421160578728,-0.70053827762604,56.84710693359375,0.07036618143320,-0.07941190153360,10.13330173492432,0.09036702662706,-0.49499511718750,2.62658619880676
88,2466080431,-0.28479164838791,-0.70189583301544,56.84830856323242,0.09509865939617,-0.07283745706081,10.13130569458008,0.05928414314985,-0.47975462675095,2.56766057014465
89,2466088764,-0.28408151865005,-0.70539051294327,56.86996078491211,0.06509712338448,-0.06247862055898,10.15164279937744,0.11934953927994,-0.43810591101646,2.65267443656921
90,2466097097,-0.28420072793961,-0.70713388919830,56.86550140380859,0.05738812312484,-0.04185348376632,10.15715694427490,0.11917021870613,-0.52831923961639,2.58717870712280
91,2466105430,-0.28341546654701,-0.71123021841049,56.88668441772461,0.05700515583158,-0.06917967647314,10.13705825805664,0.12776379287243,-0.50881397724152,2.59864115715027
92,2466113763,-0.28277206420898,-0.71271771192551,56.88929367065430,0.07627918571234,-0.06413354724646,10.14607048034668,0.20659159123898,-0.51020991802216,2.64919042587280
93,2466122096,-0.28136330842972,-0.71668648719788,56.91034317016602,0.09172028303146,-0.06074895709753,10.13680648803711,0.20336422324181,-0.49379125237465,2.58359265327454
94,2466130429,-0.28197792172432,-0.71827483177185,56.91661453247070,0.06029427051544,-0.04102725163102,10.15165615081787,0.05372585356236,-0.52050685882568,2.59240412712097
95,2466138762,-0.28226971626282,-0.72211742401123,56.93658828735352,0.07029476761818,-0.08716966211796,10.14797973632812,-0.00174176786095,-0.47860199213028,2.45482969284058
96,2466147095,-0.28202885389328,-0.72258502244949,56.93706512451172,0.08995844423771,-0.06947819888592,10.15880203247070,0.15600350499153,-0.39135989546776,2.54929518699646
97,2466155428,-0.28144189715385,-0.72662371397018,56.95804214477539,0.07672385126352,-0.04499031603336,10.14239311218262,0.10477502644062,-0.50347334146500,2.57911014556885
98,2466163761,-0.28214600682259,-0.72780060768127,56.96512985229492,0.07575514912605,-0.04298231750727,10.15338039398193,0.04130295664072,-0.47601500153542,2.55964326858521
99,2466172094,-0.28225082159042,-0.73184418678284,56.98631286621094,0.10474869608879,-0.06244670972228,10.11839485168457,0.02288631908596,-0.50513833761215,2.60236787796021
100,2466180427,-0.28320324420929,-0.73282986879349,56.99101638793945,0.08666633069515,-0.07454220205545,10.12220764160156,0.00595530960709,-0.45070812106133,2.62209081649780
101,2466188760,-0.28236153721809,-0.73718559741974,57.01205062866211,0.08352538943291,-0.03764837607741,10.14781475067139,0.13684405386448,-0.54186910390854,2.58556485176086
102,2466197093,-0.28268784284592,-0.73969107866287,57.01274490356445,0.07290738821030,-0.05168559774756,10.16257762908936,0.07919920980930,-0.63091707229614,2.55801677703857
103,2466205426,-0.28259137272835,-0.74394994974136,57.03345870971680,0.07685075700283,-0.06639750301838,10.16438865661621,0.04677159339190,-0.53026586771011,2.54987168312073
104,2466213759,-0.28201943635941,-0.74871355295181,57.05408096313477,0.07536319643259,-0.07177627086639,10.13511848449707,0.10450608283281,-0.59048503637314,2.53168559074402
105,2466222092,-0.28167322278023,-0.75079125165939,57.05414199829102,0.09185098856688,-0.05387929826975,10.16791343688965,0.15885949134827,-0.58499073982239,2.55770945549011
106,2466230425,-0.28127545118332,-0.75201469659805,57.05870437622070,0.09192245453596,-0.06469798833132,10.13679981231689,0.16432814300060,-0.48016443848610,2.57232236862183
107,2466238758,-0.28126421570778,-0.75545477867126,57.07920837402344,0.07245629280806,-0.06554374843836,10.14429569244385,0.03723029047251,-0.43326482176781,2.53182625770569
108,2466247091,-0.28094130754471,-0.75682723522186,57.08589553833008,0.07664082944393,-0.06197700649500,10.11312389373779,0.15748913586140,-0.49968251585960,2.60357189178467
109,2466255424,-0.28048372268677,-0.76024019718170,57.10660171508789,0.07496482878923,-0.03963901847601,10.15705680847168,0.09153248369694,-0.43111321330070,2.55623698234558
110,2466263757,-0.27993863821030,-0.76209646463394,57.11316680908203,0.05498450621963,-0.04960341751575,10.14625644683838,0.17886421084404,-0.55931246280670,2.53142929077148
111,2466272090,-0.27961385250092,-0.76603204011917,57.13435363769531,0.06859953701496,-0.05178730189800,10.16262149810791,0.07731656730175,-0.49468776583672,2.61538004875183
112,2466280423,-0.27991411089897,-0.76713514328003,57.14134597778320,0.07966135442257,-0.06501426547766,10.15339469909668,0.07412759959698,-0.47668093442917,2.54164934158325
113,2466288756,-0.27932247519493,-0.77054035663605,57.16197586059570,0.09447990357876,-0.03256472572684,10.14222908020020,0.10793839395046,-0.43147182464600,2.54966688156128
114,2466297089,-0.27950093150139,-0.77106219530106,57.16931533813477,0.11179745197296,-0.03313756361604,10.16954421997070,0.08539785444736,-0.40643388032913,2.51201367378235
115,2466305422,-0.27942672371864,-0.77553856372833,57.19065856933594,0.06799598783255,-0.07515987008810,10.12421798706055,0.04637457057834,-0.55959415435791,2.63528203964233
116,2466313755,-0.27911457419395,-0.77667778730392,57.19774246215820,0.06551828235388,-0.06936916708946,10.14254474639893,0.14296585321426,-0.47983151674271,2.55119061470032
117,2466322088,-0.27914097905159,-0.77993202209473,57.21915054321289,0.09637419134378,-0.04865407943726,10.13674259185791,0.03660274669528,-0.41504025459290,2.64677047729492
118,2466330421,-0.27864530682564,-0.78088665008545,57.22443771362305,0.07913886755705,-0.04038160666823,10.14787960052490,0.16306024789810,-0.45900711417198,2.54126548767090
119,2466338754,-0.27743932604790,-0.78497087955475,57.24550628662109,0.07330083847046,-0.06366399675608,10.15528964996338,0.18338511884212,-0.51353979110718,2.60685014724731
120,2466347087,-0.27767673134804,-0.78605854511261,57.24901199340820,0.07382923364639,-0.06533483415842,10.14247894287109,0.07396109402180,-0.47829458117485,2.52368092536926
121,2466355420,-0.27703550457954,-0.78996783494949,57.26979064941406,0.08431476354599,-0.04922688752413,10.12953948974609,0.11481580138206,-0.49394488334656,2.57439684867859
122,2466363753,-0.27632096409798,-0.79083079099655,57.27664947509766,0.09827218949795,-0.04413137957454,10.15320873260498,0.18822619318962,-0.45303899049759,2.62972402572632
123,2466372086,-0.27487105131149,-0.79444849491119,57.29795837402344,0.06796173006296,-0.03874062746763,10.14798069000244,0.21430146694183,-0.46021094918251,2.63456487655640
124,2466380419,-0.27517324686050,-0.79541534185410,57.30808639526367,0.07087758928537,-0.06254142522812,10.12053394317627,0.06170469522476,-0.46797212958336,2.65496659278870
125,2466388752,-0.27399089932442,-0.80000513792038,57.32948684692383,0.08659332245588,-0.05942820012569,10.14051914215088,0.18367968499660,-0.57591044902802,2.64797377586365
126,2466397085,-0.27352440357208,-0.80149751901627,57.33660507202148,0.08843559026718,-0.04088236019015,10.15146160125732,0.15296821296215,-0.53262239694595,2.51854538917542
127,2466405418,-0.27318266034126,-0.80598074197769,57.35764694213867,0.09660863876343,-0.04470842704177,10.17887210845947,0.08044150471687,-0.56520378589630,2.60746502876282
128,2466413751,-0.27331358194351,-0.80699628591537,57.35931396484375,0.07232971489429,-0.06724067777395,10.16815090179443,0.07713726907969,-0.47342789173126,2.47129988670349
129,2466422084,-0.27318727970123,-0.81092363595963,57.38101577758789,0.08247585594654,-0.05487111210823,10.13873100280762,0.05787536874413,-0.49896532297134,2.69281172752380
130,2466430417,-0.27284565567970,-0.81217718124390,57.38399887084961,0.09225936979055,-0.06793981790543,10.19360065460205,0.13569141924381,-0.50762289762497,2.54980778694153
131,2466438750,-0.27197676897049,-0.81616330146790,57.40510559082031,0.07406572997570,-0.07056765258312,10.14984607696533,0.14591148495674,-0.50618851184845,2.62027215957642
132,2466447083,-0.27185133099556,-0.81724780797958,57.40592956542969,0.07535108178854,-0.06486823409796,10.17728519439697,0.11327895522118,-0.48738762736320,2.55813217163086
133,2466455416,-0.27156257629395,-0.82032877206802,57.42659759521484,0.07874249666929,-0.07778222858906,10.15347290039062,0.07466550171375,-0.39946684241295,2.57300114631653
134,2466463749,-0.27102580666542,-0.82197672128677,57.43216705322266,0.08421227335930,-0.05589343979955,10.15520381927490,0.16746585071087,-0.55927395820618,2.61203694343567
135,2466472082,-0.27106955647469,-0.82620108127594,57.45247268676758,0.07583771646023,-0.05709099024534,10.16079044342041,0.03480974584818,-0.53618282079697,2.52904725074768
136,2466480415,-0.27136287093163,-0.82816946506500,57.45594024658203,0.07305772602558,-0.08806509524584,10.14989662170410,0.06586700677872,-0.60096120834351,2.52898311614990
137,2466488748,-0.27102294564247,-0.83123642206192,57.47751617431641,0.07771348953247,-0.07544857263565,10.11137199401855,0.08356643468142,-0.39794275164604,2.68448710441589
138,2466497081,-0.27150627970695,-0.83214706182480,57.48322296142578,0.07722721993923,-0.03125409036875,10.13144207000732,0.05166391283274,-0.47908869385719,2.64869093894958
139,2466505414,-0.27069529891014,-0.83590304851532,57.50413513183594,0.07391167432070,-0.06765910983086,10.11139965057373,0.13995616137981,-0.48153480887413,2.60560774803162
140,2466513747,-0.27112779021263,-0.83625513315201,57.50758361816406,0.07431112229824,-0.07844704389572,10.14622020721436,0.05336726456881,-0.41520676016808,2.64370918273926
141,2466522080,-0.27039146423340,-0.84029549360275,57.52909851074219,0.09168802946806,-0.03894412890077,10.13680648803711,0.13277140259743,-0.51735639572144,2.68113136291504
142,2466530413,-0.27055278420448,-0.84121531248093,57.53629302978516,0.07703457027674,-0.05623174831271,10.15896606445312,0.08735735714436,-0.48667046427727,2.61573839187622
143,2466538746,-0.27012678980827,-0.84520131349564,57.55650711059570,0.06567783653736,-0.07563604414463,10.16096210479736,0.09278756380081,-0.50987696647644,2.52393722534180
144,2466547079,-0.27002000808716,-0.84680074453354,57.56182098388672,0.06667914241552,-0.07003050297499,10.15545463562012,0.12104006856680,-0.57288801670074,2.61240863800049
145,2466555412,-0.26963451504707,-0.84984952211380,57.58245849609375,0.07704906165600,-0.06127136945724,10.15349483489990,0.08964982628822,-0.39983823895454,2.57799601554871
146,2466563745,-0.26900908350945,-0.84979468584061,57.58932113647461,0.08839199692011,-0.06719550490379,10.16619873046875,0.18539585173130,-0.37959018349648,2.59218668937683
147,2466572078,-0.26825687289238,-0.85339701175690,57.60947799682617,0.07655340433121,-0.03137240931392,10.18458080291748,0.13175961375237,-0.46505206823349,2.52049183845520
148,2466580411,-0.26872140169144,-0.85382086038589,57.61051559448242,0.06400597095490,-0.09478896111250,10.15004730224609,0.05240672826767,-0.43978363275528,2.57827782630920
149,2466588744,-0.26813656091690,-0.85786885023117,57.63080596923828,0.07211981713772,-0.06028974428773,10.14623451232910,0.11382964998484,-0.52196687459946,2.54195642471313
150,2466597077,-0.26817506551743,-0.85854178667068,57.63908767700195,0.07220503687859,-0.03993730619550,10.14802932739258,0.10713153332472,-0.47417068481445,2.56491994857788
151,2466605410,-0.26814389228821,-0.86193239688873,57.65933227539062,0.07678861171007,-0.06033107265830,10.11323070526123,0.04718142002821,-0.44292134046555,2.53573203086853
152,2466613743,-0.26891934871674,-0.86303973197937,57.66754913330078,0.05875781923532,-0.06835869699717,10.12443923950195,0.01719995774329,-0.53216135501862,2.62454962730408
153,2466622076,-0.26864075660706,-0.86730027198792,57.68851470947266,0.08925361931324,-0.06273374706507,10.12957477569580,0.07899430394173,-0.54874658584595,2.62100219726562
154,2466630409,-0.26913872361183,-0.86825150251389,57.69132995605469,0.08945248275995,-0.04605275392532,10.15152645111084,0.05339287593961,-0.51853460073471,2.57024765014648
155,2466638742,-0.26891738176346,-0.87130731344223,57.71201324462891,0.10156766325235,-0.06870415806770,10.14776515960693,0.07168143242598,-0.40424385666847,2.59299302101135
156,2466647075,-0.26995450258255,-0.87170982360840,57.71813964843750,0.07257157564163,-0.07060435414314,10.13529014587402,-0.01390853058547,-0.45426845550537,2.51484417915344
157,2466655408,-0.26969450712204,-0.87587159872055,57.73868560791016,0.07390125095844,-0.06506375968456,10.16272830963135,0.07577970623970,-0.53725856542587,2.57672810554504
158,2466663741,-0.26992669701576,-0.87651544809341,57.74645614624023,0.08521478623152,-0.03996719419956,10.15157032012939,0.08728050440550,-0.48838660120964,2.60943746566772
159,2466672074,-0.26979264616966,-0.88183766603470,57.76704788208008,0.06797040998936,-0.03510157391429,10.15176296234131,0.06165346875787,-0.67789357900620,2.58196640014648
160,2466680407,-0.26989987492561,-0.88248300552368,57.77354431152344,0.07520336657763,-0.08127157390118,10.15360927581787,0.09650162607431,-0.49204951524734,2.51430630683899
161,2466688740,-0.26878559589386,-0.88573628664017,57.79365921020508,0.07197023183107,-0.04613526910543,10.10596466064453,0.17883859574795,-0.43065211176872,2.52689552307129
162,2466697073,-0.26861637830734,-0.88653975725174,57.79587173461914,0.06506954133511,-0.05635467916727,10.14453887939453,0.13423140347004,-0.51604998111725,2.64532303810120
163,2466705406,-0.26854944229126,-0.88955432176590,57.81744384765625,0.06899993866682,-0.08406817167997,10.10426235198975,0.05610797554255,-0.40526837110519,2.70964026451111
164,2466713739,-0.26841488480568,-0.89007639884949,57.81973266601562,0.07489928603172,-0.09520412981510,10.14449691772461,0.13178524374962,-0.48810490965843,2.64044356346130
165,2466722072,-0.26818680763245,-0.89447104930878,57.84104156494141,0.08377551287413,-0.05157821252942,10.13331508636475,0.07525463402271,-0.57154321670532,2.67699503898621
166,2466730405,-0.26847487688065,-0.89514356851578,57.84602737426758,0.08846946805716,-0.05711869895458,10.17722702026367,0.08069765567780,-0.51133698225021,2.44560885429382
167,2466738738,-0.26899784803391,-0.89892518520355,57.86647033691406,0.09175309538841,-0.06474899500608,10.12958908081055,-0.01483064331114,-0.49663442373276,2.57575488090515
168,2466747071,-0.26934185624123,-0.89936733245850,57.86810302734375,0.06391794979572,-0.05549962818623,10.14823722839355,0.07588218152523,-0.48638871312141,2.60638952255249
169,2466755404,-0.26942759752274,-0.90339189767838,57.88859176635742,0.06862473487854,-0.05199583992362,10.15549755096436,0.03831889480352,-0.52787101268768,2.58375930786133
170,2466763737,-0.26950487494469,-0.90443682670593,57.89590072631836,0.11090746521950,-0.06201706454158,10.15133285522461,0.10747733712196,-0.56462740898132,2.56042480468750
171,2466772070,-0.26944750547409,-0.90811258554459,57.91656875610352,0.07321784645319,-0.05578443408012,10.12616348266602,0.05617201700807,-0.48903974890709,2.60491657257080
172,2466780403,-0.26964306831360,-0.90959912538528,57.92370605468750,0.07188404351473,-0.06466249376535,10.15367317199707,0.09487512707710,-0.61982607841492,2.66718482971191
173,2466788736,-0.26942822337151,-0.91337972879410,57.94453811645508,0.08052305877209,-0.05593921616673,10.14438915252686,0.07561321556568,-0.50111687183380,2.62781548500061
174,2466797069,-0.26860982179642,-0.91471272706985,57.94852828979492,0.06910968571901,-0.04938590526581,10.16100502014160,0.21591520309448,-0.60764652490616,2.55651855468750
175,2466805402,-0.26819419860840,-0.91843599081039,57.96884918212891,0.08570424467325,-0.05580987036228,10.13883781433105,0.09842269867659,-0.49537932872772,2.56699466705322
176,2466813735,-0.26722940802574,-0.92256945371628,57.98907852172852,0.08148097991943,-0.07006817311049,10.11511898040771,0.16399513185024,-0.54192036390305,2.55352139472961
177,2466822068,-0.26636025309563,-0.92284071445465,57.99638748168945,0.06484505534172,-0.05939495936036,10.13547039031982,0.22336894273758,-0.48818174004555,2.57770156860352
178,2466830401,-0.26645326614380,-0.92402309179306,57.99724578857422,0.08867534250021,-0.07536248862743,10.16083240509033,0.10820734500885,-0.59898895025253,2.60321331024170
179,2466838734,-0.26625251770020,-0.92888814210892,58.01830673217773,0.07651202380657,-0.07260697335005,10.13352394104004,0.07453742623329,-0.63552761077881,2.66259956359863
180,2466847067,-0.26606750488281,-0.92878180742264,58.02194595336914,0.07489348202944,-0.05758495628834,10.14817237854004,0.14638535678387,-0.44941461086273,2.62743163108826
181,2466855400,-0.26499316096306,-0.93266373872757,58.04285812377930,0.08021828532219,-0.07052935659885,10.15362358093262,0.18014492094517,-0.51943111419678,2.64700078964233
182,2466863733,-0.26571002602577,-0.93330514431000,58.04804992675781,0.08585623651743,-0.05238542705774,10.14619731903076,0.03560378402472,-0.54412323236465,2.50202417373657
183,2466872066,-0.26575022935867,-0.93740922212601,58.06840515136719,0.07686633616686,-0.06084066256881,10.14816570281982,0.04591351747513,-0.54599308967590,2.58236360549927
184,2466880399,-0.26604130864143,-0.93782478570938,58.07356262207031,0.07429396361113,-0.08075056225061,10.14276504516602,0.08970105648041,-0.52288901805878,2.62635564804077
185,2466888732,-0.26543530821800,-0.94136989116669,58.09390640258789,0.06800696253777,-0.07102836668491,10.11719512939453,0.12374236434698,-0.47989550232887,2.58340048789978
186,2466897065,-0.26508587598801,-0.94220763444901,58.10034179687500,0.07691018283367,-0.03651599958539,10.13164234161377,0.16971991956234,-0.57989346981049,2.63247752189636
187,2466905398,-0.26459243893623,-0.94610065221786,58.12059402465820,0.07196580618620,-0.04499306529760,10.15738582611084,0.11062787473202,-0.52372139692307,2.57374382019043
188,2466913731,-0.26463502645493,-0.94682198762894,58.12713623046875,0.07676679641008,-0.08381993323565,10.12443256378174,0.12138587236404,-0.57149201631546,2.71318793296814
189,2466922064,-0.26393184065819,-0.94935220479965,58.14725875854492,0.07940421998501,-0.05988324806094,10.13717937469482,0.13606283068657,-0.36224934458733,2.56024551391602
190,2466930397,-0.26462468504906,-0.94946581125259,58.15279006958008,0.08121819049120,-0.02305383048952,10.16270732879639,0.04418456181884,-0.50323009490967,2.58737087249756
191,2466938730,-0.26424136757851,-0.95288044214249,58.17257690429688,0.07147798687220,-0.06445405632257,10.15928077697754,0.09751339256763,-0.46920162439346,2.52461576461792
192,2466947063,-0.26527252793312,-0.95191025733948,58.17924499511719,0.06615585088730,-0.06766813993454,10.14655590057373,0.00115264055785,-0.38021773099899,2.58591079711914
193,2466955396,-0.26444956660271,-0.95593100786209,58.19960403442383,0.07245359569788,-0.06256560236216,10.13180732727051,0.15271207690239,-0.54172831773758,2.59326219558716
194,2466963729,-0.26494404673576,-0.95590257644653,58.20538330078125,0.08277067542076,-0.05762508884072,10.13348102569580,0.06744228303432,-0.50074553489685,2.61680150032043
195,2466972062,-0.26395240426064,-0.95958238840103,58.22545242309570,0.08246989548206,-0.04821143671870,10.14079856872559,0.17192275822163,-0.50315326452255,2.56196141242981
196,2466980395,-0.26441511511803,-0.95894706249237,58.23364639282227,0.09330032765865,-0.08009201288223,10.12240791320801,0.07197599858046,-0.43358495831490,2.66431593894958
197,2466988728,-0.26404410600662,-0.96169853210449,58.25399398803711,0.08108323067427,-0.05877883359790,10.14085578918457,0.09757743030787,-0.39366516470909,2.59844899177551
198,2466997061,-0.26394218206406,-0.96180343627930,58.26036071777344,0.07550171017647,-0.04347574338317,10.13908100128174,0.14205655455589,-0.52488690614700,2.62622761726379
199,2467005394,-0.26383230090141,-0.96653497219086,58.28048324584961,0.08644726127386,-0.03666013479233,10.16820716857910,0.06696841120720,-0.63203126192093,2.57116961479187
200,2467013727,-0.26404845714569,-0.96617370843887,58.28455352783203,0.07002034783363,-0.06652548164129,10.15205001831055,0.09995955973864,-0.47565636038780,2.67078375816345
201,2467022060,-0.26319229602814,-0.96953588724136,58.30472946166992,0.07707799971104,-0.07610130310059,10.13731575012207,0.15859052538872,-0.46986749768257,2.58177399635315
202,2467030393,-0.26296091079712,-0.96908456087112,58.31097793579102,0.08585361391306,-0.06913401931524,10.15182781219482,0.15487647056580,-0.46981632709503,2.52606320381165
203,2467038726,-0.26329120993614,-0.97208905220032,58.33140182495117,0.09258059412241,-0.06032450869679,10.14621257781982,0.01611135341227,-0.42818039655685,2.61400961875916
204,2467047059,-0.26345023512840,-0.97170221805573,58.33829116821289,0.07983443886042,-0.04272878542542,10.14087677001953,0.11087121069431,-0.48270031809807,2.63141441345215
205,2467055392,-0.26293450593948,-0.97544473409653,58.35780715942383,0.06202596798539,-0.06865434348583,10.14488220214844,0.11508476734161,-0.51914936304092,2.50517487525940
206,2467063725,-0.26259943842888,-0.97480034828186,58.36378097534180,0.08824033290148,-0.07231079041958,10.15182781219482,0.17047554254532,-0.45729097723961,2.56699466705322
207,2467072058,-0.26243993639946,-0.97775000333786,58.38481903076172,0.06995607167482,-0.05235535278916,10.13374614715576,0.07592059671879,-0.42549085617065,2.69074964523315
208,2467080391,-0.26262220740318,-0.97762823104858,58.39121246337891,0.09881657361984,-0.06735678762197,10.13334369659424,0.10839942842722,-0.52707684040070,2.53808903694153
209,2467088724,-0.26168617606163,-0.98041689395905,58.41112136840820,0.06770411878824,-0.07562733441591,10.14118576049805,0.16756829619408,-0.40638262033463,2.56042456626892
210,2467097057,-0.26173558831215,-0.97958767414093,58.41610717773438,0.07784818112850,-0.03018832020462,10.16655540466309,0.12913416326046,-0.44727572798729,2.68220710754395
211,2467105390,-0.26156693696976,-0.98265326023102,58.43544006347656,0.08302100002766,-0.06171485409141,10.14823722839355,0.07534427940845,-0.44212734699249,2.49232912063599
212,2467113723,-0.26053339242935,-0.98536944389343,58.45579910278320,0.06833791732788,-0.08074551820755,10.09541416168213,0.17991439998150,-0.39536854624748,2.60960412025452
213,2467122056,-0.26080194115639,-0.98478621244431,58.45974731445312,0.07862176001072,-0.06456302106380,10.15931701660156,0.10045903921127,-0.48734927177429,2.58083939552307
214,2467130389,-0.26144400238991,-0.98432034254074,58.46542358398438,0.07931151241064,-0.03881730511785,10.14093399047852,0.05697886645794,-0.50198769569397,2.55659484863281
215,2467138722,-0.26036784052849,-0.98728102445602,58.48578262329102,0.06286346167326,-0.08873853087425,10.13401126861572,0.18666373193264,-0.43336722254753,2.62111735343933
216,2467147055,-0.26057747006416,-0.98729842901230,58.49031829833984,0.08456256985664,-0.05721269175410,10.13541793823242,0.11014120280743,-0.56813651323318,2.57274484634399
217,2467155388,-0.26093319058418,-0.99142533540726,58.51060485839844,0.07062929868698,-0.05413454771042,10.11732292175293,0.01508678402752,-0.57392537593842,2.61459875106812
218,2467163721,-0.26156166195869,-0.99049568176270,58.51559066772461,0.08284740149975,-0.06214148178697,10.18492412567139,0.06061608716846,-0.46103063225746,2.59271144866943
219,2467172054,-0.26068601012230,-0.99356532096863,58.53558349609375,0.07292892783880,-0.05024654790759,10.15209293365479,0.16440497338772,-0.44899189472198,2.58203005790710
220,2467180387,-0.26076161861420,-0.99239140748978,58.53935241699219,0.07408622652292,-0.06301192194223,10.13929653167725,0.12780223786831,-0.43749117851257,2.65946197509766
221,2467188720,-0.26017767190933,-0.99697476625443,58.55902481079102,0.06716754287481,-0.08433738350868,10.11932563781738,0.12684167921543,-0.63130128383636,2.54495358467102
222,2467197053,-0.26007872819901,-0.99658429622650,58.56396102905273,0.09452790766954,-0.05694575607777,10.13712024688721,0.15061171352863,-0.53873151540756,2.55776095390320
223,2467205386,-0.26020208001137,-0.99972838163376,58.58387374877930,0.09197820723057,-0.05464238300920,10.14998817443848,0.04413332790136,-0.46196550130844,2.57822656631470
224,2467213719,-0.26108214259148,-1.00024795532227,58.58812713623047,0.09434764832258,-0.07866177707911,10.15001583099365,0.03245323896408,-0.65020453929901,2.54254579544067
225,2467222052,-0.25974518060684,-1.00333714485168,58.60796356201172,0.09064616262913,-0.08195293694735,10.11713027954102,0.21989822387695,-0.45640727877617,2.57184863090515
226,2467230385,-0.25969535112381,-1.00297737121582,58.61455154418945,0.08065865188837,-0.06047767028213,10.13923168182373,0.14945906400681,-0.55004012584686,2.67599606513977
227,2467238718,-0.25921767950058,-1.00651991367340,58.63425827026367,0.07758922129869,-0.06360789388418,10.14478969573975,0.11726196855307,-0.51270729303360,2.55809378623962
228,2467247051,-0.25993031263351,-1.00565922260284,58.63922882080078,0.09807793051004,-0.06891223788261,10.14629745483398,0.05952747538686,-0.49694174528122,2.63403964042664
229,2467255384,-0.26001381874084,-1.00882935523987,58.65917968750000,0.10090133547783,-0.08561909198761,10.14263534545898,0.05049846321344,-0.47037982940674,2.59468364715576
230,2467263717,-0.26085647940636,-1.00835347175598,58.66487121582031,0.08665330708027,-0.06770938634872,10.14284324645996,0.04560614749789,-0.54399514198303,2.59493947029114
231,2467272050,-0.26001277565956,-1.01233768463135,58.68548583984375,0.08611544221640,-0.03814705461264,10.12811660766602,0.16329075396061,-0.57041627168655,2.67438268661499
232,2467280383,-0.25998884439468,-1.01128852367401,58.69102478027344,0.08230789005756,-0.05214687809348,10.14838027954102,0.14851133525372,-0.48127871751785,2.59233999252319
233,2467288716,-0.25978878140450,-1.01426208019257,58.71068191528320,0.06780552119017,-0.09483338147402,10.13043498992920,0.08562839776278,-0.45064410567284,2.56329345703125
234,2467297049,-0.25952422618866,-1.01247084140778,58.71388626098633,0.08248157054186,-0.04797827824950,10.17035484313965,0.18183544278145,-0.39910817146301,2.60509562492371
235,2467305382,-0.25918427109718,-1.01534950733185,58.73351287841797,0.08584114164114,-0.03522203490138,10.15744972229004,0.10090726613998,-0.43984755873680,2.56481742858887
236,2467313715,-0.25903749465942,-1.01909625530243,58.75367736816406,0.07376947999001,-0.07260126620531,10.14860916137695,0.08045431226492,-0.53893637657166,2.61769819259644
237,2467322048,-0.32872727513313,-0.43407297134399,56.16344070434570,0.07587140053511,-0.07803590595722,10.15042686462402,0.28378009796143,-0.50714904069901,2.62576627731323
238,2467330381,-0.32887035608292,-0.43374168872833,56.16469955444336,0.08163092285395,-0.05989584699273,10.13564109802246,0.09876848012209,-0.46419396996498,2.63388586044312
239,2467338714,-0.32959032058716,-0.43433940410614,56.16464233398438,0.08752908557653,-0.06397859007120,10.13739204406738,0.01631626859307,-0.57046741247177,2.58396410942078
240,2467347047,-0.33006685972214,-0.43324142694473,56.16064453125000,0.07936877757311,-0.07969581335783,10.13574790954590,0.05859256535769,-0.37214925885201,2.62101507186890
241,2467355380,-0.32986733317375,-0.43322515487671,56.16005325317383,0.06676607578993,-0.06904869526625,10.16525363922119,0.12584273517132,-0.49523845314980,2.51726484298706
242,2467363713,-0.33082976937294,-0.43404242396355,56.15473556518555,0.05952803790569,-0.07198703289032,10.14526176452637,0.00166492525022,-0.60258769989014,2.58258104324341
243,2467372046,-0.33073639869690,-0.43323123455048,56.15610122680664,0.09018814563751,-0.06018612533808,10.11172199249268,0.11434194445610,-0.40077316761017,2.75358176231384
244,2467380379,-0.33086079359055,-0.43290826678276,56.15045547485352,0.08014702796936,-0.06257201731205,10.14486789703369,0.10289236903191,-0.46460378170013,2.54536318778992
245,2467388712,-0.33062723278999,-0.43364536762238,56.15047073364258,0.07248512655497,-0.07269283384085,10.14138507843018,0.13035084307194,-0.58729600906372,2.58967590332031
246,2467397045,-0.33119091391563,-0.43349230289459,56.14471435546875,0.06218056753278,-0.05494256317616,10.14887332916260,0.05028074979782,-0.48494151234627,2.63455224037170
247,2467405378,-0.33142665028572,-0.43317329883575,56.14509582519531,0.07385531812906,-0.05950200930238,10.17063999176025,0.07271881401539,-0.46140205860138,2.63434720039368
248,2467413711,-0.33139628171921,-0.43260917067528,56.13923263549805,0.07724108546972,-0.08188953250647,10.13587093353271,0.12120653688908,-0.43589022755623,2.59774422645569
249,2467422044,-0.33164843916893,-0.43223237991333,56.13927459716797,0.07001231610775,-0.08834054321051,10.14335155487061,0.07277002930641,-0.45325669646263,2.59500360488892
250,2467430377,-0.33176577091217,-0.43257555365562,56.13552093505859,0.07658863067627,-0.06130932644010,10.12300872802734,0.10313572734594,-0.54491722583771,2.63097929954529
251,2467438710,-0.33130800724030,-0.43330892920494,56.13510513305664,0.10074956715107,-0.03564717620611,10.15729904174805,0.15777088701725,-0.58549022674561,2.53866553306580
252,2467447043,-0.33145493268967,-0.43293389678001,56.12979125976562,0.08542670309544,-0.06528665125370,10.13936042785645,0.09843550622463,-0.45786729454994,2.55379056930542
253,2467455376,-0.33083295822144,-0.43293952941895,56.13021469116211,0.07796313613653,-0.07711031287909,10.16152763366699,0.17757068574429,-0.50091201066971,2.64017462730408
254,2467463709,-0.33048865199089,-0.43222573399544,56.12626647949219,0.06193485110998,-0.05153662711382,10.11963367462158,0.15828315913677,-0.41633379459381,2.59258317947388
255,2467472042,-0.33056750893593,-0.43204993009567,56.12599945068359,0.08045530319214,-0.04556924477220,10.15957450866699,0.09256985038519,-0.47728285193443,2.55724835395813
256,2467480375,-0.32974141836166,-0.43191239237785,56.12172698974609,0.09144335240126,-0.06677717715502,10.13561916351318,0.21615855395794,-0.48642712831497,2.65296888351440
257,2467488708,-0.32899275422096,-0.43159565329552,56.12202072143555,0.08551380038261,-0.06208141520619,10.15221405029297,0.19090288877487,-0.46060800552368,2.62527990341187
258,2467497041,-0.32985299825668,-0.43143934011459,56.11477661132812,0.07783754914999,-0.07215461879969,10.15240001678467,0.01316571794450,-0.48318696022034,2.52197766304016
259,2467505374,-0.32971489429474,-0.43170136213303,56.11483001708984,0.07787645608187,-0.05737926065922,10.13771533966064,0.11829935759306,-0.52934384346008,2.59660458564758
260,2467513707,-0.32967928051949,-0.43209984898567,56.11035156250000,0.07285100221634,-0.05089285224676,10.18724155426025,0.12128341943026,-0.55064207315445,2.67709755897522
261,2467522040,-0.32991263270378,-0.43310564756393,56.11004257202148,0.07727526128292,-0.07538671046495,10.11765766143799,0.07394829392433,-0.61913448572159,2.55130600929260
262,2467530373,-0.32968801259995,-0.43311494588852,56.10591888427734,0.07805262506008,-0.05102251470089,10.18167686462402,0.14318357408047,-0.50261533260345,2.65053558349609
263,2467538706,-0.32962960004807,-0.43397596478462,56.10513305664062,0.07735561579466,-0.05647219717503,10.13226413726807,0.10878366231918,-0.60130703449249,2.49518513679504
264,2467547039,-0.32986673712730,-0.43435674905777,56.10046386718750,0.08306520432234,-0.06238015741110,10.13035392761230,0.08669137954712,-0.54765790700912,2.47885560989380
265,2467555372,-0.33001643419266,-0.43422067165375,56.10055160522461,0.09020780771971,-0.07571208477020,10.15224266052246,0.08465504646301,-0.48171415925026,2.59864139556885
266,2467563705,-0.32954889535904,-0.43413230776787,56.09558105468750,0.08640737086535,-0.04929164052010,10.16139793395996,0.17066764831543,-0.49108889698982,2.55023026466370
267,2467572038,-0.32952243089676,-0.43459704518318,56.09530639648438,0.06041850522161,-0.05743975192308,10.15645599365234,0.10519766062498,-0.55340832471848,2.55594205856323
268,2467580371,-0.33025503158569,-0.43365955352783,56.09093093872070,0.07144697010517,-0.06396245211363,10.15443134307861,0.02658757567406,-0.38850390911102,2.54820632934570
269,2467588704,-0.33081904053688,-0.43400141596794,56.09189605712891,0.08689613640308,-0.03805307298899,10.11742877960205,0.03667958453298,-0.54139524698257,2.70440220832825
270,2467597037,-0.33067646622658,-0.43340760469437,56.08727645874023,0.09137824177742,-0.06209984794259,10.15405273437500,0.13150349259377,-0.43002459406853,2.58178710937500
271,2467605370,-0.33032995462418,-0.43272390961647,56.08733367919922,0.07515146583319,-0.06030251085758,10.13240909576416,0.14390078186989,-0.41583433747292,2.59641265869141
272,2467613703,-0.33064022660255,-0.43324837088585,56.08218002319336,0.08518710732460,-0.04626700654626,10.15963077545166,0.07676585763693,-0.56344914436340,2.56459975242615
273,2467622036,-0.32973450422287,-0.43267968297005,56.08208465576172,0.07852207869291,-0.07495416700840,10.12506961822510,0.21024166047573,-0.43086990714073,2.57779121398926
274,2467630369,-0.32941254973412,-0.43308690190315,56.07883453369141,0.07419757544994,-0.05567712709308,10.14342308044434,0.15327557921410,-0.54933565855026,2.59177660942078
275,2467638702,-0.32895705103874,-0.43341633677483,56.07885360717773,0.08184242993593,-0.03029019385576,10.16884422302246,0.15714332461357,-0.53803980350494,2.59172511100769
276,2467647035,-0.32933962345123,-0.43299284577370,56.07342147827148,0.05751428380609,-0.06819945573807,10.13100719451904,0.06641770899296,-0.44956824183464,2.57279610633850
277,2467655368,-0.32921874523163,-0.43263521790504,56.07312393188477,0.07981826364994,-0.05744217708707,10.14335155487061,0.11682653427124,-0.45556199550629,2.55589103698730
278,2467663701,-0.32828313112259,-0.43257147073746,56.06927108764648,0.07965184003115,-0.04794189333916,10.14516830444336,0.22563581168652,-0.49242088198662,2.63042855262756
279,2467672034,-0.32829719781876,-0.43238273262978,56.06907272338867,0.08130887150764,-0.06236029788852,10.17815017700195,0.09940884262323,-0.47597658634186,2.56603431701660
280,2467680367,-0.32788997888565,-0.43273112177849,56.06549835205078,0.08089544624090,-0.05295182764530,10.16531848907471,0.16249671578407,-0.54312425851822,2.66403436660767
281,2467688700,-0.32832714915276,-0.43306732177734,56.06616973876953,0.07257428020239,-0.05540943890810,10.18382930755615,0.05115162581205,-0.53880822658539,2.67013025283813
282,2467697033,-0.32893353700638,-0.43254777789116,56.06194686889648,0.07420074194670,-0.05748943239450,10.14901638031006,0.03936908021569,-0.43816995620728,2.59292912483215
283,2467705366,-0.32867902517319,-0.43254205584526,56.06207656860352,0.08224784582853,-0.07297161966562,10.14340877532959,0.13306595385075,-0.49908059835434,2.60358476638794
284,2467713699,-0.32858690619469,-0.43306389451027,56.05772018432617,0.08851552754641,-0.03844535723329,10.13950920104980,0.12312763184309,-0.56255269050598,2.61206269264221
285,2467722032,-0.32928276062012,-0.43319705128670,56.05654144287109,0.09663211554289,-0.06111071258783,10.16689109802246,0.01728960871696,-0.51447474956512,2.44564700126648
286,2467730365,-0.32905197143555,-0.43324804306030,56.05240631103516,0.08262979239225,-0.07426447421312,10.15076923370361,0.13964882493019,-0.50594514608383,2.64139103889465
287,2467738698,-0.32956615090370,-0.43260380625725,56.05197143554688,0.07169248163700,-0.04703759402037,10.15641975402832,0.03985575214028,-0.42026558518410,2.53716707229614
288,2467747031,-0.32920551300049,-0.43285971879959,56.04787445068359,0.07875277101994,-0.07161675393581,10.15269374847412,0.15535032749176,-0.53004813194275,2.54282736778259
289,2467755364,-0.32891434431076,-0.43296983838081,56.04812240600586,0.07622529566288,-0.09517882764339,10.12353134155273,0.13744598627090,-0.51247686147690,2.61851787567139
290,2467763697,-0.32776445150375,-0.43302029371262,56.04463958740234,0.07784083485603,-0.05627453327179,10.13620662689209,0.25117316842079,-0.50563782453537,2.62712407112122
291,2467772030,-0.32827985286713,-0.43323731422424,56.04442977905273,0.08448430150747,-0.05660388246179,10.15622615814209,0.03929223492742,-0.52518153190613,2.56708407402039
292,2467780363,-0.32807150483131,-0.43357011675835,56.04081726074219,0.07017217576504,-0.07332706451416,10.14376640319824,0.13788141310215,-0.53873139619827,2.64326071739197
293,2467788696,-0.32797828316689,-0.43386203050613,56.04079818725586,0.06927009671926,-0.05994134023786,10.16757106781006,0.11288193613291,-0.53417205810547,2.58611559867859
294,2467797029,-0.32866024971008,-0.43430224061012,56.03746795654297,0.09313120692968,-0.06439960747957,10.15058898925781,0.03119814023376,-0.55263996124268,2.56900525093079
295,2467805362,-0.32775494456291,-0.43436574935913,56.03763961791992,0.09048926085234,-0.08040304481983,10.16354370117188,0.20993426442146,-0.50681602954865,2.60970616340637
296,2467813695,-0.32758462429047,-0.43362101912498,56.03282165527344,0.08229097723961,-0.04237525165081,10.15077590942383,0.13270735740662,-0.40894407033920,2.54956436157227
297,2467822028,-0.32753455638885,-0.43287053704262,56.03323364257812,0.07628437876701,-0.06371572613716,10.13084983825684,0.10909103602171,-0.40907216072083,2.63849687576294
298,2467830361,-0.32672548294067,-0.43303784728050,56.02931976318359,0.06726671010256,-0.09344224631786,10.18244266510010,0.20865356922150,-0.51836806535721,2.55560922622681
299,2467838694,-0.32680949568748,-0.43383365869522,56.02997970581055,0.09007683396339,-0.05005234107375,10.12135601043701,0.09382494539022,-0.59533888101578,2.66710805892944
300,2467847027,-0.32764077186584,-0.43472453951836,56.02714157104492,0.09891913831234,-0.05072822794318,10.15232086181641,0.01265343278646,-0.60548210144043,2.65816831588745
301,2467855360,-0.32776156067848,-0.43432268500328,56.02764129638672,0.10379410535097,-0.06762311607599,10.17607593536377,0.08885579556227,-0.45058006048203,2.65045881271362
302,2467863693,-0.32741498947144,-0.43361389636993,56.02370071411133,0.07286030054092,-0.05100740119815,10.16207885742188,0.15373665094376,-0.41354185342789,2.53637290000916
303,2467872026,-0.32771879434586,-0.43306416273117,56.02322769165039,0.06428918987513,-0.05160610005260,10.16778564453125,0.06398435682058,-0.43136933445930,2.53250479698181
304,2467880359,-0.32788389921188,-0.43318107724190,56.01928710937500,0.08386490494013,-0.06473427265882,10.17654800415039,0.09300528466702,-0.51332211494446,2.61616086959839
305,2467888692,-0.32733502984047,-0.43265151977539,56.01893615722656,0.07587363570929,-0.05630078539252,10.15656375885010,0.16746588051319,-0.43409729003906,2.54620885848999
306,2467897025,-0.32781508564949,-0.43303436040878,56.01499176025391,0.09216773509979,-0.07655314356089,10.13795757293701,0.05509622022510,-0.54557043313980,2.62494683265686
307,2467905358,-0.32761713862419,-0.43308210372925,56.01563262939453,0.08284617215395,-0.07147709280252,10.15648460388184,0.12533046305180,-0.50361430644989,2.66513562202454
308,2467913691,-0.32767078280449,-0.43300351500511,56.01161956787109,0.07711489498615,-0.04664216190577,10.14920234680176,0.10558188706636,-0.48950088024139,2.58652567863464
309,2467922024,-0.32890728116035,-0.43296176195145,56.01162338256836,0.06627021729946,-0.06732418388128,10.15504646301270,-0.04573421180248,-0.49372717738152,2.58993196487427
310,2467930357,-0.32930493354797,-0.43232116103172,56.00839614868164,0.09363205730915,-0.07603263854980,10.15811538696289,0.06398435682058,-0.42131575942039,2.61974716186523
311,2467938690,-0.32913374900818,-0.43235820531845,56.00881195068359,0.10285554826260,-0.03278306126595,10.14676952362061,0.12351184338331,-0.50200062990189,2.63895797729492
312,2467947023,-0.32960695028305,-0.43266314268112,56.00490188598633,0.11169467866421,-0.04999595507979,10.18693161010742,0.05463515967131,-0.53424888849258,2.53311944007874
313,2467955356,-0.32946178317070,-0.43284264206886,56.00497436523438,0.06657005101442,-0.05392858386040,10.13855171203613,0.12027164548635,-0.51999461650848,2.59801340103149
314,2467963689,-0.32973682880402,-0.43281510472298,56.00285339355469,0.08085684478283,-0.05927037447691,10.11443996429443,0.07730375230312,-0.49447000026703,2.58211994171143
315,2467972022,-0.33006036281586,-0.43314278125763,56.00272369384766,0.08564720302820,-0.06136801466346,10.14182758331299,0.06308785825968,-0.53798848390579,2.57417917251587
316,2467980355,-0.32993003726006,-0.43243187665939,55.99878311157227,0.08873274177313,-0.07081620395184,10.13629913330078,0.12720029056072,-0.41035285592079,2.62243676185608
317,2467988688,-0.32986474037170,-0.43296468257904,55.99852371215820,0.09862374514341,-0.07533176243305,10.15990257263184,0.11067910492420,-0.56227087974548,2.55732536315918
318,2467997021,-0.32999366521835,-0.43263396620750,55.99454879760742,0.05505438894033,-0.05521505698562,10.13339614868164,0.09456776827574,-0.45768800377846,2.60166358947754
319,2468005354,-0.33008295297623,-0.43151420354843,55.99483108520508,0.06990814954042,-0.07347308844328,10.12945461273193,0.09233932197094,-0.36391425132751,2.62446022033691
320,2468013687,-0.32961785793304,-0.43225002288818,55.98939895629883,0.07524609565735,-0.05526927858591,10.15675640106201,0.16713286936283,-0.58534932136536,2.59623312950134
321,2468022020,-0.33015173673630,-0.43267288804054,55.98941421508789,0.06862916052341,-0.04663870856166,10.18804264068604,0.03788345307112,-0.54951500892639,2.59277558326721
322,2468030353,-0.33057415485382,-0.43306112289429,55.98559188842773,0.09466056525707,-0.07215861231089,10.13989639282227,0.05979642644525,-0.54425126314163,2.60892534255981
323,2468038686,-0.33046948909760,-0.43296778202057,55.98500823974609,0.09098295122385,-0.04934657365084,10.14541053771973,0.11481581628323,-0.48708033561707,2.51950597763062
324,2468047019,-0.33119222521782,-0.43294775485992,55.98048019409180,0.06685942411423,-0.04600949585438,10.17162704467773,0.02497387863696,-0.49288186430931,2.59287762641907
325,2468055352,-0.33130931854248,-0.43290904164314,55.98100280761719,0.08277573436499,-0.05530359223485,10.16213512420654,0.08795928210020,-0.49499511718750,2.65130400657654
326,2468063685,-0.33150300383568,-0.43307319283485,55.97777175903320,0.08846060186625,-0.06893733143806,10.13275146484375,0.08806174248457,-0.51642143726349,2.63170909881592
327,2468072018,-0.33225297927856,-0.43402063846588,55.97756195068359,0.09105121344328,-0.04315952584147,10.14909458160400,0.01226921845227,-0.61206501722336,2.56221747398376
328,2468080351,-0.33272758126259,-0.43389368057251,55.97441101074219,0.09069437533617,-0.06521719694138,10.14003276824951,0.05258602648973,-0.48132988810539,2.63865041732788
329,2468088684,-0.33226776123047,-0.43469312787056,55.97454452514648,0.07747250050306,-0.05605543777347,10.12569141387939,0.15839843451977,-0.59487783908844,2.60486531257629
330,2468097017,-0.33285069465637,-0.43444508314133,55.97329330444336,0.06805066019297,-0.04731027781963,10.11674308776855,0.04077786207199,-0.46739572286606,2.67333221435547
331,2468105350,-0.33248135447502,-0.43432778120041,55.97319412231445,0.07690871506929,-0.07395614683628,10.13678550720215,0.14533518254757,-0.48407065868378,2.57684350013733
332,2468113683,-0.33182507753372,-0.43471819162369,55.96913146972656,0.08859685063362,-0.04382853209972,10.12723636627197,0.18959657847881,-0.54270160198212,2.60770845413208
333,2468122016,-0.33202639222145,-0.43409484624863,55.96947097778320,0.09454547613859,-0.03675603866577,10.15455341339111,0.07753429561853,-0.42377474904060,2.63181161880493
334,2468130349,-0.33199816942215,-0.43479204177856,55.96663284301758,0.09166703373194,-0.09163983166218,10.14567565917969,0.11316367983818,-0.58055943250656,2.60225248336792
335,2468138682,-0.33161699771881,-0.43413335084915,55.96673965454102,0.06508529186249,-0.03253134340048,10.15347385406494,0.14817835390568,-0.41852381825447,2.60307240486145
336,2468147015,-0.33199459314346,-0.43415287137032,55.96408843994141,0.03467670083046,-0.04139768332243,10.13961887359619,0.06472717225552,-0.50010514259338,2.65360903739929
337,2468155348,-0.33203995227814,-0.43456435203552,55.96350860595703,0.05694651231170,-0.06069073826075,10.13914585113525,0.09623268991709,-0.54685115814209,2.52033829689026
338,2468163681,-0.33202052116394,-0.43565925955772,55.95980072021484,0.09967843443155,-0.05122010409832,10.14171886444092,0.11111454665661,-0.62822753190994,2.55653119087219
339,2468172014,-0.33261540532112,-0.43589001893997,55.95934295654297,0.11464111506939,-0.05487553402781,10.13404369354248,0.03042971342802,-0.52612918615341,2.53591203689575
340,2468180347,-0.33261695504189,-0.43611860275269,55.95675659179688,0.09528646618128,-0.06114926561713,10.17669010162354,0.10845065116882,-0.52287620306015,2.58427095413208
341,2468188680,-0.33237543702126,-0.43598341941833,55.95639419555664,0.07062524557114,-0.03757591918111,10.14611244201660,0.13037647306919,-0.48168846964836,2.54777097702026
342,2468197013,-0.33286136388779,-0.43602263927460,55.95161056518555,0.05442540720105,-0.04609072208405,10.17953109741211,0.04929459467530,-0.50121933221817,2.47163271903992
343,2468205346,-0.33337426185608,-0.43640220165253,55.95115280151367,0.09620556980371,-0.09053852409124,10.13468837738037,0.03912574425340,-0.54309868812561,2.53436231613159
344,2468213679,-0.33298134803772,-0.43715414404869,55.94791030883789,0.11058186739683,-0.04776715487242,10.15799236297607,0.15614438056946,-0.58660447597504,2.66116547584534
345,2468222012,-0.33298724889755,-0.43678736686707,55.94725036621094,0.08507869392633,-0.04791520908475,10.14217853546143,0.10222641378641,-0.45367935299873,2.51037430763245
346,2468230345,-0.33347788453102,-0.43766379356384,55.94422531127930,0.06267538666725,-0.06699503213167,10.13183593750000,0.04864143580198,-0.60117888450623,2.55258655548096
347,2468238678,-0.33261457085609,-0.43809115886688,55.94387817382812,0.06472378224134,-0.04660066589713,10.14638423919678,0.20488825440407,-0.54910516738892,2.54884696006775
348,2468247011,-0.33293902873993,-0.43757975101471,55.94033050537109,0.08349759131670,-0.04884716495872,10.14225006103516,0.06851808726788,-0.43478888273239,2.59794950485229
349,2468255344,-0.33318257331848,-0.43812289834023,55.94071578979492,0.12574304640293,-0.08387949317694,10.14496612548828,0.07346162199974,-0.56480664014816,2.63439846038818
350,2468263677,-0.33328509330750,-0.43853604793549,55.93749618530273,0.07068891823292,-0.04086794331670,10.19204807281494,0.09551548212767,-0.54508376121521,2.58647441864014
351,2468272010,-0.33305960893631,-0.43780818581581,55.93748855590820,0.05672742426395,-0.04640263319016,10.15398216247559,0.12917259335518,-0.41096761822701,2.58734536170959
352,2468280343,-0.33308354020119,-0.43795338273048,55.93508148193359,0.05929618701339,-0.06706350296736,10.12286663055420,0.10486467927694,-0.51270735263824,2.63234949111938
353,2468288676,-0.33291071653366,-0.43901592493057,55.93504714965820,0.09645844250917,-0.05125685036182,10.16031742095947,0.12289710342884,-0.62579423189163,2.58480930328369
354,2468297009,-0.33268514275551,-0.43926575779915,55.93387985229492,0.08245342224836,-0.04918031394482,10.14787197113037,0.13473087549210,-0.52633404731750,2.59917902946472
355,2468305342,-0.33321800827980,-0.43953242897987,55.93406295776367,0.08959484845400,-0.08676876127720,10.16432285308838,0.03924100846052,-0.53132891654968,2.61037230491638
356,2468313675,-0.33366829156876,-0.43990677595139,55.93170166015625,0.08852600306273,-0.04228336736560,10.14405918121338,0.05256041511893,-0.54065251350403,2.54943633079529
357,2468322008,-0.33311557769775,-0.43934178352356,55.93228149414062,0.05290613695979,-0.03719960898161,10.14315986633301,0.16838797926903,-0.42994770407677,2.65937209129333
358,2468330341,-0.33389189839363,-0.43958577513695,55.92889022827148,0.05386371165514,-0.05759468302131,10.12124252319336,0.01434397138655,-0.52615475654602,2.69131326675415
359,2468338674,-0.33319416642189,-0.43989086151123,55.92872619628906,0.06857975572348,-0.05551898106933,10.14832973480225,0.18631795048714,-0.53496611118317,2.56910753250122
360,2468347007,-0.33225545287132,-0.43978789448738,55.92603302001953,0.08333949744701,-0.03852935135365,10.17171287536621,0.21979574859142,-0.48463410139084,2.60140728950500
361,2468355340,-0.33297112584114,-0.43913573026657,55.92565155029297,0.10678114742041,-0.06003310531378,10.16750621795654,0.01643153280020,-0.41979172825813,2.54317331314087
362,2468363673,-0.33267742395401,-0.43838292360306,55.92210769653320,0.08481756597757,-0.08473803848028,10.14438247680664,0.14100636541843,-0.40538370609283,2.56946635246277
363,2468372006,-0.33261302113533,-0.43792307376862,55.92195129394531,0.03062864951789,-0.04174669459462,10.15486907958984,0.10873243957758,-0.44418931007385,2.57005548477173
364,2468380339,-0.33195871114731,-0.43666684627533,55.91810226440430,0.07212489098310,-0.05993406474590,10.19046878814697,0.18580566346645,-0.34447300434113,2.52932882308960
365,2468388672,-0.33074703812599,-0.43647560477257,55.91823577880859,0.09160245954990,-0.07733394950628,10.16070556640625,0.24676756560802,-0.47508004307747,2.60614609718323
366,2468397005,-0.33040112257004,-0.43600180745125,55.91503524780273,0.09378493577242,-0.03849422186613,10.15318679809570,0.14901080727577,-0.44028303027153,2.61228013038635
367,2468405338,-0.33065143227577,-0.43633282184601,55.91540908813477,0.09299235790968,-0.07335362583399,10.14419460296631,0.07177108526230,-0.53842401504517,2.63339948654175
368,2468413671,-0.32993155717850,-0.43650943040848,55.91304779052734,0.06447471678257,-0.09859982877970,10.15241527557373,0.19308009743690,-0.51739478111267,2.62187314033508
369,2468422004,-0.32944318652153,-0.43704429268837,55.91278839111328,0.09421949833632,-0.01715511828661,10.18244838714600,0.16106230020523,-0.56293684244156,2.55837535858154
370,2468430337,-0.32986512780190,-0.43732264637947,55.90986251831055,0.09573388099670,-0.08573460578918,10.15885829925537,0.05553166568279,-0.52943348884583,2.47920179367065
371,2468438670,-0.32931780815125,-0.43790772557259,55.91036987304688,0.07489210367203,-0.07716650515795,10.13744354248047,0.16846480965614,-0.56821334362030,2.64710307121277
372,2468447003,-0.32847234606743,-0.43803364038467,55.90884780883789,0.07344915717840,-0.03024987131357,10.15014648437500,0.20752654969692,-0.51204138994217,2.56757092475891
373,2468455336,-0.32842069864273,-0.43846064805984,55.90855407714844,0.08416280150414,-0.05939477309585,10.12616348266602,0.10773346573114,-0.54936128854752,2.55425143241882
374,2468463669,-0.32860714197159,-0.43898949027061,55.90624237060547,0.05574531108141,-0.03813323006034,10.16535377502441,0.08455257862806,-0.55909466743469,2.59246802330017
375,2468472002,-0.32852968573570,-0.43898233771324,55.90610122680664,0.05489734187722,-0.06184152886271,10.16366004943848,0.11160123348236,-0.49867078661919,2.57223272323608
376,2468480335,-0.32851341366768,-0.43921530246735,55.90260314941406,0.08694589883089,-0.09780767560005,10.14642715454102,0.10681135207415,-0.52290183305740,2.58883094787598
377,2468488668,-0.32817623019218,-0.43812096118927,55.90344238281250,0.06527909636497,-0.03519950807095,10.15048408508301,0.14390078186989,-0.36916515231133,2.68982768058777
378,2468497001,-0.32805606722832,-0.43863487243652,55.90058517456055,0.09682894498110,-0.04886501654983,10.13500308990479,0.11954163759947,-0.55696880817413,2.50007748603821
379,2468505334,-0.32822439074516,-0.43920031189919,55.90091323852539,0.07704839110374,-0.09187074750662,10.15405941009521,0.08273398131132,-0.56708639860153,2.62720084190369
380,2468513667,-0.32820281386375,-0.43920159339905,55.89559173583984,0.04380962997675,-0.04252733662724,10.13651466369629,0.10975700616837,-0.49695459008217,2.54941058158875
381,2468522000,-0.32818043231964,-0.43944150209427,55.89587020874023,0.08339377492666,-0.04429276287556,10.14639854431152,0.10366080701351,-0.52753794193268,2.62361478805542
382,2468530333,-0.32783055305481,-0.43972119688988,55.89240646362305,0.09422250837088,-0.07351066917181,10.12973880767822,0.14805029332638,-0.52945905923843,2.51618862152100
383,2468538666,-0.32772296667099,-0.43960213661194,55.89323806762695,0.09236048161983,-0.05262997373939,10.12789440155029,0.11603249609470,-0.48386576771736,2.69077539443970
384,2468546999,-0.32817575335503,-0.43919381499290,55.89118957519531,0.09381278604269,-0.05243595317006,10.15534687042236,0.05258602648973,-0.44805705547333,2.67023301124573
385,2468555332,-0.32834869623184,-0.44016999006271,55.89133834838867,0.07843003422022,-0.04637910798192,10.14296436309814,0.08211924135685,-0.61641943454742,2.60791349411011
386,2468563665,-0.32769694924355,-0.43940123915672,55.88881301879883,0.06715315580368,-0.05542896687984,10.15797996520996,0.18326985836029,-0.40361633896828,2.61075663566589
387,2468571998,-0.32764810323715,-0.43952831625938,55.88900756835938,0.08880685269833,-0.07149931043386,10.13545513153076,0.10934717208147,-0.51488459110260,2.61219120025635
388,2468580331,-0.32777467370033,-0.44037595391273,55.88661193847656,0.09377375245094,-0.07006906718016,10.14631175994873,0.09123790264130,-0.59877121448517,2.70153355598450
389,2468588664,-0.32684826850891,-0.44021785259247,55.88647460937500,0.07157380133867,-0.05159038677812,10.15240097045898,0.21331536769867,-0.47997239232063,2.57451248168945
390,2468596997,-0.32751902937889,-0.43991515040398,55.88398361206055,0.05849159508944,-0.06207977980375,10.18031024932861,0.02551177889109,-0.45948097109795,2.55583953857422
391,2468605330,-0.32778781652451,-0.44027054309845,55.88446426391602,0.04431473836303,-0.07868390530348,10.13684368133545,0.07005493342876,-0.54144650697708,2.64753866195679
392,2468613663,-0.32754877209663,-0.44043865799904,55.88230895996094,0.06454182416201,-0.05700277909636,10.18564605712891,0.13552492856979,-0.51690810918808,2.61203718185425
393,2468621996,-0.32784381508827,-0.44033730030060,55.88267517089844,0.09242925792933,-0.06859292089939,10.16108322143555,0.06570050120354,-0.48691374063492,2.63437294960022
394,2468630329,-0.32892552018166,-0.44019392132759,55.88138961791992,0.10034493356943,-0.07906260341406,10.14442348480225,-0.02296316251159,-0.47905027866364,2.48606681823730
395,2468638662,-0.32930627465248,-0.44085371494293,55.88190460205078,0.06820595264435,-0.05009127408266,10.13792991638184,0.05586464330554,-0.57819014787674,2.65294313430786
396,2468646995,-0.32915192842484,-0.44135072827339,55.87928390502930,0.04624064266682,-0.07268242537975,10.10938358306885,0.12504871189594,-0.55581611394882,2.54833459854126
397,2468655328,-0.32875669002533,-0.44035777449608,55.87915420532227,0.05514976754785,-0.06055944040418,10.13840293884277,0.14861378073692,-0.37997436523438,2.57379508018494
398,2468663661,-0.32895016670227,-0.44039180874825,55.87567901611328,0.08140487223864,-0.04014497995377,10.14854431152344,0.08255468308926,-0.50013077259064,2.50117897987366
399,2468671994,-0.32826387882233,-0.44039863348007,55.87572479248047,0.09774310141802,-0.06842890381813,10.13536930084229,0.18588250875473,-0.49951601028442,2.59339022636414
400,2468680327,-0.32863160967827,-0.43994101881981,55.87344741821289,0.10183271020651,-0.03716587647796,10.15161895751953,0.06180714815855,-0.44239628314972,2.58196640014648
401,2468688660,-0.32884979248047,-0.43951591849327,55.87330627441406,0.05493692681193,-0.03345895558596,10.15485477447510,0.07606147229671,-0.44845405220985,2.57521677017212
402,2468696993,-0.32904839515686,-0.43882825970650,55.86999130249023,0.05893409252167,-0.06742540746927,10.13290977478027,0.08009571582079,-0.41429746150970,2.56029653549194
403,2468705326,-0.32946059107780,-0.43863442540169,55.86951446533203,0.07584998011589,-0.06580581516027,10.17454528808594,0.05368744209409,-0.47482386231422,2.53457999229431
404,2468713659,-0.32912936806679,-0.43815371394157,55.86890411376953,0.11645123362541,-0.03662305325270,10.18238353729248,0.14600113034248,-0.44032150506973,2.70253181457520
405,2468721992,-0.32960247993469,-0.43848130106926,55.86960601806641,0.10202211886644,-0.04194805398583,10.13888740539551,0.04595194011927,-0.53796291351318,2.67310142517090
406,2468730325,-0.32967850565910,-0.43939515948296,55.86842727661133,0.05358130112290,-0.07841064035892,10.16981792449951,0.09710355848074,-0.60627615451813,2.59858989715576
407,2468738658,-0.33026507496834,-0.44011208415031,55.86808013916016,0.03039037808776,-0.05064246803522,10.15028381347656,0.03055777959526,-0.58478581905365,2.54695153236389
408,2468746991,-0.32977291941643,-0.43945309519768,55.86378097534180,0.07157427072525,-0.09774343669415,10.13824558258057,0.16459706425667,-0.41908729076385,2.61846637725830
409,2468755324,-0.32931885123253,-0.43819814920425,55.86334991455078,0.11848343908787,-0.05457416921854,10.16048240661621,0.15742507576942,-0.34808462858200,2.53944635391235
410,2468763657,-0.32907941937447,-0.43857660889626,55.86151504516602,0.12649339437485,-0.04665889590979,10.11991024017334,0.13424420356750,-0.54321390390396,2.67033529281616
411,2468771990,-0.32864126563072,-0.43826296925545,55.86157226562500,0.06601510196924,-0.09604520350695,10.13295936584473,0.15450507402420,-0.45950657129288,2.59584903717041
412,2468780323,-0.32872554659843,-0.43804496526718,55.85779953002930,0.03868470340967,-0.04302813112736,10.15742969512939,0.09508003294468,-0.47146832942963,2.53429770469666
413,2468788656,-0.32923457026482,-0.43722370266914,55.85818481445312,0.06252054870129,-0.04670047760010,10.14756584167480,0.04146944358945,-0.39951804280281,2.63690876960754
414,2468796989,-0.32973122596741,-0.43812522292137,55.85742950439453,0.11447453498840,-0.06402286142111,10.15520954132080,0.04638738185167,-0.60714703798294,2.63260555267334
415,2468805322,-0.33034360408783,-0.43819701671600,55.85670089721680,0.11960321664810,-0.05157895386219,10.16967964172363,0.02940513938665,-0.50586831569672,2.50266432762146
416,2468813655,-0.33065024018288,-0.43819463253021,55.85469055175781,0.08716440200806,-0.05757490545511,10.14873027801514,0.06777526438236,-0.49710828065872,2.60074114799500
417,2468821988,-0.33066612482071,-0.43836122751236,55.85456848144531,0.03624656796455,-0.05836232379079,10.16315841674805,0.10025411844254,-0.51790702342987,2.57405138015747
418,2468830321,-0.33145782351494,-0.43906581401825,55.85143280029297,0.02899097278714,-0.04607633873820,10.13954734802246,0.01109096501023,-0.58155846595764,2.55922079086304
419,2468838654,-0.33267891407013,-0.43933299183846,55.85110473632812,0.05926439538598,-0.09174380451441,10.12963294982910,-0.04591351747513,-0.53099590539932,2.55010247230530
420,2468846987,-0.33205765485764,-0.43979597091675,55.84807205200195,0.11020874232054,-0.07938648015261,10.12802219390869,0.18034984171391,-0.55253744125366,2.50722384452820
421,2468855320,-0.33187440037727,-0.44051480293274,55.84766006469727,0.10845511406660,-0.02099151536822,10.16084575653076,0.12402412295341,-0.58411979675293,2.53949785232544
422,2468863653,-0.33202782273293,-0.43954050540924,55.84510421752930,0.05419219285250,-0.06206332892179,10.15906047821045,0.08667857199907,-0.38035857677460,2.57399988174438
423,2468871986,-0.33126235008240,-0.43974146246910,55.84561538696289,0.05314644798636,-0.07272744178772,10.16282272338867,0.19469380378723,-0.52370864152908,2.64851188659668
424,2468880319,-0.33038699626923,-0.44022509455681,55.84488296508789,0.07779140025377,-0.04863299429417,10.14914512634277,0.21031847596169,-0.55620026588440,2.65827107429504
425,2468888652,-0.33071425557137,-0.44038370251656,55.84444046020508,0.10797045379877,-0.05132751539350,10.15372276306152,0.06357453763485,-0.51675438880920,2.53545069694519
426,2468896985,-0.33072546124458,-0.44032385945320,55.84322357177734,0.12677748501301,-0.06181617453694,10.13485336303711,0.10304606705904,-0.49011555314064,2.60717034339905
427,2468905318,-0.33037340641022,-0.44056621193886,55.84319305419922,0.09343931823969,-0.03019130788743,10.12664890289307,0.14564254879951,-0.52820396423340,2.58529591560364
428,2468913651,-0.33131521940231,-0.44023951888084,55.84170150756836,0.01410326175392,-0.06114260479808,10.16412544250488,-0.00833743438125,-0.45809781551361,2.57433319091797
429,2468921984,-0.33069398999214,-0.44006648659706,55.84172439575195,0.06028888374567,-0.09478662163019,10.13531970977783,0.17630277574062,-0.47643756866455,2.59128975868225
430,2468930317,-0.33050361275673,-0.44109141826630,55.83920669555664,0.09563872218132,0.00711415801197,10.10998916625977,0.12786625325680,-0.62062007188797,2.56296014785767
431,2468938650,-0.33179447054863,-0.44150096178055,55.83946609497070,0.12916772067547,-0.09668465703726,10.10201930999756,-0.05282935500145,-0.54800379276276,2.61990070343018
432,2468946983,-0.33075028657913,-0.44088399410248,55.83723449707031,0.11552026867867,-0.09778079390526,10.12445354461670,0.23139899969101,-0.42326235771179,2.67264056205750
433,2468955316,-0.33134797215462,-0.43978631496429,55.83648681640625,0.05059705302119,0.01924483291805,10.13893222808838,0.02940514497459,-0.36598902940750,2.50128149986267
434,2468963649,-0.33214420080185,-0.43905615806580,55.83404541015625,0.05494108423591,-0.10562155395746,10.15395355224609,0.00973340962082,-0.41032728552818,2.52976441383362
435,2468971982,-0.33104881644249,-0.43914318084717,55.83426666259766,0.08233806490898,-0.05967432633042,10.17121887207031,0.23321761190891,-0.50919818878174,2.61539268493652
436,2468980315,-0.33098989725113,-0.43990150094032,55.83081054687500,0.08570685237646,-0.00448764069006,10.13794326782227,0.11236964911222,-0.58655315637589,2.56006598472595
437,2468988648,-0.33130255341530,-0.44102784991264,55.83061218261719,0.12309440225363,-0.11999076604843,10.14453029632568,0.06413804739714,-0.63350403308868,2.56595730781555
438,2468996981,-0.33050003647804,-0.44097566604614,55.82846069335938,0.09606938809156,-0.02400823310018,10.16337871551514,0.20168648660183,-0.49185740947723,2.60773420333862
439,2469005314,-0.33086326718330,-0.44059732556343,55.82853317260742,0.03569481521845,-0.01926187984645,10.14702892303467,0.05847730487585,-0.45195037126541,2.60007524490356
440,2469013647,-0.33111527562141,-0.44092386960983,55.82402801513672,0.05662652477622,-0.10274302214384,10.11737346649170,0.07353847473860,-0.53729707002640,2.54915452003479
441,2469021980,-0.33008837699890,-0.44120562076569,55.82426452636719,0.09951414167881,-0.02222223021090,10.13765716552734,0.22648106515408,-0.53184121847153,2.61746740341187
442,2469030313,-0.33138406276703,-0.44082975387573,55.82215499877930,0.10232034325600,-0.03526023402810,10.15595436096191,-0.05054969340563,-0.45107951760292,2.56744289398193
443,2469038646,-0.33079284429550,-0.44023969769478,55.82331848144531,0.08147305995226,-0.06315649300814,10.15676403045654,0.17274241149426,-0.42992216348648,2.73160457611084
444,2469046979,-0.33200153708458,-0.44089418649673,55.82168197631836,0.04529773443937,-0.03472942113876,10.13037681579590,-0.03974048793316,-0.57379728555679,2.55463600158691
445,2469055312,-0.33224382996559,-0.44134873151779,55.82117462158203,0.02400321513414,-0.05865518748760,10.14770126342773,0.07174547761679,-0.55371570587158,2.52807402610779
446,2469063645,-0.33279821276665,-0.44177988171577,55.81954193115234,0.07370547205210,-0.04465891793370,10.14968872070312,0.03762730583549,-0.54884892702103,2.62740540504456
447,2469071978,-0.33294156193733,-0.44198042154312,55.81923294067383,0.12393874675035,-0.02708373405039,10.14796352386475,0.08460381627083,-0.52349090576172,2.55253553390503
448,2469080311,-0.33370855450630,-0.44252157211304,55.81615447998047,0.10881230980158,-0.05583769083023,10.15409374237061,0.01106535084546,-0.56027299165726,2.47325944900513
449,2469088644,-0.33355894684792,-0.44258835911751,55.81615447998047,0.08275526016951,-0.08272004872561,10.15875148773193,0.12120656669140,-0.50679045915604,2.58813929557800
450,2469096977,-0.33321210741997,-0.44216567277908,55.81368637084961,0.05079381540418,-0.05469456687570,10.15056991577148,0.14577062427998,-0.44772401452065,2.67315292358398
451,2469105310,-0.33342692255974,-0.44318142533302,55.81405258178711,0.06758980453014,-0.03688978776336,10.14996051788330,0.07607427984476,-0.61959552764893,2.63544869422913
452,2469113643,-0.33349639177322,-0.44362625479698,55.81219482421875,0.11057697236538,-0.08137316256762,10.13954544067383,0.09589969366789,-0.55074447393417,2.58063387870789
453,2469121976,-0.33316627144814,-0.44274273514748,55.81319427490234,0.11839121580124,-0.08429195731878,10.14664173126221,0.14295305311680,-0.39308887720108,2.71098518371582
454,2469130309,-0.33331641554832,-0.44236648082733,55.81105041503906,0.07696437090635,0.02194698527455,10.17145538330078,0.08578206598759,-0.45253947377205,2.64805078506470
455,2469138642,-0.33366012573242,-0.44225031137466,55.81025314331055,0.07758918404579,-0.09914045035839,10.13529777526855,0.06070574000478,-0.48384013772011,2.49387884140015
456,2469146975,-0.33280137181282,-0.44244259595871,55.80805969238281,0.06881291419268,-0.07645269483328,10.17948913574219,0.20581039786339,-0.51916217803955,2.59528565406799
457,2469155308,-0.33267226815224,-0.44245842099190,55.80753326416016,0.07579781860113,0.00787229556590,10.14596271514893,0.11746688932180,-0.50015640258789,2.52763843536377
458,2469163641,-0.33290374279022,-0.44265913963318,55.80401611328125,0.12808583676815,-0.13306008279324,10.15025234222412,0.07528023421764,-0.52100628614426,2.57620310783386
459,2469171974,-0.33129522204399,-0.44282054901123,55.80467605590820,0.11823923885822,-0.04899245128036,10.17042446136475,0.29599812626839,-0.51862424612045,2.66959238052368
460,2469180307,-0.33194494247437,-0.44293144345284,55.80254745483398,0.05553545430303,-0.01308285165578,10.19809913635254,0.02569107711315,-0.50996661186218,2.60179138183594
461,2469188640,-0.33180370926857,-0.44237065315247,55.80349731445312,0.02582115493715,-0.13044793903828,10.19044780731201,0.11984901130199,-0.43230429291725,2.70365953445435
462,2469196973,-0.33111116290092,-0.44257315993309,55.80210494995117,0.08543291687965,-0.06125180795789,10.14050483703613,0.18752180039883,-0.52064770460129,2.68806052207947
463,2469205306,-0.33026853203773,-0.44285088777542,55.80113220214844,0.13006038963795,-0.01247091963887,10.19010066986084,0.20253174006939,-0.53258395195007,2.47226023674011
464,2469213639,-0.33009138703346,-0.44137769937515,55.79994583129883,0.17041087150574,-0.08131837844849,10.13403797149658,0.12666240334511,-0.31931987404823,2.70657944679260
465,2469221972,-0.32926064729691,-0.44063806533813,55.80018234252930,0.14820119738579,-0.02655549161136,10.16390800476074,0.20107175409794,-0.41017356514931,2.62008023262024
466,2469230305,-0.32959204912186,-0.44008189439774,55.79811859130859,0.01973849162459,-0.03464793786407,10.18855953216553,0.06331839412451,-0.42782178521156,2.55176711082458
467,2469238638,-0.33005297183990,-0.44029524922371,55.79813003540039,0.15243697166443,-0.05516494810581,10.12908649444580,0.04713018983603,-0.52500212192535,2.59195590019226
468,2469246971,-0.33041334152222,-0.44259753823280,55.79621887207031,1.10917520523071,0.05609892308712,10.16493225097656,0.05988608673215,-0.77010482549667,2.49882245063782
469,2469255304,-0.33082294464111,-0.44441738724709,55.79529953002930,2.07687711715698,-0.03300189599395,10.15150928497314,0.05115162953734,-0.71672475337982,2.47902250289917
470,2469263637,-0.32550880312920,-0.43649089336395,55.79423904418945,-0.37548267841339,-0.26752111315727,10.13199043273926,0.74186515808105,0.47698828577995,2.82338023185730
471,2469271970,-0.32397669553757,-0.43266063928604,55.79524612426758,-3.42581486701965,0.16034457087517,10.09946155548096,0.28685382008553,-0.04063698649406,2.71136927604675
472,2469280303,-0.33064991235733,-0.43786460161209,55.79039382934570,-2.27447581291199,-0.33555027842522,10.12006759643555,-0.70092082023621,-1.12383747100830,2.25505137443542
473,2469288636,-0.32904374599457,-0.44643652439117,55.79154968261719,1.54169237613678,-0.04852196201682,10.22490692138672,0.29633107781410,-1.52820932865143,2.72158932685852
474,2469296969,-0.33345109224319,-0.44838762283325,55.78821563720703,3.46405005455017,0.31485864520073,10.15334892272949,-0.42725822329521,-0.74169862270355,2.27705430984497
475,2469305302,-0.33245223760605,-0.44192391633987,55.78796768188477,1.49318134784698,-0.46574649214745,10.16028690338135,0.22165276110172,0.27890059351921,2.56328034400940
476,2469313635,-0.32341721653938,-0.43296685814857,55.79244232177734,-2.23428297042847,0.04085240885615,10.08321762084961,1.19019126892090,0.57337468862534,3.13303112983704
477,2469321968,-0.33271026611328,-0.42967042326927,55.78598785400391,-3.00679516792297,0.08393839001656,10.14158630371094,-0.66344714164734,-0.86846351623535,2.16821956634521
478,2469330301,-0.33517628908157,-0.43709066510201,55.78406906127930,-0.30869892239571,-0.47587478160858,10.18766117095947,-0.19455294311047,-1.40392923355103,2.49124073982239
479,2469338634,-0.33523410558701,-0.44059070944786,55.78635025024414,2.77033448219299,0.27691769599915,10.13141822814941,0.09963937103748,-0.92235577106476,2.86139178276062
480,2469346967,-0.33727115392685,-0.44047528505325,55.78426742553711,2.67562961578369,-0.07474184036255,10.15802764892578,-0.14122408628464,-0.48304602503777,2.61055159568787
481,2469355300,-0.33128663897514,-0.43116542696953,55.78818893432617,-0.62384098768234,-0.21885560452938,10.19444465637207,0.82531625032425,0.61381953954697,3.06858539581299
482,2469363633,-0.32958015799522,-0.42876541614532,55.78746795654297,-2.77674484252930,0.14982381463051,10.05014610290527,0.30985534191132,-0.19667890667915,2.61974692344666
483,2469371966,-0.33390119671822,-0.43399035930634,55.78454208374023,-1.34279918670654,-0.08053772896528,9.99805927276611,-0.41821640729904,-1.12716710567474,2.23602008819580
484,2469380299,-0.33752879500389,-0.44078508019447,55.77936553955078,1.82271599769592,-0.14385892450809,10.19953250885010,-0.33494451642036,-1.32595920562744,2.21063637733459
485,2469388632,-0.33476525545120,-0.43857645988464,55.78013992309570,2.84466290473938,0.05186412855983,10.30081367492676,0.43621045351028,-0.23632971942425,2.68521690368652
486,2469396965,-0.33255040645599,-0.43531337380409,55.77793502807617,0.58497852087021,0.09393920004368,10.16075897216797,0.36925479769707,-0.09304372221231,2.80281209945679
487,2469405298,-0.33150738477707,-0.42895153164864,55.78023529052734,-2.53469586372375,-0.30829671025276,10.05922889709473,0.23047687113285,0.26098343729973,2.87156033515930
488,2469413631,-0.33194747567177,-0.43113297224045,55.77961730957031,-2.48813271522522,-0.02392802760005,10.12614440917969,0.05432779714465,-0.76014095544815,2.84566473960876
489,2469421964,-0.33790323138237,-0.44116473197937,55.77773284912109,0.69041901826859,0.04778890684247,10.14971351623535,-0.61393481492996,-1.70415341854095,2.35735511779785
490,2469430297,-0.34017163515091,-0.44438922405243,55.77547073364258,3.05151748657227,-0.23842699825764,10.22006797790527,-0.17115432024002,-0.89583235979080,2.35793137550354
491,2469438630,-0.33391964435577,-0.43803963065147,55.77635192871094,1.97123599052429,-0.02057220786810,10.17988109588623,0.85400426387787,0.26103466749191,2.69907450675964
492,2469446963,-0.33190810680389,-0.43286734819412,55.77497482299805,-1.47345018386841,0.07747312635183,10.13541507720947,0.34579214453697,0.14205653965473,2.62476754188538
493,2469455296,-0.33355528116226,-0.43271470069885,55.77522277832031,-3.19045996665955,-0.32923954725266,10.07365036010742,-0.09337669610977,-0.48202151060104,2.62028503417969
494,2469463629,-0.33314830064774,-0.43928965926170,55.77413177490234,-1.12692928314209,-0.02835764363408,10.22784328460693,0.15511982142925,-1.30026829242706,2.77210092544556
495,2469471962,-0.33739808201790,-0.44630518555641,55.77302932739258,2.40444850921631,0.20356905460358,10.21013545989990,-0.40799632668495,-1.34219872951508,2.45486831665039
496,2469480295,-0.33864679932594,-0.44768533110619,55.77112197875977,3.32934260368347,-0.16724851727486,10.09263038635254,-0.04775774851441,-0.66777592897415,2.54456949234009
497,2469488628,-0.33085450530052,-0.43774873018265,55.77441024780273,0.40507379174232,-0.11911869794130,10.12229919433594,1.04093694686890,0.68828016519547,2.99217820167542
498,2469496961,-0.32904061675072,-0.43132513761520,55.77215576171875,-2.71507191658020,0.23330686986446,10.11564922332764,0.32238078117371,0.29218158125877,2.59351825714111
499,2469505294,-0.33468341827393,-0.43592298030853,55.76904296875000,-2.49935173988342,-0.24137930572033,10.13538074493408,-0.57815170288086,-1.04986345767975,2.21504235267639
500,2469513627,-0.33411902189255,-0.44278421998024,55.76625442504883,0.63555508852005,-0.14484317600727,10.09730339050293,0.17114153504372,-1.33783149719238,2.44773483276367
501,2469521960,-0.33680996298790,-0.44545239210129,55.76511764526367,3.13883399963379,0.19996735453606,10.18714714050293,-0.22070506215096,-0.81943774223328,2.45146131515503
502,2469530293,-0.33652168512344,-0.44080644845963,55.76285552978516,2.07059264183044,-0.22567868232727,10.14814186096191,0.13660071790218,0.06595665961504,2.58311891555786
503,2469538626,-0.32967329025269,-0.43352022767067,55.76657485961914,-1.33524489402771,-0.21181268990040,10.15129756927490,0.92710727453232,0.37068924307823,3.04171633720398
504,2469546959,-0.33009284734726,-0.43003699183464,55.76445770263672,-3.14241504669189,0.12491340190172,10.15348148345947,0.05320076271892,-0.06789053231478,2.51285886764526
505,2469555292,-0.33632105588913,-0.43841120600700,55.76088714599609,-0.92790377140045,-0.28194925189018,10.16938591003418,-0.64684909582138,-1.50410640239716,2.15584778785706
506,2469563625,-0.33459609746933,-0.44511219859123,55.75905609130859,2.14396023750305,-0.15581926703453,10.16475296020508,0.31223753094673,-1.31807017326355,2.62656068801880
507,2469571958,-0.33317536115646,-0.44037285447121,55.75984191894531,2.68809866905212,0.22726242244244,10.21390914916992,0.27440524101257,0.06785210967064,2.68949437141418
508,2469580291,-0.33262479305267,-0.43549618124962,55.75802612304688,0.15553694963455,-0.05157519876957,10.15528583526611,0.16982237994671,0.09928077459335,2.66008949279785
509,2469588624,-0.33055931329727,-0.43242630362511,55.75956344604492,-2.49757933616638,-0.28617489337921,10.09920024871826,0.35204204916954,-0.13374473154545,2.77952885627747
510,2469596957,-0.33059632778168,-0.43456012010574,55.75685501098633,-1.92680299282074,0.02897315658629,10.11672496795654,0.09876849502325,-0.75596570968628,2.51165533065796
511,2469605290,-0.33587986230850,-0.44182866811752,55.75488662719727,1.18943154811859,0.05933873727918,10.15031433105469,-0.53271204233170,-1.37216734886169,2.34808254241943
512,2469613623,-0.33670693635941,-0.44418588280678,55.75406646728516,2.88507413864136,-0.15553160011768,10.17779350280762,0.00578881707042,-0.78928983211517,2.64044332504272
513,2469621956,-0.33164978027344,-0.43720120191574,55.75706100463867,1.20029187202454,-0.02739563584328,10.13724613189697,0.71156340837479,0.33562329411507,2.95388460159302
514,2469630289,-0.32985362410545,-0.43169492483139,55.75608825683594,-1.79256880283356,0.01401433069259,10.11972522735596,0.32138183712959,0.17863367497921,2.73787999153137
515,2469638622,-0.33145448565483,-0.43114706873894,55.75626754760742,-2.52060365676880,-0.22533328831196,10.11014175415039,-0.08891981095076,-0.43565970659256,2.61301064491272
516,2469646955,-0.33241611719131,-0.43680906295776,55.75379180908203,-0.09462736546993,0.00185829261318,10.15196514129639,-0.01269185356796,-1.18851327896118,2.45978641510010
517,2469655288,-0.33601593971252,-0.44032666087151,55.75094223022461,2.56396913528442,0.07008323818445,10.13353061676025,-0.33140981197357,-0.92066532373428,2.24570250511169
518,2469663621,-0.33449524641037,-0.43648460507393,55.75077056884766,2.21718549728394,-0.24349594116211,10.20484638214111,0.28600856661797,-0.03436149656773,2.64400386810303
519,2469671954,-0.32758954167366,-0.42916154861450,55.75347900390625,-0.77842247486115,-0.06371524930000,10.15492153167725,0.93489402532578,0.37537664175034,2.92002296447754
520,2469680287,-0.32825595140457,-0.42755550146103,55.75267028808594,-2.87657761573792,0.07141652703285,10.15289783477783,0.02540932036936,-0.29619020223618,2.78690552711487
521,2469688620,-0.33486175537109,-0.43433135747910,55.75123977661133,-1.45942246913910,-0.30625236034393,10.07427978515625,-0.69064944982529,-1.31238389015198,2.41421842575073
522,2469696953,-0.33418765664101,-0.44086852669716,55.75006103515625,1.76122546195984,-0.10232438892126,10.16100215911865,0.18608741462231,-1.29967904090881,2.70055961608887
523,2469705286,-0.33512529730797,-0.43990573287010,55.75017547607422,3.08716893196106,0.27187764644623,10.22669315338135,-0.00951568968594,-0.38417512178421,2.60517287254333
524,2469713619,-0.33564653992653,-0.43531894683838,55.74765014648438,0.88732367753983,-0.22388784587383,10.15882301330566,0.04123892262578,0.06344646215439,2.48875594139099
525,2469721952,-0.33094608783722,-0.43020975589752,55.74965286254883,-2.18472313880920,-0.18976195156574,10.08078384399414,0.66894131898880,0.11073033511639,2.83572626113892
526,2469730285,-0.33316823840141,-0.43147519230843,55.74724578857422,-2.65895390510559,0.22153681516647,10.11238288879395,-0.16340601444244,-0.64592707157135,2.48908901214600
527,2469738618,-0.33925789594650,-0.43720832467079,55.74456405639648,0.27489304542542,-0.27941116690636,10.14999866485596,-0.62912404537201,-1.18669474124908,2.26468253135681
528,2469746951,-0.33609595894814,-0.44146788120270,55.74535751342773,2.89291763305664,0.03505226597190,10.17932701110840,0.48513367772102,-1.02322471141815,2.78787899017334
529,2469755284,-0.33592325448990,-0.43793869018555,55.74532699584961,2.12387990951538,0.20085093379021,10.19419860839844,0.12357586622238,-0.07625357806683,2.58848500251770
530,2469763617,-0.33426862955093,-0.43077126145363,55.74452972412109,-0.88413119316101,-0.40359461307526,10.09183406829834,0.30158200860023,0.37750262022018,2.68870091438293
531,2469771950,-0.32928711175919,-0.42931908369064,55.74571609497070,-2.74130821228027,-0.00497246533632,10.17628860473633,0.70226550102234,-0.32874593138695,2.73490881919861
532,2469780283,-0.33513867855072,-0.43516540527344,55.74091339111328,-1.34117805957794,0.11290541291237,10.13175106048584,-0.60071784257889,-1.20255005359650,2.15748691558838
533,2469788616,-0.33964404463768,-0.44070246815681,55.74006652832031,1.75311446189880,-0.29196739196777,10.15919589996338,-0.43883582949638,-1.16497385501862,2.48545169830322
534,2469796949,-0.33525857329369,-0.44053143262863,55.74029541015625,2.70920038223267,-0.04006793722510,10.18403434753418,0.63231301307678,-0.48166292905807,2.79453873634338
535,2469805282,-0.33155453205109,-0.43460255861282,55.74139404296875,0.48360756039619,0.10982750356197,10.17499923706055,0.54811900854111,0.20896092057228,2.72591829299927
536,2469813615,-0.33174663782120,-0.43059733510017,55.73970413208008,-2.11657309532166,-0.17432337999344,10.12958526611328,0.08019818365574,-0.00417512096465,2.58606457710266
537,2469821948,-0.33198934793472,-0.43403828144073,55.73903656005859,-2.04243779182434,-0.18107235431671,10.13961315155029,0.07446057349443,-0.91377496719360,2.50591731071472
538,2469830281,-0.33440086245537,-0.44021102786064,55.73662567138672,0.58167880773544,0.13115403056145,10.17463016510010,-0.18679180741310,-1.24822020530701,2.44823431968689
539,2469838614,-0.33772903680801,-0.44269132614136,55.73551940917969,2.57948231697083,-0.02764119766653,10.17548751831055,-0.29700988531113,-0.79843413829803,2.45525264739990
540,2469846947,-0.33469918370247,-0.43872225284576,55.73604965209961,1.57066309452057,-0.12561878561974,10.15226078033447,0.46863800287247,-0.01850628666580,2.85055708885193
541,2469855280,-0.33187484741211,-0.43370142579079,55.73814773559570,-1.27636444568634,0.12855826318264,10.09923267364502,0.44463753700256,0.10099693387747,2.84569025039673
542,2469863613,-0.33487987518311,-0.43329700827599,55.73588943481445,-2.31605291366577,-0.19540911912918,10.14069652557373,-0.25810185074806,-0.44267797470093,2.49766969680786
543,2469871946,-0.33525243401527,-0.43795058131218,55.73575210571289,-0.42810308933258,-0.16697931289673,10.12865066528320,0.05857975035906,-1.06039083003998,2.57307815551758
544,2469880279,-0.33631369471550,-0.44155707955360,55.73311614990234,2.13914775848389,0.15889076888561,10.20652580261230,-0.02444878593087,-0.93869769573212,2.40617561340332
545,2469888612,-0.33797624707222,-0.43965002894402,55.73228073120117,2.18685293197632,-0.13500781357288,10.15246295928955,-0.09844830632210,-0.27126756310463,2.49231624603271
546,2469896945,-0.33257248997688,-0.43341645598412,55.73241043090820,-0.30097049474716,-0.25125652551651,10.18817710876465,0.75480031967163,0.26108589768410,2.81590080261230
547,2469905278,-0.32966110110283,-0.43133452534676,55.73487472534180,-2.46987009048462,0.09963992983103,10.11923313140869,0.45370492339134,-0.25290215015411,2.88682675361633
548,2469913611,-0.33445459604263,-0.43546912074089,55.73161315917969,-1.58226788043976,-0.08318546414375,10.12800216674805,-0.47341513633728,-0.99568939208984,2.37282586097717
549,2469921944,-0.33676224946976,-0.44273138046265,55.73019027709961,1.26167309284210,-0.23153416812420,10.13347530364990,-0.17390786111355,-1.37139916419983,2.41624212265015
550,2469930277,-0.33536031842232,-0.44287899136543,55.72949600219727,2.63279414176941,0.12446802109480,10.20935058593750,0.27171581983566,-0.52215898036957,2.59989619255066
551,2469938610,-0.33498424291611,-0.43804949522018,55.72987365722656,1.02503228187561,0.03581611439586,10.14561176300049,0.14940784871578,0.07942974567413,2.63947010040283
552,2469946943,-0.33228009939194,-0.43404191732407,55.72963333129883,-1.69105947017670,-0.25583171844482,10.08440685272217,0.42885911464691,-0.00572478119284,2.71661996841431
553,2469955276,-0.33057826757431,-0.43492242693901,55.73076629638672,-2.41920757293701,0.10899827629328,10.12394332885742,0.30788308382034,-0.60791546106339,2.72666096687317
554,2469963609,-0.33684578537941,-0.44045785069466,55.72849273681641,-0.07785400003195,-0.05853350833058,10.11996650695801,-0.64946174621582,-1.17081391811371,2.43865466117859
555,2469971942,-0.33743482828140,-0.44522598385811,55.72909164428711,2.42526245117188,-0.17954041063786,10.18722820281982,0.03329850360751,-1.07232713699341,2.66008901596069
556,2469980275,-0.33367717266083,-0.44231703877449,55.72830200195312,2.15814304351807,0.10587667673826,10.19329643249512,0.55500924587250,-0.14954869449139,2.74612784385681
557,2469988608,-0.33265656232834,-0.43532186746597,55.72862243652344,-0.46746775507927,-0.05941480398178,10.16194248199463,0.22707018256187,0.33990091085434,2.63380932807922
558,2469996941,-0.33143591880798,-0.43271407485008,55.72601699829102,-2.34254169464111,-0.23120714724064,10.10490226745605,0.24827876687050,-0.17582888901234,2.48391437530518
559,2470005274,-0.33115309476852,-0.43676322698593,55.72516632080078,-1.38955950737000,0.01112687587738,10.15791606903076,0.13552492856979,-0.98664760589600,2.48642516136169
560,2470013607,-0.33547019958496,-0.44180506467819,55.72178649902344,1.27525258064270,0.00948024727404,10.14039611816406,-0.41647467017174,-1.11131203174591,2.35330796241760
561,2470021940,-0.33514213562012,-0.44213461875916,55.72164154052734,2.42291426658630,-0.14136457443237,10.17161655426025,0.14384953677654,-0.54037076234818,2.57346224784851
562,2470030273,-0.33075702190399,-0.43790811300278,55.72338867187500,0.68815201520920,-0.00373706105165,10.16125202178955,0.63190317153931,0.01547099929303,2.87932181358337
563,2470038606,-0.33069983124733,-0.43425968289375,55.72361373901367,-1.74861657619476,-0.03918761014938,10.10964202880859,0.11024367809296,-0.06320312619209,2.62171936035156
564,2470046939,-0.33190861344337,-0.43563342094421,55.72049331665039,-1.96763992309570,-0.19664113223553,10.12693214416504,-0.04278858006001,-0.66086006164551,2.47912502288818
565,2470055272,-0.33309686183929,-0.44007605314255,55.71986770629883,0.24917846918106,0.00517092458904,10.11734580993652,-0.04102120175958,-1.03362405300140,2.51206517219543
566,2470063605,-0.33496955037117,-0.44345134496689,55.71804428100586,2.23897647857666,0.02722197212279,10.17616367340088,-0.12111692130566,-0.91105985641479,2.54456949234009
567,2470071938,-0.33395609259605,-0.43986719846725,55.71892547607422,1.63306403160095,-0.13377650082111,10.14366340637207,0.22530281543732,-0.07050318270922,2.69705080986023
568,2470080271,-0.32921293377876,-0.43456077575684,55.72053909301758,-0.81050235033035,-0.04242340102792,10.14776611328125,0.67521685361862,0.14717939496040,2.89456224441528
569,2470088604,-0.32954245805740,-0.43406710028648,55.72044754028320,-2.11721181869507,0.03486330434680,10.12767314910889,0.06367699056864,-0.44260114431381,2.58012199401855
570,2470096937,-0.33256441354752,-0.43776658177376,55.71648406982422,-0.68458020687103,-0.17051754891872,10.13028240203857,-0.26117554306984,-0.94466572999954,2.27743864059448
571,2470105270,-0.33277425169945,-0.44175064563751,55.71633148193359,1.72266709804535,-0.02305732294917,10.15926361083984,0.07779043167830,-0.97868162393570,2.57236075401306
572,2470113603,-0.33243918418884,-0.44045752286911,55.71554946899414,2.12659788131714,0.12803946435452,10.19257926940918,0.14342691004276,-0.34392234683037,2.63589692115784
573,2470121936,-0.33130532503128,-0.43483951687813,55.71648788452148,0.08332715183496,-0.18459312617779,10.15647506713867,0.23946747183800,0.17369014024734,2.70752716064453
574,2470130269,-0.32814943790436,-0.43160957098007,55.71575546264648,-2.04563808441162,-0.10318490862846,10.13159370422363,0.48399376869202,-0.10197026282549,2.74980330467224
575,2470138602,-0.33034697175026,-0.43465632200241,55.71485900878906,-1.64544498920441,-0.00707960827276,10.11423206329346,-0.16148492693901,-0.86702901124954,2.48150706291199
576,2470146935,-0.33330819010735,-0.43983089923859,55.71183013916016,0.81665772199631,-0.17445458471775,10.13419246673584,-0.25423407554626,-1.12609136104584,2.40553522109985
577,2470155268,-0.33173817396164,-0.44127669930458,55.71234512329102,2.40345597267151,-0.05029637739062,10.20278549194336,0.29220718145370,-0.67540889978409,2.65258455276489
578,2470163601,-0.32925298810005,-0.43778926134109,55.71239471435547,1.24217629432678,0.05265588685870,10.20098495483398,0.40264296531677,-0.07525462657213,2.71860504150391
579,2470171934,-0.32755568623543,-0.43299636244774,55.71301269531250,-1.31348419189453,-0.14504884183407,10.10305881500244,0.30762696266174,0.07520338892937,2.66723608970642
580,2470180267,-0.32671907544136,-0.43376240134239,55.71281051635742,-2.23034882545471,-0.14711739122868,10.10784721374512,0.20557984709740,-0.58645069599152,2.70540118217468
581,2470188600,-0.32826343178749,-0.43833452463150,55.71202087402344,-0.39063775539398,0.09875162690878,10.13017368316650,-0.08442451804876,-1.04851877689362,2.49270057678223
582,2470196933,-0.33225658535957,-0.44266006350517,55.70890808105469,2.02715349197388,-0.03664537146688,10.14687252044678,-0.37734892964363,-1.02625989913940,2.41310429573059
583,2470205266,-0.32981646060944,-0.44149208068848,55.70976257324219,2.14357042312622,-0.09340341389179,10.15102386474609,0.39732798933983,-0.36052033305168,2.69379758834839
584,2470213599,-0.32641366124153,-0.43549379706383,55.70882415771484,-0.12860682606697,0.04679474979639,10.13938045501709,0.51115769147873,0.23196253180504,2.61780047416687
585,2470221932,-0.32640892267227,-0.43305328488350,55.70794677734375,-2.08615684509277,-0.11515951901674,10.13364791870117,0.10291799157858,-0.20815406739712,2.48839712142944
586,2470230265,-0.32704544067383,-0.43602782487869,55.70703506469727,-1.44598662853241,-0.18000097572803,10.14466667175293,0.02766337245703,-0.85598933696747,2.58539843559265
587,2470238598,-0.32790899276733,-0.43884301185608,55.70709991455078,1.05186915397644,-0.06911893188953,10.14884090423584,-0.00147281843238,-0.83780318498611,2.59590029716492
588,2470246931,-0.32637587189674,-0.43867954611778,55.70895385742188,2.62863612174988,0.03101343847811,10.28263187408447,0.28977388143539,-0.48483905196190,2.86192965507507
589,2470255264,-0.32840135693550,-0.43787389993668,55.70970916748047,2.17741894721985,0.19371050596237,10.18986415863037,-0.13909809291363,-0.40451279282570,2.68119573593140
590,2470263597,-0.32708826661110,-0.43694287538528,55.70784759521484,0.70245915651321,-0.29053816199303,10.13748264312744,0.25921607017517,-0.36791002750397,2.44475078582764
591,2470271930,-0.32068246603012,-0.43345120549202,55.70919799804688,-1.30712974071503,-0.07399455457926,10.12419223785400,0.87236946821213,-0.08249063789845,2.75519514083862
592,2470280263,-0.32394266128540,-0.43323001265526,55.70866775512695,-2.07984972000122,0.19606596231461,10.12782382965088,-0.28819856047630,-0.45768794417381,2.48027753829956
593,2470288596,-0.33106711506844,-0.43852260708809,55.70613861083984,0.62667745351791,-0.35224509239197,10.11354827880859,-0.75504362583160,-1.13351964950562,2.28404712677002
594,2470296929,-0.32434388995171,-0.44230610132217,55.70769119262695,2.51820039749146,0.01434937398881,10.24628162384033,0.91430014371872,-0.94827735424042,2.95467877388000
595,2470305262,-0.32509920001030,-0.43565967679024,55.70770645141602,0.97183376550674,0.41670200228691,10.12613201141357,0.01155202090740,0.29779112339020,2.59751415252686
596,2470313595,-0.32537001371384,-0.43108749389648,55.70826339721680,-1.75721991062164,-0.54333442449570,10.12472248077393,0.06977317482233,0.07033669203520,2.66828632354736
597,2470321928,-0.31987714767456,-0.43149924278259,55.71026611328125,-1.90500462055206,0.09106511622667,10.06090068817139,0.76340669393539,-0.55084693431854,2.83096218109131
598,2470330261,-0.32682767510414,-0.43808037042618,55.70645904541016,0.26104164123535,0.26517379283905,10.25181198120117,-0.73473155498505,-1.28223574161530,2.21711707115173
599,2470338594,-0.33220174908638,-0.44028609991074,55.70354080200195,2.53636336326599,-0.41600868105888,10.13289546966553,-0.54444342851639,-0.76257425546646,2.23863291740417
600,2470346927,-0.32390165328979,-0.43323451280594,55.70539093017578,0.96380281448364,-0.30198857188225,10.13483142852783,1.10253918170929,0.36118632555008,2.98597955703735
601,2470355260,-0.32104435563087,-0.42621916532516,55.70767211914062,-2.43861269950867,0.30669701099396,10.13937091827393,0.44705808162689,0.33840247988701,2.86860203742981
602,2470363593,-0.32838562130928,-0.42844292521477,55.70587539672852,-3.03054380416870,-0.43891975283623,10.12871932983398,-0.77978694438934,-0.75581204891205,2.40737962722778
603,2470371926,-0.32620656490326,-0.43722888827324,55.70725631713867,0.44980672001839,-0.11659849435091,10.14052391052246,0.36541265249252,-1.55607736110687,2.75058412551880
604,2470380259,-0.33078625798225,-0.44291818141937,55.70185470581055,3.96355962753296,0.37877008318901,10.19105434417725,-0.44636648893356,-1.18236589431763,2.31142878532410
605,2470388592,-0.33089932799339,-0.43492919206619,55.70292663574219,2.40351772308350,-0.40747019648552,10.16905784606934,0.09049509465694,0.45775195956230,2.72435569763184
606,2470396925,-0.31905835866928,-0.42564564943314,55.70600891113281,-2.17219138145447,-0.02119294740260,10.12438964843750,1.52817094326019,0.63510501384735,3.13556671142578
607,2470405258,-0.32288253307343,-0.42620807886124,55.70330810546875,-3.58830142021179,0.23940041661263,10.10820960998535,-0.35843276977539,-0.56513965129852,2.26714158058167
608,2470413591,-0.32863834500313,-0.43414074182510,55.70231628417969,-0.28583860397339,-0.31097620725632,10.18375301361084,-0.58916574716568,-1.45326197147369,2.53737139701843
609,2470421924,-0.32972574234009,-0.44282847642899,55.70340728759766,4.24684810638428,0.27229112386703,10.21031188964844,-0.02616494148970,-1.54424393177032,2.71672272682190
610,2470430257,-0.33055701851845,-0.43753349781036,55.70195388793945,3.80663108825684,-0.08281995356083,10.17464828491211,0.00202352460474,0.15191802382469,2.53322243690491
611,2470438590,-0.32095259428024,-0.42114666104317,55.70769119262695,-2.17348623275757,-0.28732410073280,10.02928543090820,1.26129603385925,1.46139442920685,3.29124927520752
612,2470446923,-0.32154330611229,-0.41715919971466,55.70560455322266,-5.92934751510620,0.05656049400568,10.09683036804199,0.03001988306642,0.00112702627666,2.36998271942139
613,2470455256,-0.32760035991669,-0.42719519138336,55.70186996459961,-2.42820978164673,-0.29579803347588,10.20768547058105,-0.62694686651230,-1.70284724235535,2.13533091545105
614,2470463589,-0.33127909898758,-0.43981274962425,55.69895553588867,4.26660251617432,0.33279374241829,10.21728801727295,-0.33922213315964,-2.02730274200439,2.44907951354980
615,2470471922,-0.33754783868790,-0.43942129611969,55.69821166992188,6.15532350540161,0.03810836747289,10.19544696807861,-0.65035820007324,-0.45346158742905,2.50161433219910
616,2470480255,-0.32733270525932,-0.42497929930687,55.69969558715820,0.93618208169937,-0.67354637384415,10.17546844482422,1.33250367641449,1.25983607769012,3.15697979927063
617,2470488588,-0.31609803438187,-0.41580507159233,55.70459747314453,-4.30758857727051,0.39607661962509,10.13018894195557,1.45650243759155,0.59647876024246,3.18717956542969
618,2470496921,-0.32834205031395,-0.42431733012199,55.69900894165039,-3.44236898422241,0.00778037216514,10.19322967529297,-1.37162947654724,-1.50425982475281,2.03443622589111
619,2470505254,-0.33088964223862,-0.43675521016121,55.69544982910156,1.90704953670502,-0.39208889007568,10.02691745758057,-0.20625860989094,-1.99139165878296,2.15569424629211
620,2470513587,-0.32810106873512,-0.43346419930458,55.69791412353516,4.19746398925781,0.15238787233829,10.14799308776855,0.44051358103752,-0.10113780200481,2.89817380905151
621,2470521920,-0.32601132988930,-0.42772218585014,55.69866943359375,1.64283740520477,0.09895776957273,10.17810344696045,0.35442417860031,0.18875131011009,2.68580627441406
622,2470530253,-0.32195964455605,-0.42001995444298,55.69984817504883,-2.65720176696777,-0.26524078845978,10.19452857971191,0.59081798791885,0.45114356279373,2.99627661705017
623,2470538586,-0.32159882783890,-0.41760399937630,55.70192337036133,-3.85435390472412,0.13631600141525,10.10864543914795,0.14848572015762,-0.21204744279385,2.84287285804749
624,2470546919,-0.33110895752907,-0.43016958236694,55.69596099853516,0.40617296099663,0.09772916883230,10.11236000061035,-1.04443311691284,-2.00135540962219,1.95236814022064
625,2470555252,-0.33451396226883,-0.43592000007629,55.69130325317383,4.84767341613770,-0.15451033413410,10.16178512573242,-0.30994504690170,-1.18861567974091,2.02910828590393
626,2470563585,-0.32793432474136,-0.42576712369919,55.69306945800781,3.38302707672119,-0.02610462717712,10.23107814788818,0.89521747827530,0.73958539962769,2.98474979400635
627,2470571918,-0.32468509674072,-0.41538104414940,55.69380187988281,-1.61711227893829,0.15863996744156,10.06303977966309,0.49261298775673,0.74499005079269,2.68360352516174
628,2470580251,-0.32596701383591,-0.41199803352356,55.69329833984375,-5.31556844711304,-0.60410660505295,10.16964530944824,-0.05213777348399,-0.06538033485413,2.60921955108643
629,2470588584,-0.32478415966034,-0.41839203238487,55.69684219360352,-3.21674108505249,-0.02585689164698,10.10702133178711,0.24848370254040,-1.27045321464539,3.01284885406494
630,2470596917,-0.33666738867760,-0.43198278546333,55.69034957885742,3.11553525924683,0.34434595704079,10.12781906127930,-1.32875132560730,-2.13283348083496,1.99642479419708
631,2470605250,-0.34328833222389,-0.43499597907066,55.68918609619141,5.61930465698242,-0.18961827456951,10.23929882049561,-0.69116169214249,-0.86141955852509,2.44800376892090
632,2470613583,-0.33452749252319,-0.42268016934395,55.68954086303711,1.78735375404358,-0.65641731023788,10.16054439544678,1.15448474884033,1.00540995597839,2.81254553794861
633,2470621916,-0.31743523478508,-0.41251394152641,55.69615554809570,-3.07855463027954,0.23622760176659,10.06954479217529,2.16017627716064,0.71491885185242,3.39199018478394
634,2470630249,-0.32389986515045,-0.41605496406555,55.69215774536133,-4.16139125823975,0.49844139814377,10.16860103607178,-0.67602366209030,-0.90096789598465,2.34239602088928
635,2470638582,-0.33566671609879,-0.42505067586899,55.68823242187500,-0.29747536778450,-0.42557254433632,10.00825691223145,-1.31182026863098,-1.57823395729065,2.11442947387695
636,2470646915,-0.33258068561554,-0.43165069818497,55.68634796142578,3.85730934143066,-0.27599972486496,10.21123981475830,0.47224962711334,-1.28865218162537,2.59513187408447
637,2470655248,-0.32464098930359,-0.42481335997581,55.69222640991211,3.29345822334290,0.55462265014648,10.30591011047363,1.06208157539368,0.31632304191589,3.29879355430603
638,2470663581,-0.33167812228203,-0.41940909624100,55.68844985961914,0.12962734699249,0.19166131317616,10.15075969696045,-0.74660372734070,0.18028578162193,2.38700318336487
639,2470671914,-0.32743349671364,-0.41806563735008,55.68761825561523,-2.00356507301331,-0.83387368917465,10.11633110046387,0.61323040723801,-0.33860737085342,2.49331545829773
640,2470680247,-0.31971493363380,-0.41621384024620,55.68745040893555,-1.81506800651550,0.50472950935364,10.10763549804688,1.03017902374268,-0.25592464208603,2.79543542861938
641,2470688580,-0.33456644415855,-0.42439979314804,55.68113327026367,0.39897358417511,0.20180258154869,10.04817962646484,-1.68448185920715,-1.47808229923248,1.82596206665039
642,2470696913,-0.33721870183945,-0.42322489619255,55.67945861816406,1.71504020690918,-1.00210094451904,10.30749225616455,-0.22006466984749,-0.34198844432831,2.61377906799316
643,2470705246,-0.31865835189819,-0.41842311620712,55.68851089477539,0.39699339866638,0.14445109665394,10.22451877593994,2.33845162391663,0.06787773221731,3.68002319335938
644,2470713579,-0.32713925838470,-0.41191256046295,55.68257141113281,-2.02312111854553,0.55838638544083,9.96574020385742,-0.91789889335632,0.30862590670586,2.13973641395569
645,2470721912,-0.32855895161629,-0.41375350952148,55.68155288696289,-3.07470107078552,-1.19198071956635,10.14573955535889,-0.06881264597178,-0.72118157148361,2.46857190132141
646,2470730245,-0.32100796699524,-0.42004057765007,55.68214035034180,-0.19669643044472,0.50568747520447,10.10656833648682,1.01263320446014,-1.25229263305664,2.90181112289429
647,2470738578,-0.33270221948624,-0.42497369647026,55.67784881591797,2.37655305862427,0.16569511592388,10.25983142852783,-1.30334198474884,-1.08928382396698,2.07183313369751
648,2470746911,-0.33123275637627,-0.42460966110229,55.67778778076172,2.57536816596985,-0.43560802936554,10.11312389373779,0.27901583909988,-0.44539311528206,2.79948186874390
649,2470755244,-0.32352685928345,-0.41999638080597,55.68065643310547,0.46742293238640,0.05567422136664,10.16470241546631,1.03110098838806,0.05035758018494,2.93954086303711
650,2470763577,-0.32233577966690,-0.41570556163788,55.68003082275391,-1.80737280845642,0.13645115494728,10.16915607452393,0.24548682570457,0.03629536926746,2.77330422401428
651,2470771910,-0.32623547315598,-0.42144078016281,55.67982482910156,-1.63022983074188,0.00747690722346,10.15762138366699,-0.36465704441071,-1.18938434123993,2.56265306472778
652,2470780243,-0.33222970366478,-0.42564201354980,55.67559051513672,1.45722281932831,-0.21260623633862,9.96766853332520,-0.61918568611145,-0.99218016862869,2.29183340072632
653,2470788576,-0.32869425415993,-0.42602938413620,55.67647933959961,4.20179224014282,0.16430260241032,10.36676216125488,0.52821677923203,-0.54823434352875,2.69687151908875
654,2470796909,-0.32958829402924,-0.42406010627747,55.67334747314453,2.92704629898071,0.35688099265099,10.07001972198486,-0.00843989010900,-0.23453675210476,2.45871043205261
655,2470805242,-0.32815212011337,-0.40943646430969,55.67505645751953,-1.35514676570892,-0.62585353851318,10.18223476409912,0.27852916717529,1.25333011150360,2.80634665489197
656,2470813575,-0.31978827714920,-0.40787431597710,55.67570877075195,-3.55939888954163,0.15682147443295,10.25802516937256,1.10704720020294,-0.28107780218124,2.92158508300781
657,2470821908,-0.32930222153664,-0.41764682531357,55.67277145385742,-1.80110228061676,0.28607067465782,10.10146522521973,-1.04056549072266,-1.67105996608734,2.23140978813171
658,2470830241,-0.33376896381378,-0.41890937089920,55.66646575927734,0.86397790908813,-0.59094703197479,9.95363903045654,-0.43996292352676,-0.63475918769836,2.13745665550232
659,2470838574,-0.32791760563850,-0.41429165005684,55.66796112060547,1.50843966007233,0.06987022608519,10.26983833312988,0.80700218677521,0.05112601816654,2.77343273162842
660,2470846907,-0.33241260051727,-0.41564702987671,55.66371154785156,-0.00171599350870,0.10055285692215,10.13606071472168,-0.44009098410606,-0.63839632272720,2.36404013633728
661,2470855240,-0.33110606670380,-0.41278541088104,55.66477203369141,-1.42942214012146,-0.67743772268295,10.25276374816895,0.26054799556732,-0.15807825326920,2.72164034843445
662,2470863573,-0.32557037472725,-0.41220277547836,55.66710281372070,-1.39017093181610,0.21316258609295,10.08245086669922,0.77146238088608,-0.41892084479332,3.13714218139648
663,2470871906,-0.33677279949188,-0.42210447788239,55.66250991821289,0.67160308361053,0.00970454141498,10.15124320983887,-1.24523603916168,-1.68492984771729,2.03370618820190
664,2470880239,-0.33635315299034,-0.42097058892250,55.66255950927734,1.95734405517578,-0.58159220218658,10.11413383483887,0.15424890816212,-0.35389909148216,2.88902950286865
665,2470888572,-0.32667052745819,-0.41865202784538,55.66561889648438,0.74038904905319,0.35983055830002,10.17763900756836,1.26836562156677,-0.22395803034306,2.95890498161316
666,2470896905,-0.33200648427010,-0.41367304325104,55.66081237792969,-2.18660497665405,-0.07257208228111,10.11607933044434,-0.54080611467361,0.12010513991117,2.28540468215942
667,2470905238,-0.32687443494797,-0.41246265172958,55.66537475585938,-3.56160688400269,-0.38940322399139,10.09518718719482,0.72319221496582,-0.35891944169998,3.13828134536743
668,2470913571,-0.33013540506363,-0.41996327042580,55.65913772583008,-0.66055059432983,0.54205799102783,10.07544898986816,-0.29242491722107,-1.39678275585175,2.10213470458984
669,2470921904,-0.33656913042068,-0.42276543378830,55.65687179565430,1.73794925212860,-0.40084695816040,10.14398956298828,-0.67159247398376,-0.83478075265884,2.31854939460754
670,2470930237,-0.32941514253616,-0.41925403475761,55.65729141235352,1.17378413677216,0.13244153559208,10.19911956787109,0.96378678083420,-0.07726533710957,2.89796900749207
671,2470938570,-0.33433452248573,-0.41622582077980,55.65384674072266,-0.94749039411545,0.27832329273224,10.12586498260498,-0.48960334062576,-0.13443630933762,2.17841386795044
672,2470946903,-0.33871266245842,-0.41917711496353,55.64844131469727,-1.89743554592133,-0.68119996786118,10.26660346984863,-0.42807790637016,-0.84807455539703,2.21696329116821
673,2470955236,-0.33174064755440,-0.41405695676804,55.64163970947266,-2.07629489898682,-0.73947060108185,10.02103519439697,0.93356209993362,0.11882444471121,1.77849888801575
674,2470963569,-0.32463759183884,-0.40130743384361,55.65324783325195,-5.38957786560059,-0.19053980708122,10.39761447906494,0.96937078237534,1.00994372367859,4.28953933715820
675,2470971902,-0.33356851339340,-0.41536381840706,55.64173126220703,-4.90383863449097,0.76879554986954,9.70823001861572,-0.97765696048737,-2.18088579177856,1.19925844669342
676,2470980235,-0.33646345138550,-0.43143436312675,55.63328552246094,-2.19425940513611,-1.55549061298370,9.23895263671875,-0.25087863206863,-2.46960949897766,1.87565362453461
677,2470988568,-0.34270551800728,-0.43351146578789,55.64496612548828,3.08265423774719,0.39364656805992,10.89741897583008,-0.63539946079254,-0.75896257162094,3.99133801460266
678,2470996901,-0.34119564294815,-0.44271895289421,55.62843322753906,5.09441614151001,0.43904808163643,10.74545383453369,0.27396982908249,-1.63706970214844,0.78686928749084
679,2471005234,-0.34094697237015,-0.42755988240242,55.63986968994141,1.95295393466949,-0.84260392189026,9.43489456176758,0.14354217052460,1.31126940250397,3.97315192222595
680,2471013567,-0.32973468303680,-0.43968603014946,55.64972686767578,-1.70958042144775,0.09250166267157,10.47451210021973,1.46398174762726,-1.98340010643005,4.04648590087891
681,2471021900,-0.32521370053291,-0.43164905905724,55.64430236816406,-2.58169913291931,0.51814395189285,10.41454696655273,0.64038145542145,0.46756219863892,1.94437646865845
682,2471030233,-0.33673992753029,-0.44214919209480,55.63742446899414,2.94278955459595,0.52204549312592,10.07583427429199,-1.28287625312805,-1.79034531116486,1.99785900115967
683,2471038566,-0.34107372164726,-0.45663246512413,55.62993621826172,5.64011526107788,-0.20989996194839,9.89105224609375,-0.42438948154449,-2.23470139503479,1.68098556995392
684,2471046899,-0.32955572009087,-0.44124132394791,55.63302993774414,2.69837951660156,-0.41300287842751,10.38256931304932,1.49062037467957,1.33965003490448,3.10905575752258
685,2471055232,-0.32099702954292,-0.43071338534355,55.63735961914062,-0.84442293643951,0.91384011507034,10.16960811614990,1.13386547565460,0.75953894853592,3.11955785751343
686,2471063565,-0.33441925048828,-0.43460455536842,55.63242340087891,-2.42903351783752,-0.36424878239632,9.93081760406494,-1.51232850551605,-0.96592569351196,2.23955512046814
687,2471071898,-0.33186930418015,-0.43498361110687,55.63448715209961,0.27384024858475,-0.37610644102097,10.13050842285156,0.41174882650375,-0.54695361852646,2.83882570266724
