sep=,
DeviceTag:,left thigh
FirmwareVersion:,2.2.1
AppVersion:,2023.6.0
StartTime: ,2025-04-02_17:18:43_000 PDT
© Movella Technologies B. V. 2005-2025

PacketCounter,SampleTimeFine,Euler_X,Euler_Y,Euler_Z,Acc_X,Acc_Y,Acc_Z,Gyr_X,Gyr_Y,Gyr_Z
0,2578057645,-0.38024407625198,0.25726544857025,54.63598251342773,0.00000000000000,0.00000000000000,0.00000000000000,0.00000000000000,0.00000000000000,0.00000000000000
1,2578065978,-0.37920698523521,0.25253111124039,54.65824508666992,0.04857628419995,-0.07418441027403,10.15358161926270,0.11140911281109,-0.58687341213226,2.66712069511414
2,2578074311,-0.36446124315262,0.00640539685264,54.73585128784180,-0.07696671038866,-0.09199888259172,10.13533878326416,0.14255602657795,-0.58856391906738,2.60971927642822
3,2578082644,-0.36372861266136,0.00101600401103,54.75756072998047,0.03208508715034,-0.03901570290327,10.12794589996338,0.08833069354296,-0.66389536857605,2.59996008872986
4,2578090977,-0.35822907090187,-0.08684002608061,54.83889770507812,0.18490816652775,-0.03941657766700,10.15163993835449,0.05431498959661,-0.44089788198471,2.71793961524963
5,2578099310,-0.35747864842415,-0.09056545794010,54.86107635498047,0.25141358375549,-0.05611261725426,10.13509273529053,0.09360723197460,-0.46392506361008,2.65889859199524
6,2578107643,-0.34519490599632,-0.24403311312199,54.92721557617188,0.11473058164120,-0.05179465562105,10.17548179626465,0.17577768862247,-0.35588419437408,2.64739775657654
7,2578115976,-0.34397128224373,-0.24909521639347,54.94907379150391,-0.05491323396564,-0.04899077117443,10.15731048583984,0.15876984596252,-0.62306630611420,2.61794137954712
8,2578124309,-0.33430239558220,-0.32108560204506,55.01331710815430,-0.06138722226024,-0.05058565363288,10.13901329040527,0.06876141577959,-0.56218117475510,2.60813117027283
9,2578132642,-0.33356475830078,-0.32577008008957,55.03488540649414,0.08766005188227,-0.06952071934938,10.14619731903076,0.10316132754087,-0.57703745365143,2.58518052101135
10,2578140975,-0.32745164632797,-0.35256326198578,55.10511779785156,0.19825610518456,-0.07364177703857,10.14789104461670,0.19857436418533,-0.46418121457100,2.66704416275024
11,2578149308,-0.32667347788811,-0.35672634840012,55.12638854980469,0.15321113169193,-0.07318779081106,10.16808414459229,0.10820734500885,-0.51310437917709,2.54747629165649
12,2578157641,-0.32629314064980,-0.39809086918831,55.17484664916992,0.00556653691456,-0.07578919082880,10.14995574951172,0.13943108916283,-0.49678811430931,2.60971927642822
13,2578165974,-0.32561877369881,-0.40253046154976,55.19662857055664,-0.07249405235052,-0.08605787158012,10.17203903198242,0.09993394464254,-0.54750430583954,2.60977077484131
14,2578174307,-0.32882234454155,-0.41284704208374,55.26096343994141,0.02905165217817,-0.07560094445944,10.14259529113770,0.14570657908916,-0.57224768400192,2.56056571006775
15,2578182640,-0.32822909951210,-0.41638928651810,55.28219604492188,0.20762683451176,-0.05295810848475,10.16429138183594,0.08881735056639,-0.43925848603249,2.54422378540039
16,2578190973,-0.33053475618362,-0.42996853590012,55.32784652709961,0.23219045996666,-0.04023569449782,10.15691566467285,0.15080381929874,-0.51817595958710,2.55726122856140
17,2578199306,-0.33029231429100,-0.43463414907455,55.35005569458008,0.07704792171717,-0.06817191094160,10.14617729187012,0.04901283979416,-0.57511645555496,2.66230535507202
18,2578207639,-0.33125272393227,-0.45227316021919,55.40460968017578,-0.05776362121105,-0.07058519870043,10.14641666412354,0.12854503095150,-0.39509955048561,2.74416828155518
19,2578215972,-0.33014193177223,-0.45581674575806,55.42690277099609,-0.01490212325007,-0.05242669582367,10.13901996612549,0.15449224412441,-0.43951469659805,2.67201304435730
20,2578224305,-0.33065536618233,-0.46077379584312,55.47380447387695,0.13992004096508,-0.03530704230070,10.20462703704834,0.14552727341652,-0.59197062253952,2.60974478721619
21,2578232638,-0.32998156547546,-0.46543461084366,55.49459457397461,0.24663423001766,-0.06004404649138,10.13849544525146,0.10124026983976,-0.57373327016830,2.49179124832153
22,2578240971,-0.32951894402504,-0.47639375925064,55.53590011596680,0.13906316459179,-0.08633089065552,10.16435146331787,0.11553300917149,-0.37048429250717,2.63108158111572
23,2578249304,-0.32873272895813,-0.48038679361343,55.55757522583008,-0.01051345933229,-0.08645806461573,10.16466999053955,0.11486703902483,-0.49343267083168,2.59829545021057
24,2578257637,-0.32971841096878,-0.48899075388908,55.59496688842773,-0.07175171375275,-0.05629248917103,10.15929985046387,0.13287384808064,-0.48536419868469,2.54419803619385
25,2578265970,-0.32898068428040,-0.49373778700829,55.61658477783203,0.02577492035925,-0.08645896613598,10.19388866424561,0.11105052381754,-0.58359473943710,2.59014987945557
26,2578274303,-0.33023893833160,-0.49694022536278,55.65588760375977,0.18572340905666,-0.09917163848877,10.15689563751221,0.12549693882465,-0.63940817117691,2.59342861175537
27,2578282636,-0.32897546887398,-0.49961835145950,55.67784500122070,0.18504635989666,-0.06239109113812,10.14954471588135,0.17490679025650,-0.33641734719276,2.63261795043945
28,2578290969,-0.33056882023811,-0.50535959005356,55.72544097900391,0.03738541528583,-0.04755277559161,10.14990520477295,0.14514306187630,-0.38047385215759,2.65561985969543
29,2578299302,-0.32944113016129,-0.50877106189728,55.74817276000977,-0.07775909453630,-0.06603711843491,10.11357784271240,0.15971757471561,-0.42483773827553,2.72447085380554
30,2578307635,-0.33111795783043,-0.51094365119934,55.78123855590820,0.00950801093131,-0.03945947065949,10.17743015289307,0.05562131106853,-0.52255606651306,2.60659408569336
31,2578315968,-0.33086028695107,-0.51504117250443,55.80344772338867,0.18009957671165,-0.06186725571752,10.12938690185547,0.05585183948278,-0.50611162185669,2.66071677207947
32,2578324301,-0.33199092745781,-0.51834666728973,55.83362960815430,0.23601354658604,-0.05164629220963,10.14019870758057,0.04368507862091,-0.59133017063141,2.61322832107544
33,2578332634,-0.33196491003036,-0.52256137132645,55.85504150390625,0.11586088687181,-0.06638643890619,10.17898559570312,0.02772741205990,-0.52071177959442,2.56568837165833
34,2578340967,-0.33188942074776,-0.52802395820618,55.87676239013672,-0.01351791899651,-0.06624025851488,10.14823246002197,0.15897476673126,-0.51835530996323,2.60649204254150
35,2578349300,-0.33159321546555,-0.53191268444061,55.89828491210938,-0.03669380024076,-0.07120098918676,10.14281082153320,0.05920730158687,-0.47993391752243,2.57711219787598
36,2578357633,-0.33198696374893,-0.53402984142303,55.92221832275391,0.07970154285431,-0.05271270126104,10.15342998504639,0.11140911281109,-0.51807349920273,2.60162496566772
37,2578365966,-0.33056333661079,-0.53777450323105,55.94364929199219,0.19555199146271,-0.06353691220284,10.13475799560547,0.19373327493668,-0.46461662650108,2.56704592704773
38,2578374299,-0.33041676878929,-0.54132431745529,55.98338699340820,0.14851303398609,-0.07719682157040,10.16603851318359,0.15231506526470,-0.52165955305099,2.58848500251770
39,2578382632,-0.32961675524712,-0.54530251026154,56.00482940673828,-0.00819560233504,-0.06894293427467,10.14273929595947,0.12137306481600,-0.49189582467079,2.56881332397461
40,2578390965,-0.32961881160736,-0.54809004068375,56.02872085571289,-0.09703378379345,-0.05987370759249,10.15952301025391,0.15090624988079,-0.48395535349846,2.52286124229431
41,2578399298,-0.32927039265633,-0.55225878953934,56.05099105834961,0.00988844688982,-0.05421793833375,10.13535690307617,0.06727579236031,-0.51597321033478,2.66730022430420
42,2578407631,-0.32930961251259,-0.55340576171875,56.08255386352539,0.16995330154896,-0.06238993629813,10.16043663024902,0.12552255392075,-0.58864068984985,2.61642980575562
43,2578415964,-0.32838100194931,-0.55756056308746,56.10393905639648,0.21476022899151,-0.05574961006641,10.13829040527344,0.13594755530357,-0.51330924034119,2.55902862548828
44,2578424297,-0.32828277349472,-0.56025892496109,56.12017822265625,0.07625886797905,-0.06037070229650,10.15342998504639,0.12954398989677,-0.51325803995132,2.62621450424194
45,2578432630,-0.32806345820427,-0.56490367650986,56.14228057861328,-0.02914653532207,-0.05277590453625,10.13185310363770,0.05197128280997,-0.57319533824921,2.64935708045959
46,2578440963,-0.32820826768875,-0.56696420907974,56.16689300537109,-0.01034385804087,-0.07678055763245,10.17025661468506,0.08328467607498,-0.55544465780258,2.67060399055481
47,2578449296,-0.32723003625870,-0.57176041603088,56.18875503540039,0.14266487956047,-0.06316257268190,10.14402198791504,0.14352937042713,-0.59048497676849,2.61804366111755
48,2578457629,-0.32757404446602,-0.57301342487335,56.20133972167969,0.22254393994808,-0.04815279319882,10.15282535552979,0.06919685751200,-0.47824338078499,2.60341835021973
49,2578465962,-0.32706525921822,-0.57627630233765,56.22318267822266,0.16234210133553,-0.06336849927902,10.12927341461182,0.08799771219492,-0.40631863474846,2.61970877647400
50,2578474295,-0.32618802785873,-0.57888174057007,56.25495529174805,-0.01247747242451,-0.04676038026810,10.15195274353027,0.20251893997192,-0.45337194204330,2.71788787841797
51,2578482628,-0.32535618543625,-0.58282792568207,56.27655029296875,-0.07476708292961,-0.07265039533377,10.11561775207520,0.12644468247890,-0.48869395256042,2.58692240715027
52,2578490961,-0.32462552189827,-0.58575695753098,56.29555892944336,0.05265130102634,-0.06597102433443,10.13338756561279,0.17823666334152,-0.69091844558716,2.52460312843323
53,2578499294,-0.32470676302910,-0.59002959728241,56.31713867187500,0.17300581932068,-0.05376310646534,10.16581535339355,0.01617538928986,-0.52844727039337,2.58717846870422
54,2578507627,-0.32465440034866,-0.59062033891678,56.33001327514648,0.18790517747402,-0.06874786317348,10.14743423461914,0.09185265749693,-0.35719054937363,2.58368253707886
55,2578515960,-0.32311472296715,-0.59470456838608,56.35209274291992,0.03812890499830,-0.07253711670637,10.13345432281494,0.21165043115616,-0.50602203607559,2.65071487426758
56,2578524293,-0.32298427820206,-0.59578299522400,56.36859130859375,-0.04497961699963,-0.05567952618003,10.15397071838379,0.11125543713570,-0.37378853559494,2.54266119003296
57,2578532626,-0.32296422123909,-0.59973120689392,56.39059829711914,0.00517422053963,-0.05304334312677,10.16838169097900,0.02982777729630,-0.48918071389198,2.64130139350891
58,2578540959,-0.32352995872498,-0.60036295652390,56.40651702880859,0.16131627559662,-0.06768021732569,10.18965053558350,0.01707188785076,-0.44156378507614,2.55931043624878
59,2578549292,-0.32176744937897,-0.60448426008224,56.42729568481445,0.21321964263916,-0.06336340308189,10.15459918975830,0.23743116855621,-0.50982576608658,2.49158644676208
60,2578557625,-0.32107821106911,-0.60605835914612,56.44297409057617,0.11184793710709,-0.04047605395317,10.14955902099609,0.17137205600739,-0.42860302329063,2.56386971473694
61,2578565958,-0.32044464349747,-0.60896497964859,56.46445083618164,-0.01971308700740,-0.05712057650089,10.18500518798828,0.10334063321352,-0.36385020613670,2.57877731323242
62,2578574291,-0.32059755921364,-0.61141347885132,56.47949600219727,-0.05045215040445,-0.05625917017460,10.13022327423096,0.05303427204490,-0.57142794132233,2.51668834686279
63,2578582624,-0.32036468386650,-0.61592400074005,56.50177001953125,0.08047782629728,-0.05582965910435,10.14788627624512,0.05691482499242,-0.55664855241776,2.67573976516724
64,2578590957,-0.32082450389862,-0.61715877056122,56.51966094970703,0.20947572588921,-0.05365566164255,10.13806915283203,0.01346028130502,-0.49053820967674,2.66596770286560
65,2578599290,-0.32096275687218,-0.62088268995285,56.54153823852539,0.15287221968174,-0.07417672127485,10.14387893676758,0.01212834008038,-0.46264436841011,2.62662458419800
66,2578607623,-0.31976699829102,-0.62317359447479,56.54947662353516,0.00346563034691,-0.07006825506687,10.14648056030273,0.21300798654556,-0.51945668458939,2.62284636497498
67,2578615956,-0.31809303164482,-0.62727379798889,56.57148742675781,-0.06536306440830,-0.06602992117405,10.13769149780273,0.23123250901699,-0.50818639993668,2.64739775657654
68,2578624289,-0.31867736577988,-0.62831836938858,56.58570098876953,-0.00251517654397,-0.07663919031620,10.16667175292969,0.00541741074994,-0.46740853786469,2.60044693946838
69,2578632622,-0.31775507330894,-0.63260632753372,56.60763168334961,0.17407971620560,-0.07232483476400,10.15288352966309,0.14068618416786,-0.53159779310226,2.63617849349976
70,2578640955,-0.31722578406334,-0.63326030969620,56.62350845336914,0.18973299860954,-0.05980051308870,10.14179039001465,0.15047082304955,-0.41208180785179,2.58528304100037
71,2578649288,-0.31664907932281,-0.63718557357788,56.64516067504883,0.07995183765888,-0.08029432594776,10.16073322296143,0.09860199689865,-0.48674735426903,2.60349512100220
72,2578657621,-0.31666722893715,-0.63897305727005,56.64905166625977,-0.02688905224204,-0.05511149764061,10.12467861175537,0.08843314647675,-0.50137311220169,2.55108857154846
73,2578665954,-0.31632044911385,-0.64356338977814,56.67085647583008,-0.01292015891522,-0.04617865383625,10.15024280548096,0.07128441333771,-0.56666374206543,2.62497234344482
74,2578674287,-0.31673866510391,-0.64497190713882,56.67679595947266,0.13840073347092,-0.03411288559437,10.14201259613037,0.03415658324957,-0.52842164039612,2.62667536735535
75,2578682620,-0.31576484441757,-0.64834618568420,56.69905090332031,0.22836205363274,-0.05323259159923,10.15432834625244,0.14739711582661,-0.42186641693115,2.68369269371033
76,2578690953,-0.31568804383278,-0.65029317140579,56.71255874633789,0.16463257372379,-0.05851821228862,10.13639640808105,0.07854604721069,-0.51758682727814,2.63640928268433
77,2578699286,-0.31466826796532,-0.65328401327133,56.73399734497070,0.00421736435965,-0.05705159530044,10.15200138092041,0.15278892219067,-0.37448012828827,2.58363103866577
78,2578707619,-0.31413522362709,-0.65464079380035,56.74475860595703,-0.05415993183851,-0.07326850295067,10.18168067932129,0.13187487423420,-0.44307503104210,2.53945922851562
79,2578715952,-0.31368437409401,-0.65884155035019,56.76615142822266,0.04830175638199,-0.08920962363482,10.13530540466309,0.08484716713428,-0.52096796035767,2.57739400863647
80,2578724285,-0.31263095140457,-0.66014820337296,56.77954483032227,0.19813834130764,-0.06453341245651,10.12518024444580,0.20502915978432,-0.49010279774666,2.57867479324341
81,2578732618,-0.31185275316238,-0.66375488042831,56.80065917968750,0.16786743700504,-0.06330928206444,10.14916515350342,0.12362710386515,-0.44945296645164,2.54609346389771
82,2578740951,-0.31115221977234,-0.66579180955887,56.81254959106445,0.04594119265676,-0.06276008486748,10.16824436187744,0.16501972079277,-0.51248961687088,2.48536229133606
83,2578749284,-0.31019073724747,-0.66957384347916,56.83362197875977,-0.06142434105277,-0.05170833319426,10.11766242980957,0.14621886610985,-0.47114828228951,2.54276347160339
84,2578757617,-0.31008377671242,-0.67204630374908,56.84226989746094,0.00153196859173,-0.05177149549127,10.10993576049805,0.09340231120586,-0.61773848533630,2.68079853057861
85,2578765950,-0.30975157022476,-0.67689436674118,56.86340332031250,0.13794423639774,-0.06351006031036,10.16032981872559,0.07029826939106,-0.59937310218811,2.55626225471497
86,2578774283,-0.30892205238342,-0.67827987670898,56.87031555175781,0.21237860620022,-0.05492296814919,10.16713142395020,0.17716087400913,-0.48971858620644,2.56399774551392
87,2578782616,-0.30804902315140,-0.68151026964188,56.89210128784180,0.12883150577545,-0.04819920659065,10.14753532409668,0.13786862790585,-0.40703585743904,2.63297700881958
88,2578790949,-0.30823370814323,-0.68336021900177,56.90383911132812,-0.00323609821498,-0.07091867178679,10.14847469329834,0.04916651919484,-0.49732592701912,2.57268095016479
89,2578799282,-0.30755341053009,-0.68761700391769,56.92477798461914,-0.03343593701720,-0.06602450460196,10.15600872039795,0.11243369430304,-0.52965116500854,2.53313279151917
90,2578807615,-0.30770531296730,-0.68907034397125,56.93202972412109,0.10380792617798,-0.04145997017622,10.16234874725342,0.05902801081538,-0.50073271989822,2.59560585021973
91,2578815948,-0.30675318837166,-0.69230073690414,56.95288467407227,0.21719358861446,-0.06196421384811,10.13960075378418,0.14575780928135,-0.40565267205238,2.52145242691040
92,2578824281,-0.30668598413467,-0.69414287805557,56.96681594848633,0.15858073532581,-0.03581948578358,10.18025779724121,0.08023659139872,-0.50933909416199,2.60702967643738
93,2578832614,-0.30624890327454,-0.69843548536301,56.98769760131836,0.01946816220880,-0.04892564937472,10.16113567352295,0.08438609540462,-0.53405678272247,2.52014613151550
94,2578840947,-0.30626228451729,-0.70046383142471,56.99910354614258,-0.05229806527495,-0.07362954318523,10.14520835876465,0.06353611499071,-0.52867776155472,2.61860752105713
95,2578849280,-0.30504530668259,-0.70423537492752,57.02015304565430,0.00747043173760,-0.06466038525105,10.15391921997070,0.17748105525970,-0.47186550498009,2.54441571235657
96,2578857613,-0.30407205224037,-0.70629292726517,57.02468872070312,0.14401124417782,-0.06041707843542,10.16206169128418,0.18708637356758,-0.57861274480820,2.58708906173706
97,2578865946,-0.30317455530167,-0.71062272787094,57.04609298706055,0.18501725792885,-0.05996447429061,10.14527225494385,0.14030197262764,-0.53833431005478,2.59214806556702
98,2578874279,-0.30169326066971,-0.71189212799072,57.05700683593750,0.09012121707201,-0.06704439222813,10.13866710662842,0.24690841138363,-0.44858208298683,2.57529330253601
99,2578882612,-0.30062279105186,-0.71591633558273,57.07851028442383,-0.02827490121126,-0.06938971579075,10.15972805023193,0.16230459511280,-0.50262814760208,2.60190653800964
100,2578890945,-0.30062922835350,-0.71776568889618,57.08562469482422,-0.00481986533850,-0.04813003167510,10.14486980438232,0.07293654233217,-0.54025548696518,2.57928967475891
101,2578899278,-0.29981681704521,-0.72224986553192,57.10692596435547,0.13801382482052,-0.07016195356846,10.14378643035889,0.13164435327053,-0.55785232782364,2.57913565635681
102,2578907611,-0.29978257417679,-0.72357529401779,57.10767745971680,0.21850155293941,-0.04760411381721,10.14678096771240,0.07754710316658,-0.48293083906174,2.62027239799500
103,2578915944,-0.29924207925797,-0.72684210538864,57.12919616699219,0.15837867558002,-0.05424854904413,10.14360713958740,0.09862761944532,-0.41121092438698,2.60864353179932
104,2578924277,-0.29822155833244,-0.72818583250046,57.13288497924805,-0.00125579396263,-0.07317322492599,10.14308261871338,0.19299045205116,-0.44596940279007,2.60175299644470
105,2578932610,-0.29685443639755,-0.73151469230652,57.15491867065430,-0.03976096585393,-0.04739699885249,10.16165924072266,0.20036734640598,-0.41981723904610,2.67221760749817
106,2578940943,-0.29622083902359,-0.73318636417389,57.16268157958984,0.04704936593771,-0.04524297639728,10.14998340606689,0.14680798351765,-0.52214616537094,2.52004361152649
107,2578949276,-0.29570078849792,-0.73762047290802,57.18378829956055,0.16570492088795,-0.07028006762266,10.12891483306885,0.09545144438744,-0.55385655164719,2.55966901779175
108,2578957609,-0.29542335867882,-0.73809969425201,57.19396591186523,0.17127680778503,-0.05196278542280,10.18193244934082,0.10424993932247,-0.37039461731911,2.55291962623596
109,2578965942,-0.29514974355698,-0.74129426479340,57.21558761596680,0.05553536489606,-0.06709071248770,10.16277980804443,0.06771123409271,-0.40557578206062,2.62196254730225
110,2578974275,-0.29505941271782,-0.74310803413391,57.23159027099609,-0.04166648536921,-0.07929296046495,10.14530849456787,0.08333592116833,-0.52232551574707,2.65318655967712
111,2578982608,-0.29505091905594,-0.74670624732971,57.25273132324219,-0.00791013520211,-0.07696931809187,10.13769531250000,0.03696134313941,-0.45256513357162,2.56313967704773
112,2578990941,-0.29553338885307,-0.74779206514359,57.26083374023438,0.13967496156693,-0.07420577108860,10.16023731231689,0.02022243849933,-0.47181421518326,2.58454012870789
113,2578999274,-0.29509353637695,-0.75259709358215,57.28232574462891,0.23172299563885,-0.04340108111501,10.17404556274414,0.08797209709883,-0.59957802295685,2.60572338104248
114,2579007607,-0.29474690556526,-0.75418519973755,57.29038619995117,0.13697548210621,-0.04640731215477,10.16204738616943,0.12147553265095,-0.49863237142563,2.61860752105713
115,2579015940,-0.29405733942986,-0.75803697109222,57.31155014038086,-0.00871625263244,-0.03784403577447,10.14498519897461,0.11824810504913,-0.48554348945618,2.56778883934021
116,2579024273,-0.29388993978500,-0.76012885570526,57.32198715209961,-0.02480949461460,-0.04243765771389,10.13233184814453,0.09372248500586,-0.56689423322678,2.63030004501343
117,2579032606,-0.29325306415558,-0.76383155584335,57.34373474121094,0.09337200224400,-0.04579072445631,10.16242122650146,0.11407299339771,-0.46733173727989,2.63991832733154
118,2579040939,-0.29305505752563,-0.76576787233353,57.35618591308594,0.18865859508514,-0.05927831307054,10.14693164825439,0.09372249245644,-0.56525498628616,2.62376880645752
119,2579049272,-0.29258495569229,-0.77007532119751,57.37837219238281,0.17858844995499,-0.06047977507114,10.16899871826172,0.09461898356676,-0.54062688350677,2.69261956214905
120,2579057605,-0.29189985990524,-0.77185177803040,57.38831710815430,0.02540823630989,-0.05680410191417,10.15208053588867,0.15189240872860,-0.51589632034302,2.54313468933105
121,2579065938,-0.29141181707382,-0.77638733386993,57.41007614135742,-0.05102859437466,-0.05846982821822,10.14180374145508,0.09534899145365,-0.56855922937393,2.64183950424194
122,2579074271,-0.29091262817383,-0.77866250276566,57.41316223144531,0.01336621493101,-0.07775617390871,10.17604255676270,0.13038925826550,-0.60552054643631,2.60400724411011
123,2579082604,-0.28995907306671,-0.78290891647339,57.43391418457031,0.16514593362808,-0.05926422402263,10.14529418945312,0.15140575170517,-0.53395432233810,2.52515387535095
124,2579090937,-0.28925359249115,-0.78515809774399,57.44077682495117,0.16237606108189,-0.05890398100019,10.15446376800537,0.15798860788345,-0.60297191143036,2.54323744773865
125,2579099270,-0.28850030899048,-0.78844219446182,57.46226501464844,0.05624492466450,-0.07361371815205,10.17382335662842,0.12837854027748,-0.42018875479698,2.61370229721069
126,2579107603,-0.28850853443146,-0.79029273986816,57.47142028808594,-0.03919181600213,-0.08345840126276,10.14547252655029,0.07589498162270,-0.54841363430023,2.58621811866760
127,2579115936,-0.28788778185844,-0.79516464471817,57.49285125732422,-0.00786003749818,-0.05916672945023,10.14512825012207,0.11217755079269,-0.60997742414474,2.60746502876282
128,2579124269,-0.28749504685402,-0.79715669155121,57.49943542480469,0.14419753849506,-0.04818013310432,10.17109489440918,0.12661115825176,-0.59738802909851,2.47620487213135
129,2579132602,-0.28610864281654,-0.80174070596695,57.52090835571289,0.21857400238514,-0.04077129438519,10.15569305419922,0.20488826930523,-0.57625627517700,2.61518764495850
130,2579140935,-0.28514856100082,-0.80380105972290,57.52882003784180,0.13784834742546,-0.06202055886388,10.17485046386719,0.19135116040707,-0.58087956905365,2.55293250083923
131,2579149268,-0.28464388847351,-0.80739539861679,57.55062866210938,0.01476393640041,-0.07571519166231,10.14863967895508,0.09988270699978,-0.45869970321655,2.65656757354736
132,2579157601,-0.28419557213783,-0.80973625183105,57.55958175659180,-0.02476214617491,-0.04587220028043,10.18378257751465,0.13460280001163,-0.61877584457397,2.55494308471680
133,2579165934,-0.28418412804604,-0.81400954723358,57.58068084716797,0.06010849773884,-0.04831679910421,10.16461753845215,0.04000943899155,-0.53924369812012,2.57177162170410
134,2579174267,-0.28494840860367,-0.81510221958160,57.58812713623047,0.19292899966240,-0.07913497090340,10.14683151245117,-0.01452327147126,-0.48864278197289,2.55230498313904
135,2579182600,-0.28387930989265,-0.81851917505264,57.60865783691406,0.19267641007900,-0.09557145088911,10.14137458801270,0.16697919368744,-0.43772169947624,2.50537967681885
136,2579190933,-0.28402712941170,-0.82015740871429,57.61560440063477,0.05482700839639,-0.04771134629846,10.15552616119385,0.06795456260443,-0.52858811616898,2.52738213539124
137,2579199266,-0.28397461771965,-0.82440894842148,57.63676452636719,-0.04602358862758,-0.06055076047778,10.15113067626953,0.04497859627008,-0.53937178850174,2.58488607406616
138,2579207599,-0.28382751345634,-0.82631939649582,57.64225387573242,-0.03409758582711,-0.08858542889357,10.13275527954102,0.10273869335651,-0.58194255828857,2.56167960166931
139,2579215932,-0.28320080041885,-0.83014225959778,57.66299819946289,0.10195751488209,-0.06455593556166,10.14226341247559,0.11498229950666,-0.48886039853096,2.53527116775513
140,2579224265,-0.28285914659500,-0.83115172386169,57.67087936401367,0.16602937877178,-0.04950433596969,10.16350650787354,0.13024838268757,-0.48915511369705,2.63035154342651
141,2579232598,-0.28296503424644,-0.83432936668396,57.69216918945312,0.12235943228006,-0.05433448404074,10.15850067138672,0.02886724099517,-0.41260689496994,2.60294413566589
142,2579240931,-0.28267851471901,-0.83651065826416,57.70048141479492,-0.01038424298167,-0.07987996190786,10.15999221801758,0.12127059698105,-0.61855816841125,2.55674910545349
143,2579249264,-0.28201806545258,-0.84165251255035,57.72183990478516,-0.02146083116531,-0.06074091419578,10.14361190795898,0.12079672515392,-0.64800173044205,2.61093568801880
144,2579257597,-0.28183367848396,-0.84244871139526,57.72852706909180,0.10312122851610,-0.04550410062075,10.14403724670410,0.11399615556002,-0.47727009654045,2.59437608718872
145,2579265930,-0.28095802664757,-0.84713119268417,57.74946975708008,0.20290423929691,-0.05089926719666,10.17040634155273,0.14657744765282,-0.59466010332108,2.55992507934570
146,2579274263,-0.28078275918961,-0.84796565771103,57.75823211669922,0.17888426780701,-0.03469699993730,10.16698169708252,0.10947524756193,-0.46893256902695,2.61739063262939
147,2579282596,-0.28043964505196,-0.85196286439896,57.77954864501953,0.03539280593395,-0.05205017700791,10.15581321716309,0.08360485732555,-0.51247686147690,2.60778522491455
148,2579290929,-0.28020966053009,-0.85185313224792,57.78494644165039,-0.02838116325438,-0.05735785514116,10.16388320922852,0.11447001248598,-0.35428327322006,2.62218022346497
149,2579299262,-0.27919542789459,-0.85538327693939,57.80567932128906,0.03699250519276,-0.04263548552990,10.14113521575928,0.16349565982819,-0.45748308300972,2.54333996772766
150,2579307595,-0.27949914336205,-0.85631459951401,57.81499099731445,0.15378838777542,-0.06395530700684,10.13984394073486,0.04760405793786,-0.49837613105774,2.55551934242249
151,2579315928,-0.27900695800781,-0.86072987318039,57.83629989624023,0.17413851618767,-0.07603025436401,10.15246200561523,0.10171411931515,-0.56383335590363,2.60947561264038
152,2579324261,-0.27857106924057,-0.86152666807175,57.84669113159180,0.06532710790634,-0.06578374654055,10.14453983306885,0.14062215387821,-0.46985468268394,2.62061810493469
153,2579332594,-0.27866658568382,-0.86586511135101,57.86816406250000,-0.03518386185169,-0.07063954323530,10.14208126068115,0.03158235177398,-0.55520135164261,2.63119673728943
154,2579340927,-0.27890196442604,-0.86659944057465,57.87338256835938,-0.00866055954248,-0.07206108421087,10.15643024444580,0.06299822032452,-0.47911429405212,2.57022190093994
155,2579349260,-0.27861419320107,-0.87009632587433,57.89437103271484,0.12049824744463,-0.06514172255993,10.12741374969482,0.07685551792383,-0.45654809474945,2.57834172248840
156,2579357593,-0.27798953652382,-0.87062668800354,57.90142059326172,0.19483177363873,-0.06754154711962,10.16681766510010,0.16901554167271,-0.46249067783356,2.66146016120911
157,2579365926,-0.27724912762642,-0.87420225143433,57.92248916625977,0.14193215966225,-0.06605612486601,10.12899398803711,0.13231034576893,-0.46804895997047,2.58787035942078
158,2579374259,-0.27595511078835,-0.87498676776886,57.93170547485352,0.00951977726072,-0.05576135590672,10.14888381958008,0.25186479091644,-0.47992116212845,2.61675047874451
159,2579382592,-0.27644890546799,-0.87975907325745,57.95246124267578,-0.02399369329214,-0.04428248852491,10.13828277587891,-0.01659802533686,-0.60946512222290,2.54965400695801
160,2579390925,-0.27648267149925,-0.88094854354858,57.96116256713867,0.03855086490512,-0.05722088366747,10.15038394927979,0.09096895903349,-0.55032187700272,2.67849349975586
161,2579399258,-0.27605721354485,-0.88512277603149,57.98269271850586,0.19412137567997,-0.05023708939552,10.16860485076904,0.09604056924582,-0.54069089889526,2.64732098579407
162,2579407591,-0.27623268961906,-0.88684552907944,57.98939895629883,0.18409107625484,-0.04766532033682,10.16687297821045,0.07186073809862,-0.61218023300171,2.55083203315735
163,2579415924,-0.27589863538742,-0.89060765504837,58.01009368896484,0.06486287713051,-0.05657306686044,10.15007495880127,0.08388662338257,-0.49121701717377,2.54894948005676
164,2579424257,-0.27580612897873,-0.89129370450974,58.01463699340820,-0.03144741803408,-0.05391340330243,10.15678024291992,0.10386572778225,-0.48207268118858,2.54718184471130
165,2579432590,-0.27489805221558,-0.89673256874084,58.03660202026367,-0.00380837079138,-0.06641646474600,10.16929054260254,0.15538877248764,-0.69504237174988,2.70134139060974
166,2579440923,-0.27538153529167,-0.89788997173309,58.04428100585938,0.09198451787233,-0.07603406161070,10.17360687255859,0.03803713992238,-0.56177145242691,2.65599155426025
167,2579449256,-0.27476683259010,-0.90197390317917,58.06498336791992,0.16737896203995,-0.05696849152446,10.16892051696777,0.11865794658661,-0.53333961963654,2.55377769470215
168,2579457589,-0.27501219511032,-0.90240889787674,58.07457351684570,0.10636876523495,-0.06764942407608,10.13311481475830,0.06684035062790,-0.47094330191612,2.59504222869873
169,2579465922,-0.27499067783356,-0.90619206428528,58.09550094604492,0.01569042541087,-0.06339787691832,10.14160823822021,0.04779616370797,-0.49820968508720,2.57884097099304
170,2579474255,-0.27355337142944,-0.90702819824219,58.10482406616211,-0.03970826044679,-0.05575083196163,10.16429901123047,0.27015331387520,-0.52684640884399,2.61188340187073
171,2579482588,-0.27215892076492,-0.91064226627350,58.12561416625977,0.06878272444010,-0.05533006414771,10.12259483337402,0.21408377587795,-0.47748774290085,2.56790375709534
172,2579490921,-0.27224287390709,-0.91160893440247,58.13353729248047,0.18801409006119,-0.07393661141396,10.15769672393799,0.08655050396919,-0.56017053127289,2.54918003082275
173,2579499254,-0.27101719379425,-0.91488611698151,58.15443801879883,0.15254321694374,-0.03655835241079,10.14525985717773,0.19250379502773,-0.43900242447853,2.58113384246826
174,2579507587,-0.27116405963898,-0.91578561067581,58.16501617431641,0.05124243721366,-0.05694689974189,10.17230701446533,0.08109465986490,-0.54021698236465,2.61485457420349
175,2579515920,-0.27061265707016,-0.91942369937897,58.18638229370117,-0.02026922069490,-0.03726869076490,10.16039943695068,0.11431634426117,-0.48387855291367,2.63916277885437
176,2579524253,-0.26985260844231,-0.91942071914673,58.19628524780273,0.02508306130767,-0.07148778438568,10.10860538482666,0.18767549097538,-0.44701960682869,2.62878894805908
177,2579532586,-0.26893416047096,-0.92366975545883,58.21723937988281,0.13431574404240,-0.05098417401314,10.15836334228516,0.15739949047565,-0.55760914087296,2.59141802787781
178,2579540919,-0.26860904693604,-0.92388862371445,58.22286224365234,0.16744804382324,-0.06040615215898,10.15793418884277,0.13706177473068,-0.47981870174408,2.58496308326721
179,2579549252,-0.26732611656189,-0.92754483222961,58.24385070800781,0.07538276165724,-0.07036166638136,10.13907527923584,0.20244210958481,-0.48861718177795,2.59926867485046
180,2579557585,-0.26789778470993,-0.92771923542023,58.24980545043945,-0.04562392458320,-0.07819816470146,10.14077281951904,0.03082673437893,-0.47114828228951,2.59880757331848
181,2579565918,-0.26786741614342,-0.93209642171860,58.27075576782227,-0.02378379553556,-0.06852605938911,10.15877628326416,0.05176637321711,-0.57525730133057,2.59554171562195
182,2579574251,-0.26758211851120,-0.93262016773224,58.27820587158203,0.10192625969648,-0.04593267291784,10.18078899383545,0.13645984232426,-0.53892350196838,2.56210231781006
183,2579582584,-0.26727849245071,-0.93726730346680,58.29937362670898,0.18267498910427,-0.05338857322931,10.15953445434570,0.08518014103174,-0.60918337106705,2.62165522575378
184,2579590917,-0.26677116751671,-0.93795031309128,58.30634689331055,0.14827530086040,-0.05812224745750,10.15819168090820,0.16431531310081,-0.55135923624039,2.61449623107910
185,2579599250,-0.26654484868050,-0.94183146953583,58.32688522338867,0.04412715509534,-0.06147533655167,10.15602016448975,0.07481917738914,-0.51871389150620,2.55107522010803
186,2579607583,-0.26716923713684,-0.94245898723602,58.33264541625977,-0.00402480689809,-0.05236991494894,10.15669345855713,0.02788109518588,-0.54817026853561,2.56297326087952
187,2579615916,-0.26741966605186,-0.94532412290573,58.35369491577148,0.07327286899090,-0.05611306428909,10.13912391662598,0.02056823112071,-0.39857026934624,2.61529040336609
188,2579624249,-0.26766896247864,-0.94561547040939,58.36084747314453,0.17202821373940,-0.07057476043701,10.14140319824219,0.07373057305813,-0.51856017112732,2.63318157196045
189,2579632582,-0.26748970150948,-0.94866311550140,58.38161087036133,0.18612706661224,-0.06235164031386,10.13751888275146,0.07034949213266,-0.42173835635185,2.58223509788513
190,2579640915,-0.26706126332283,-0.94913965463638,58.38885116577148,0.07543065398932,-0.05584197491407,10.15192127227783,0.15690000355244,-0.53146976232529,2.63261842727661
191,2579649248,-0.26685258746147,-0.95339643955231,58.40974426269531,-0.02973040193319,-0.04064316675067,10.11314105987549,0.07658656686544,-0.56795728206635,2.60045981407166
192,2579657581,-0.26718902587891,-0.95367103815079,58.41722106933594,0.01016421243548,-0.06173535436392,10.13093662261963,0.06139731779695,-0.52155709266663,2.52999496459961
193,2579665914,-0.26667317748070,-0.95715487003326,58.43807983398438,0.10195735096931,-0.07928756624460,10.17175579071045,0.11271545290947,-0.47742375731468,2.59844899177551
194,2579674247,-0.26681807637215,-0.95679008960724,58.44244003295898,0.17092114686966,-0.06791682541370,10.13774204254150,0.09063596278429,-0.45365369319916,2.59204530715942
195,2579682580,-0.26612070202827,-0.96047317981720,58.46342849731445,0.09709776937962,-0.06209384649992,10.16264247894287,0.13494859635830,-0.50121939182281,2.61643004417419
196,2579690913,-0.26591947674751,-0.95932769775391,58.47315979003906,0.00580485817045,-0.08438175916672,10.14759635925293,0.13197736442089,-0.35841998457909,2.59160995483398
197,2579699246,-0.26444536447525,-0.96307271718979,58.49405670166016,-0.01501974649727,-0.07697867602110,10.15337657928467,0.22804355621338,-0.50971049070358,2.60430169105530
198,2579707579,-0.26374316215515,-0.96345657110214,58.50087738037109,0.06542179733515,-0.07165946811438,10.17415237426758,0.19592328369617,-0.55950456857681,2.51606082916260
199,2579715912,-0.26304408907890,-0.96740388870239,58.52151107788086,0.19231052696705,-0.05004701390862,10.14469242095947,0.13493579626083,-0.53739953041077,2.57722759246826
200,2579724245,-0.26320496201515,-0.96686100959778,58.52709960937500,0.16215094923973,-0.04931675270200,10.16530227661133,0.09645041078329,-0.44548282027245,2.66594266891479
201,2579732578,-0.26259160041809,-0.97070348262787,58.54833602905273,0.08061598986387,-0.07030989974737,10.18125438690186,0.12602204084396,-0.52706408500671,2.65276384353638
202,2579740911,-0.26239812374115,-0.96991854906082,58.55762863159180,0.01256589498371,-0.04839969426394,10.14012813568115,0.14072459936142,-0.41596236824989,2.72302365303040
203,2579749244,-0.26194152235985,-0.97368657588959,58.57769012451172,0.03875790163875,-0.05382182449102,10.15441131591797,0.10556907951832,-0.51827841997147,2.51348686218262
204,2579757577,-0.26166611909866,-0.97309088706970,58.58617401123047,0.13125231862068,-0.05359223112464,10.15113258361816,0.14816555380821,-0.45257794857025,2.59511923789978
205,2579765910,-0.26029446721077,-0.97733479738235,58.60747528076172,0.16509333252907,-0.05414289981127,10.15977859497070,0.21761855483055,-0.57662761211395,2.66367554664612
206,2579774243,-0.26016926765442,-0.97632914781570,58.61350631713867,0.08209357410669,-0.06564965844154,10.15196514129639,0.13099120557308,-0.40092682838440,2.64769244194031
207,2579782576,-0.25950679183006,-0.97888523340225,58.63444900512695,-0.00505588157102,-0.08594045042992,10.16987037658691,0.13347578048706,-0.37485152482986,2.62466549873352
208,2579790909,-0.25979921221733,-0.97883164882660,58.64200973510742,-0.01421812642366,-0.09054831415415,10.15722370147705,0.08324626088142,-0.52700006961823,2.64505386352539
209,2579799242,-0.26011353731155,-0.98307234048843,58.66247940063477,0.09258168190718,-0.04948132485151,10.14443778991699,0.01493309997022,-0.57856160402298,2.57187414169312
210,2579807575,-0.26191744208336,-0.98262435197830,58.66905212402344,0.16424606740475,-0.07925611734390,10.13422203063965,-0.09345354139805,-0.49016681313515,2.73009347915649
211,2579815908,-0.26106923818588,-0.98601078987122,58.68942642211914,0.12817922234535,-0.08178243786097,10.14397335052490,0.15509420633316,-0.47928074002266,2.56403613090515
212,2579824241,-0.26137584447861,-0.98527890443802,58.69671249389648,0.01847588643432,-0.04126514121890,10.16026973724365,0.08753665536642,-0.45186078548431,2.59409451484680
213,2579832574,-0.26176455616951,-0.98861068487167,58.71665191650391,-0.01502854842693,-0.05131468176842,10.14255332946777,0.00723602203652,-0.47332549095154,2.51276946067810
214,2579840907,-0.26233100891113,-0.98829144239426,58.72360992431641,0.05535566806793,-0.05335729941726,10.14508247375488,0.05521148815751,-0.51943111419678,2.59450435638428
215,2579849240,-0.26165941357613,-0.99144500494003,58.74449920654297,0.16709795594215,-0.04770570993423,10.16522312164307,0.13534562289715,-0.45380738377571,2.62822556495667
216,2579857573,-0.26155441999435,-0.99166780710220,58.75114822387695,0.18263804912567,-0.06361522525549,10.14120197296143,0.13611404597759,-0.58680933713913,2.59730935096741
217,2579865906,-0.26200154423714,-0.99505859613419,58.77221298217773,0.08648109436035,-0.05547517538071,10.12811660766602,0.00138316862285,-0.48423710465431,2.65401887893677
218,2579874239,-0.26272583007812,-0.99473136663437,58.77914810180664,-0.01039511244744,-0.05826507136226,10.13156604766846,0.03752485662699,-0.51701056957245,2.62430667877197
219,2579882572,-0.26265975832939,-0.99811744689941,58.79934310913086,0.02450765110552,-0.07379665970802,10.16584968566895,0.06285733729601,-0.48542815446854,2.55181813240051
220,2579890905,-0.26246944069862,-0.99808990955353,58.80396652221680,0.11696615815163,-0.07595762610435,10.16797065734863,0.14825518429279,-0.56936603784561,2.59067487716675
221,2579899238,-0.26221740245819,-1.00062894821167,58.82437515258789,0.18031176924706,-0.07023826241493,10.14675426483154,0.08541066199541,-0.38618582487106,2.58100557327271
222,2579907571,-0.26253482699394,-1.00016844272614,58.83002471923828,0.10766989737749,-0.06754977256060,10.14980220794678,0.08971385657787,-0.51435941457748,2.57959651947021
223,2579915904,-0.26201808452606,-1.00275146961212,58.85054397583008,0.00081018905621,-0.07297395169735,10.12417030334473,0.11814565211535,-0.39084759354591,2.59557986259460
224,2579924237,-0.26221442222595,-1.00171923637390,58.85746383666992,-0.01261798851192,-0.06785695999861,10.13904857635498,0.10708031803370,-0.45603588223457,2.58433556556702
225,2579932570,-0.26180040836334,-1.00557446479797,58.87813568115234,0.07999707758427,-0.06652166694403,10.13380241394043,0.10668329149485,-0.54623633623123,2.61572575569153
226,2579940903,-0.26233795285225,-1.00410807132721,58.88636779785156,0.15200133621693,-0.04877375811338,10.12885951995850,0.06872299313545,-0.41644904017448,2.69459199905396
227,2579949236,-0.26204526424408,-1.00766515731812,58.90657043457031,0.17471145093441,-0.05601390078664,10.16512203216553,0.09125071018934,-0.51284819841385,2.56333160400391
228,2579957569,-0.26235580444336,-1.00655400753021,58.91125488281250,0.05496910959482,-0.06196693331003,10.14157867431641,0.09602776914835,-0.45228335261345,2.61570024490356
229,2579965902,-0.26229870319366,-1.01066803932190,58.93123626708984,-0.01484845951200,-0.06311123818159,10.10799789428711,0.06347207725048,-0.58061069250107,2.54077863693237
230,2579974235,-0.26259040832520,-1.01055920124054,58.93608474731445,0.02456963807344,-0.05510804429650,10.17323684692383,0.09784637391567,-0.58865356445312,2.57497334480286
231,2579982568,-0.26257526874542,-1.01493561267853,58.95633697509766,0.16238768398762,-0.05462291464210,10.11589527130127,0.05897678434849,-0.61479294300079,2.57862353324890
232,2579990901,-0.26245102286339,-1.01349925994873,58.96352767944336,0.16882236301899,-0.08061289042234,10.15249156951904,0.14751237630844,-0.43168950080872,2.56936383247375
233,2579999234,-0.26218807697296,-1.01643478870392,58.98377227783203,0.09049680083990,-0.03665367141366,10.14458179473877,0.08959858864546,-0.44385623931885,2.57809829711914
234,2580007567,-0.26238733530045,-1.01536190509796,58.98855972290039,-0.00934686698020,-0.06616301089525,10.12447071075439,0.10989788174629,-0.47586131095886,2.62723922729492
235,2580015900,-0.26129212975502,-1.01820087432861,59.00845718383789,-0.01919661834836,-0.06667874008417,10.15763187408447,0.18989111483097,-0.43208652734756,2.53948473930359
236,2580024233,-0.26079025864601,-1.02090084552765,59.02832031250000,0.06512091308832,-0.05748063698411,10.16526889801025,0.11692898720503,-0.41073706746101,2.52535867691040
237,2580032566,-0.34923332929611,-0.42260158061981,56.40918731689453,0.16492609679699,-0.07397314161062,10.13788986206055,-0.00331704318523,-0.57254219055176,2.56944084167480
238,2580040899,-0.34922540187836,-0.42277294397354,56.41300201416016,0.13184766471386,-0.06884244829416,10.17327022552490,0.11779986321926,-0.52865219116211,2.67661070823669
239,2580049232,-0.34945434331894,-0.42215648293495,56.41307067871094,0.02941233851016,-0.04466082900763,10.14209365844727,0.08224730938673,-0.43197122216225,2.60619711875916
240,2580057565,-0.34930321574211,-0.42179453372955,56.41008377075195,-0.00024971252424,-0.05994060635567,10.17382526397705,0.13332208991051,-0.46388658881187,2.61075639724731
241,2580065898,-0.34922671318054,-0.42216986417770,56.41019439697266,0.07409388571978,-0.05745649337769,10.16514682769775,0.12110411375761,-0.55030906200409,2.61267757415771
242,2580074231,-0.34922546148300,-0.42356544733047,56.40917968750000,0.15628980100155,-0.04668867215514,10.13248252868652,0.11377842724323,-0.67791914939880,2.63762593269348
243,2580082564,-0.34950074553490,-0.42361211776733,56.40891265869141,0.15840752422810,-0.05403807759285,10.13613891601562,0.07826429605484,-0.51064544916153,2.56707167625427
244,2580090897,-0.34860998392105,-0.42327743768692,56.40596389770508,0.07899138331413,-0.06474180519581,10.13764476776123,0.22079472243786,-0.46460384130478,2.66252326965332
245,2580099230,-0.34824201464653,-0.42352426052094,56.40551376342773,0.00237325648777,-0.04970411583781,10.15734481811523,0.15404401719570,-0.53558087348938,2.54679775238037
246,2580107563,-0.34834524989128,-0.42351189255714,56.40222930908203,0.00772403972223,-0.04252182319760,10.17187881469727,0.10184219479561,-0.50509989261627,2.60468578338623
247,2580115896,-0.34947794675827,-0.42367231845856,56.40247344970703,0.09770428389311,-0.04919782280922,10.15740585327148,-0.02529405802488,-0.52528399229050,2.62891697883606
248,2580124229,-0.34994879364967,-0.42445030808449,56.40147018432617,0.14798063039780,-0.06513132900000,10.13088893890381,0.05709413066506,-0.60128140449524,2.69725561141968
249,2580132562,-0.34988647699356,-0.42483988404274,56.40135574340820,0.11155059933662,-0.07425065338612,10.15175533294678,0.11751811206341,-0.55187147855759,2.58498835563660
250,2580140895,-0.35030728578568,-0.42475450038910,56.39990997314453,-0.00547728314996,-0.05362924560905,10.14292430877686,0.06285733729601,-0.49511033296585,2.58870267868042
251,2580149228,-0.35006847977638,-0.42428752779961,56.40073776245117,-0.01312068197876,-0.06550483405590,10.15411281585693,0.13980250060558,-0.45100268721581,2.69623136520386
252,2580157561,-0.34961545467377,-0.42367780208588,56.40053176879883,0.05218133330345,-0.06239022314548,10.15287303924561,0.16785009205341,-0.43612080812454,2.63196516036987
253,2580165894,-0.34913015365601,-0.42465066909790,56.40079879760742,0.16714148223400,-0.06761608272791,10.18915557861328,0.16856728494167,-0.62323278188705,2.63237500190735
254,2580174227,-0.34886014461517,-0.42498546838760,56.39958572387695,0.14783069491386,-0.05832570046186,10.14553833007812,0.14582183957100,-0.54669749736786,2.60783672332764
255,2580182560,-0.34816524386406,-0.42494782805443,56.40018081665039,0.04401586204767,-0.03857272863388,10.15847396850586,0.19456574320793,-0.50297397375107,2.67130851745605
256,2580190893,-0.34746727347374,-0.42549741268158,56.39678573608398,-0.00883739721030,-0.05519732832909,10.13576507568359,0.19541101157665,-0.57051867246628,2.59595155715942
257,2580199226,-0.34743568301201,-0.42604589462280,56.39714050292969,0.03087008930743,-0.03486653044820,10.14044189453125,0.11531528830528,-0.57296484708786,2.64108371734619
258,2580207559,-0.34775367379189,-0.42608529329300,56.39649581909180,0.13139274716377,-0.02233447879553,10.18789100646973,0.07289811968803,-0.51365512609482,2.53470802307129
259,2580215892,-0.34687909483910,-0.42606329917908,56.39662551879883,0.15138836205006,-0.06292098015547,10.15832805633545,0.21536448597908,-0.50422900915146,2.61541843414307
260,2580224225,-0.34654834866524,-0.42519566416740,56.39429092407227,0.10095816850662,-0.03560506552458,10.13543319702148,0.14989450573921,-0.40082436800003,2.61421465873718
261,2580232558,-0.34590873122215,-0.42469033598900,56.39387893676758,0.00026660785079,-0.05820797756314,10.15582942962646,0.18805970251560,-0.44554686546326,2.54828333854675
262,2580240891,-0.34608456492424,-0.42375031113625,56.39087677001953,0.00211577583104,-0.06364091485739,10.15398979187012,0.08693470805883,-0.39454883337021,2.52128577232361
263,2580249224,-0.34587687253952,-0.42387786507607,56.39144897460938,0.07356283813715,-0.07074040919542,10.14345169067383,0.13611404597759,-0.52146744728088,2.66884970664978
264,2580257557,-0.34619092941284,-0.42352923750877,56.38824462890625,0.15529163181782,-0.07148025184870,10.14732646942139,0.07253951579332,-0.46752378344536,2.59713006019592
265,2580265890,-0.34590828418732,-0.42395347356796,56.38786315917969,0.12429224699736,-0.07908438891172,10.16629600524902,0.14468201994896,-0.55664855241776,2.55398273468018
266,2580274223,-0.34534433484077,-0.42498761415482,56.38670349121094,0.03947267681360,-0.06474051624537,10.13865280151367,0.17812140285969,-0.63035345077515,2.66052508354187
267,2580282556,-0.34522578120232,-0.42512208223343,56.38634490966797,-0.02739237062633,-0.04460333287716,10.14728164672852,0.12522798776627,-0.52118563652039,2.55745315551758
268,2580290889,-0.34524509310722,-0.42623934149742,56.38457489013672,0.04865691065788,-0.05026685446501,10.16591262817383,0.10829699039459,-0.64483839273453,2.64820456504822
269,2580299222,-0.34493798017502,-0.42685374617577,56.38486480712891,0.13097330927849,-0.02908292412758,10.16784858703613,0.14762763679028,-0.57962447404861,2.63453960418701
270,2580307555,-0.34469273686409,-0.42628887295723,56.38512420654297,0.17238144576550,-0.05904813483357,10.14695453643799,0.14002022147179,-0.43971955776215,2.62611246109009
271,2580315888,-0.34538403153419,-0.42541584372520,56.38468933105469,0.09574642777443,-0.06360857933760,10.17603302001953,0.02633143216372,-0.40113171935081,2.54677224159241
272,2580324221,-0.34528100490570,-0.42569452524185,56.38223266601562,0.03289493918419,-0.05503087490797,10.17914581298828,0.12128341943026,-0.53903877735138,2.58388733863831
273,2580332554,-0.34448182582855,-0.42577111721039,56.38177871704102,0.03296506032348,-0.07152791321278,10.14074325561523,0.20744968950748,-0.51572984457016,2.54359602928162
274,2580340887,-0.34461969137192,-0.42499342560768,56.37852478027344,0.11829536408186,-0.05447398498654,10.14076137542725,0.09159650653601,-0.41434866189957,2.57251429557800
275,2580349220,-0.34535777568817,-0.42503231763840,56.37934112548828,0.18402434885502,-0.04843851923943,10.14120292663574,0.02377001009881,-0.51060700416565,2.69492506980896
276,2580357553,-0.34476718306541,-0.42453417181969,56.37927627563477,0.12041369825602,-0.04706262797117,10.14252853393555,0.17996560037136,-0.44503450393677,2.70140504837036
277,2580365886,-0.34455296397209,-0.42488846182823,56.37920761108398,0.02424990199506,-0.06750223785639,10.19591236114502,0.13712580502033,-0.54973268508911,2.59048271179199
278,2580374219,-0.34368956089020,-0.42481759190559,56.37750625610352,-0.01600547134876,-0.05954502522945,10.13264656066895,0.21277745068073,-0.49616059660912,2.64213395118713
279,2580382552,-0.34365490078926,-0.42395019531250,56.37763595581055,0.05453754588962,-0.08142492920160,10.15323066711426,0.11575072258711,-0.40238684415817,2.61664795875549
280,2580390885,-0.34421962499619,-0.42411392927170,56.37644195556641,0.14987803995609,-0.04177761822939,10.16022968292236,0.04126452654600,-0.52656465768814,2.57018351554871
281,2580399218,-0.34336438775063,-0.42360499501228,56.37659072875977,0.15217058360577,-0.06028916686773,10.15659046173096,0.21369957923889,-0.44383063912392,2.61744189262390
282,2580407551,-0.34264394640923,-0.42398738861084,56.37494277954102,0.05983407795429,-0.06653906404972,10.14760875701904,0.19484749436378,-0.54954063892365,2.61628937721252
283,2580415884,-0.34174168109894,-0.42344158887863,56.37591934204102,0.00663514481857,-0.04947208613157,10.12489223480225,0.21979576349258,-0.44231945276260,2.71759366989136
284,2580424217,-0.34255468845367,-0.42403480410576,56.37483978271484,0.04451815783978,-0.04955517500639,10.14057731628418,0.01098850648850,-0.57725512981415,2.61178088188171
285,2580432550,-0.34237170219421,-0.42388254404068,56.37476348876953,0.15475437045097,-0.06504160165787,10.16940021514893,0.13391122221947,-0.48719552159309,2.59059810638428
286,2580440883,-0.34250089526176,-0.42370298504829,56.37323379516602,0.16458502411842,-0.04576893523335,10.15264797210693,0.09299248456955,-0.48328942060471,2.58118510246277
287,2580449216,-0.34187412261963,-0.42309519648552,56.37328338623047,0.09619677066803,-0.05096132680774,10.13949584960938,0.18638196587563,-0.43259879946709,2.60636353492737
288,2580457549,-0.34199795126915,-0.42247822880745,56.37203979492188,0.00451616430655,-0.05338162928820,10.14517784118652,0.09227528423071,-0.42755278944969,2.53513050079346
289,2580465882,-0.34267893433571,-0.42219889163971,56.37292480468750,0.02079706452787,-0.04936914145947,10.16863155364990,0.03083954192698,-0.47300526499748,2.70506834983826
290,2580474215,-0.34218898415565,-0.42320162057877,56.37087631225586,0.07218645513058,-0.07338891178370,10.16210651397705,0.16577532887459,-0.62528187036514,2.60550546646118
291,2580482548,-0.34253865480423,-0.42311349511147,56.37067794799805,0.15240444242954,-0.05273387581110,10.14746952056885,0.06920966506004,-0.49677523970604,2.57507586479187
292,2580490881,-0.34215599298477,-0.42280596494675,56.36994171142578,0.13656291365623,-0.05261253193021,10.14964485168457,0.15549123287201,-0.46694755554199,2.65615797042847
293,2580499214,-0.34247490763664,-0.42293307185173,56.36986541748047,0.03033244423568,-0.08820675313473,10.16496181488037,0.07123319059610,-0.52154427766800,2.58993244171143
294,2580507547,-0.34256550669670,-0.42301523685455,56.36872482299805,0.00314914854243,-0.05374148488045,10.14347553253174,0.09881971031427,-0.51301467418671,2.66680049896240
295,2580515880,-0.34241729974747,-0.42322269082069,56.36832046508789,0.05438453331590,-0.05002848058939,10.15698623657227,0.12781502306461,-0.52976638078690,2.55161309242249
296,2580524213,-0.34212595224380,-0.42358344793320,56.36771011352539,0.13792900741100,-0.05547340214252,10.17713260650635,0.14269691705704,-0.54877221584320,2.51050233840942
297,2580532546,-0.34168192744255,-0.42445236444473,56.36841964721680,0.15617640316486,-0.07766175270081,10.16582298278809,0.16574972867966,-0.61037439107895,2.68444848060608
298,2580540879,-0.34131813049316,-0.42410230636597,56.36594390869141,0.05861939489841,-0.06798407435417,10.16983222961426,0.15187960863113,-0.46039029955864,2.58738374710083
299,2580549212,-0.34095123410225,-0.42367863655090,56.36603546142578,0.01172096747905,-0.04759142175317,10.16534137725830,0.15408243238926,-0.45554912090302,2.61038517951965
300,2580557545,-0.34101226925850,-0.42455124855042,56.36453628540039,0.03818424418569,-0.04315571114421,10.13908958435059,0.10222641378641,-0.60865825414658,2.58017325401306
301,2580565878,-0.34063267707825,-0.42488020658493,56.36498641967773,0.10161177068949,-0.05948881059885,10.13771438598633,0.15596507489681,-0.54587781429291,2.65496683120728
302,2580574211,-0.34109464287758,-0.42462688684464,56.36446380615234,0.16465550661087,-0.03335434198380,10.14901351928711,0.05245795100927,-0.47443968057632,2.57223272323608
303,2580582544,-0.34102469682693,-0.42382940649986,56.36321258544922,0.10969845205545,-0.05434943735600,10.16317844390869,0.11885005235672,-0.40966129302979,2.44984793663025
304,2580590877,-0.34069743752480,-0.42337313294411,56.36133956909180,0.02615384012461,-0.06104097142816,10.14865398406982,0.14697447419167,-0.44690436124802,2.65655469894409
305,2580599210,-0.34105679392815,-0.42358735203743,56.36109542846680,-0.01859061419964,-0.08685554563999,10.14979171752930,0.06879983097315,-0.53120082616806,2.57061910629272
306,2580607543,-0.33998516201973,-0.42326629161835,56.35861587524414,0.06255651265383,-0.08889369666576,10.12963390350342,0.23634256422520,-0.46561560034752,2.52592229843140
307,2580615876,-0.33946779370308,-0.42298531532288,56.35882186889648,0.13757118582726,-0.07506015151739,10.16631126403809,0.17297293245792,-0.47313338518143,2.62192416191101
308,2580624209,-0.33998149633408,-0.42295819520950,56.35666656494141,0.12540735304356,-0.06043893471360,10.17387771606445,0.04748879000545,-0.50038689374924,2.56106472015381
309,2580632542,-0.34047704935074,-0.42208614945412,56.35718154907227,0.05049741640687,-0.07002598792315,10.14635658264160,0.05122847110033,-0.40181049704552,2.66098594665527
310,2580640875,-0.34059882164001,-0.42270123958588,56.35658645629883,-0.02146152406931,-0.07601213455200,10.14808940887451,0.09428599476814,-0.57697337865829,2.60184288024902
311,2580649208,-0.34038212895393,-0.42280352115631,56.35612487792969,0.04974609613419,-0.04367064684629,10.15363121032715,0.13649825751781,-0.51888036727905,2.54374980926514
312,2580657541,-0.34010773897171,-0.42326691746712,56.35353851318359,0.12199369817972,-0.03358568251133,10.16106700897217,0.14223584532738,-0.56029862165451,2.54216170310974
313,2580665874,-0.34015038609505,-0.42307853698730,56.35382461547852,0.17359985411167,-0.05436969175935,10.15626716613770,0.10515923798084,-0.48392978310585,2.63438558578491
314,2580674207,-0.33982264995575,-0.42266047000885,56.35277175903320,0.09669221192598,-0.05412892252207,10.15076923370361,0.14917731285095,-0.45225772261620,2.58130002021790
315,2580682540,-0.33972808718681,-0.42182233929634,56.35292053222656,0.02247832901776,-0.05028762295842,10.16720104217529,0.12120655179024,-0.40612652897835,2.61764645576477
316,2580690873,-0.33967894315720,-0.42238289117813,56.35397720336914,-0.00110595754813,-0.05446898937225,10.17877483367920,0.11513596773148,-0.57149189710617,2.67404890060425
317,2580699206,-0.33948084712029,-0.42257070541382,56.35339355468750,0.08611661195755,-0.07043545693159,10.16944503784180,0.13403929769993,-0.52871626615524,2.52920103073120
318,2580707539,-0.33940687775612,-0.42240354418755,56.35137176513672,0.14387103915215,-0.08117075264454,10.14064598083496,0.11741565167904,-0.48327654600143,2.55063986778259
319,2580715872,-0.33909180760384,-0.42241525650024,56.35151672363281,0.11822908371687,-0.07039322704077,10.14305782318115,0.14948469400406,-0.50807118415833,2.61608457565308
320,2580724205,-0.33958724141121,-0.42191419005394,56.35094833374023,0.03345323354006,-0.05618236586452,10.12308120727539,0.04971722885966,-0.44285729527473,2.59251904487610
321,2580732538,-0.33927017450333,-0.42158198356628,56.35149002075195,-0.01215036027133,-0.07958909869194,10.16458415985107,0.14935660362244,-0.46687063574791,2.66695427894592
322,2580740871,-0.33835846185684,-0.42093977332115,56.35084533691406,0.03978782147169,-0.08022551238537,10.15235233306885,0.21845102310181,-0.42857739329338,2.61673760414124
323,2580749204,-0.33816766738892,-0.42105695605278,56.35123443603516,0.12977825105190,-0.04672943428159,10.16470146179199,0.13428263366222,-0.52019947767258,2.64596319198608
324,2580757537,-0.33778056502342,-0.42081549763680,56.34936904907227,0.14041827619076,-0.05698522552848,10.16998004913330,0.15591384470463,-0.47579726576805,2.57338571548462
325,2580765870,-0.33779880404472,-0.42070329189301,56.34972381591797,0.05773152038455,-0.07051535695791,10.15192890167236,0.10970577597618,-0.49239528179169,2.64134001731873
326,2580774203,-0.33757197856903,-0.41956138610840,56.34954452514648,-0.00667108921334,-0.07504294812679,10.15904045104980,0.13670317828655,-0.36775642633438,2.59966564178467
327,2580782536,-0.33723217248917,-0.41988533735275,56.34971618652344,0.03272333368659,-0.06301180273294,10.17451858520508,0.15212294459343,-0.54441779851913,2.61969614028931
328,2580790869,-0.33741080760956,-0.41998708248138,56.34693145751953,0.13307927548885,-0.04601559787989,10.15733337402344,0.08862525224686,-0.51931583881378,2.53498983383179
329,2580799202,-0.33707088232040,-0.41975173354149,56.34711837768555,0.16681596636772,-0.06118654087186,10.15290641784668,0.15148258209229,-0.47705233097076,2.62287211418152
330,2580807535,-0.33711746335030,-0.41900160908699,56.34818267822266,0.10494716465473,-0.04567302018404,10.15988159179688,0.10453169792891,-0.41460481286049,2.75637340545654
331,2580815868,-0.33687156438828,-0.41898003220558,56.34809875488281,0.01719219610095,-0.06945130974054,10.14203071594238,0.14112164080143,-0.50444680452347,2.58861303329468
332,2580824201,-0.33658969402313,-0.41892436146736,56.34708786010742,-0.00333976885304,-0.05162241682410,10.16263866424561,0.14338849484921,-0.49633988738060,2.59846162796021
333,2580832534,-0.33761477470398,-0.41956225037575,56.34665298461914,0.06028903275728,-0.04857738316059,10.15006065368652,-0.01233325432986,-0.58350503444672,2.54646468162537
334,2580840867,-0.33757647871971,-0.42034617066383,56.34521102905273,0.13271054625511,-0.08349811285734,10.16488742828369,0.11370158940554,-0.59962922334671,2.59095668792725
335,2580849200,-0.33764421939850,-0.42016723752022,56.34516143798828,0.12836934626102,-0.04014970734715,10.17947196960449,0.10312291234732,-0.48399382829666,2.59410738945007
336,2580857533,-0.33816519379616,-0.41962501406670,56.34397125244141,0.04772745445371,-0.06479106843472,10.15781593322754,0.04687404632568,-0.43929690122604,2.59469628334045
337,2580865866,-0.33883291482925,-0.41964134573936,56.34365844726562,0.00426998082548,-0.06273391842842,10.15527057647705,0.03050655312836,-0.50732833147049,2.56065511703491
338,2580874199,-0.33985775709152,-0.41989880800247,56.34400939941406,0.01916391216218,-0.06643940508366,10.14942550659180,-0.01281992346048,-0.53581136465073,2.52843213081360
339,2580882532,-0.33967283368111,-0.42054960131645,56.34402847290039,0.11008179187775,-0.04477988928556,10.16900730133057,0.13275858759880,-0.58455526828766,2.59905099868774
340,2580890865,-0.33972749114037,-0.42160362005234,56.34359741210938,0.16903732717037,-0.06344895809889,10.15293979644775,0.10235448926687,-0.63335037231445,2.65217471122742
341,2580899198,-0.33946552872658,-0.42213034629822,56.34420394897461,0.09816510230303,-0.06129926815629,10.15475940704346,0.14297865331173,-0.56857192516327,2.67289686203003
342,2580907531,-0.33961653709412,-0.42233374714851,56.34296798706055,0.00347536546178,-0.04123132303357,10.14615726470947,0.09164772927761,-0.52938216924667,2.56667423248291
343,2580915864,-0.33947607874870,-0.42253655195236,56.34337234497070,0.02140191011131,-0.05252482742071,10.15491294860840,0.12881399691105,-0.52992010116577,2.64838385581970
344,2580924197,-0.34003576636314,-0.42282012104988,56.34272384643555,0.08843029290438,-0.02964457683265,10.17141819000244,0.04290384054184,-0.54065239429474,2.66595506668091
345,2580932530,-0.33879852294922,-0.42275869846344,56.34314346313477,0.15598560869694,-0.05146254971623,10.15143966674805,0.25901111960411,-0.49915736913681,2.64994597434998
346,2580940863,-0.33902907371521,-0.42279610037804,56.34152221679688,0.11724014580250,-0.06998913735151,10.15070343017578,0.08229853957891,-0.50883960723877,2.63094091415405
347,2580949196,-0.33896315097809,-0.42204985022545,56.34113311767578,0.05132782831788,-0.05725006014109,10.15421104431152,0.11872197687626,-0.41620573401451,2.55302190780640
348,2580957529,-0.33925890922546,-0.42162257432938,56.34085083007812,0.00259757228196,-0.04119191318750,10.16460514068604,0.07197599858046,-0.45251384377480,2.55706906318665
349,2580965862,-0.33997523784637,-0.42178589105606,56.34107589721680,0.04032768681645,-0.08121911436319,10.16197109222412,0.02520440705121,-0.52641093730927,2.62691926956177
350,2580974195,-0.34002083539963,-0.42045345902443,56.34050750732422,0.12862704694271,-0.08039341866970,10.11750888824463,0.10545381158590,-0.34593304991722,2.68452572822571
351,2580982528,-0.34029290080070,-0.42056161165237,56.34062194824219,0.12454861402512,-0.05351915955544,10.15415096282959,0.07799535244703,-0.52013552188873,2.61313891410828
352,2580990861,-0.34052455425262,-0.42065912485123,56.34069442749023,0.06604519486427,-0.06758726388216,10.15394496917725,0.08260591328144,-0.51693367958069,2.69856238365173
353,2580999194,-0.34197109937668,-0.42049539089203,56.33979415893555,-0.00070761912502,-0.07678419351578,10.16493415832520,-0.06415085494518,-0.48458293080330,2.49172735214233
354,2581007527,-0.34184846282005,-0.41965398192406,56.33938980102539,0.02931060269475,-0.03824752941728,10.16948318481445,0.12533044815063,-0.40633139014244,2.75194215774536
355,2581015860,-0.34186187386513,-0.41938915848732,56.33965682983398,0.10831508785486,-0.03042390197515,10.15636920928955,0.10924471169710,-0.47460615634918,2.63078689575195
356,2581024193,-0.34186518192291,-0.42044886946678,56.33882904052734,0.15948870778084,-0.05385579913855,10.15693855285645,0.10916787385941,-0.63253074884415,2.57215595245361
357,2581032526,-0.34102806448936,-0.42083629965782,56.33872985839844,0.11047013103962,-0.06181486696005,10.13082599639893,0.21019040048122,-0.55233252048492,2.58701229095459
358,2581040859,-0.34157100319862,-0.42116874456406,56.34009170532227,0.02800903655589,-0.06305163353682,10.13672924041748,0.04520912840962,-0.54421293735504,2.62049007415771
359,2581049192,-0.34102746844292,-0.42159110307693,56.34098052978516,0.00767267029732,-0.08571748435497,10.15755271911621,0.17684067785740,-0.55794203281403,2.70427417755127
360,2581057525,-0.34158739447594,-0.42050606012344,56.34350967407227,0.04914056137204,-0.03378902375698,10.16903877258301,0.04259647801518,-0.37751540541649,2.78936481475830
361,2581065858,-0.34192678332329,-0.41994673013687,56.34409332275391,0.13448485732079,-0.05864024534822,10.14852237701416,0.07120756804943,-0.43901520967484,2.67087316513062
362,2581074191,-0.34094917774200,-0.42053249478340,56.34426116943359,0.11852288991213,-0.08572440594435,10.15091800689697,0.22637858986855,-0.57502681016922,2.57061910629272
363,2581082524,-0.34050518274307,-0.42073646187782,56.34457015991211,0.04831204935908,-0.06619808077812,10.16192817687988,0.16462269425392,-0.53107279539108,2.63544869422913
364,2581090857,-0.34074702858925,-0.42098799347878,56.34439849853516,0.01024142559618,-0.04199182242155,10.17388153076172,0.08024939894676,-0.53511983156204,2.61690402030945
365,2581099190,-0.34075930714607,-0.42108854651451,56.34482574462891,0.03832236304879,-0.07918956875801,10.14764404296875,0.10980822890997,-0.51903408765793,2.65102219581604
366,2581107523,-0.34088379144669,-0.42172166705132,56.34434890747070,0.10707981139421,-0.07012756913900,10.15121746063232,0.09362003207207,-0.58240365982056,2.51506209373474
367,2581115856,-0.34102553129196,-0.42147672176361,56.34486007690430,0.14778101444244,-0.02742055431008,10.17374897003174,0.09482389688492,-0.47684738039970,2.65939807891846
368,2581124189,-0.34183585643768,-0.42213830351830,56.34518814086914,0.09762441366911,-0.07021985203028,10.15884399414062,0.01211553346366,-0.58432471752167,2.69374656677246
369,2581132522,-0.34160023927689,-0.42264199256897,56.34556961059570,0.03608538582921,-0.04855166003108,10.13300228118896,0.13920056819916,-0.56715041399002,2.64432406425476
370,2581140855,-0.34235876798630,-0.42274513840675,56.34478759765625,0.02015065215528,-0.06620588898659,10.15552711486816,0.01894172839820,-0.51766377687454,2.60969376564026
371,2581149188,-0.34209883213043,-0.42335149645805,56.34560012817383,0.10811942070723,-0.08031437546015,10.17146110534668,0.14237673580647,-0.57877928018570,2.69698691368103
372,2581157521,-0.34181994199753,-0.42302364110947,56.34460067749023,0.13778711855412,-0.04370819032192,10.15583133697510,0.14346534013748,-0.46593576669693,2.55035829544067
373,2581165854,-0.34260651469231,-0.42221644520760,56.34461212158203,0.10676483064890,-0.05580682680011,10.14577579498291,0.01500994153321,-0.41055774688721,2.60135579109192
374,2581174187,-0.34194523096085,-0.42265316843987,56.34374237060547,0.05275791883469,-0.07150696218014,10.19134140014648,0.18959657847881,-0.55635404586792,2.55338072776794
375,2581182520,-0.34085217118263,-0.42240071296692,56.34455108642578,0.01016751490533,-0.05958725884557,10.17052841186523,0.24177277088165,-0.47584849596024,2.69707655906677
376,2581190853,-0.34069150686264,-0.42243894934654,56.34481811523438,0.05402628332376,-0.02859950251877,10.16368865966797,0.12922380864620,-0.51081186532974,2.58537244796753
377,2581199186,-0.34123679995537,-0.42162197828293,56.34440231323242,0.11979218572378,-0.08976648002863,10.16209125518799,0.04423578456044,-0.40620338916779,2.55010247230530
378,2581207519,-0.34043800830841,-0.42148137092590,56.34445953369141,0.12684704363346,-0.05731767788529,10.15810680389404,0.20563104748726,-0.48991063237190,2.65173912048340
379,2581215852,-0.34037542343140,-0.42152488231659,56.34477996826172,0.07477112114429,-0.03828947991133,10.15768623352051,0.11835058778524,-0.51154190301895,2.63825345039368
380,2581224185,-0.34054812788963,-0.42124325037003,56.34458160400391,0.02287025190890,-0.05280439183116,10.14093589782715,0.09041824936867,-0.47164773941040,2.66155004501343
381,2581232518,-0.34018087387085,-0.42127037048340,56.34481048583984,0.02768606133759,-0.07011292129755,10.11524295806885,0.15455628931522,-0.50930064916611,2.62627840042114
382,2581240851,-0.34118106961250,-0.42182016372681,56.34316253662109,0.09044365584850,-0.06023240089417,10.16104698181152,-0.01015604380518,-0.57138955593109,2.57794475555420
383,2581249184,-0.34169468283653,-0.42268916964531,56.34349822998047,0.15991535782814,-0.07222533971071,10.16277599334717,0.04871827363968,-0.61006700992584,2.63970065116882
384,2581257517,-0.34186774492264,-0.42353579401970,56.34298706054688,0.13125729560852,-0.04919419810176,10.17634487152100,0.08795928210020,-0.60650664567947,2.60463476181030
385,2581265850,-0.34207084774971,-0.42416054010391,56.34330368041992,0.04096146300435,-0.03041343204677,10.12943363189697,0.08696033060551,-0.58163535594940,2.63749814033508
386,2581274183,-0.34241965413094,-0.42452752590179,56.34109878540039,0.02492020279169,-0.06270796805620,10.16120624542236,0.06708367913961,-0.54754263162613,2.56539368629456
387,2581282516,-0.34270539879799,-0.42458859086037,56.34132766723633,0.07991998642683,-0.07251138240099,10.16699218750000,0.07704762369394,-0.51355272531509,2.62763643264771
388,2581290849,-0.34330546855927,-0.42402836680412,56.34128570556641,0.13347098231316,-0.04146382212639,10.16897201538086,0.03731993958354,-0.43973237276077,2.68063211441040
389,2581299182,-0.34264859557152,-0.42344129085541,56.34130859375000,0.12532399594784,-0.06052671372890,10.15646934509277,0.18941728770733,-0.43494254350662,2.60281658172607
390,2581307515,-0.34188646078110,-0.42364323139191,56.34208679199219,0.06415851414204,-0.08985507488251,10.15840911865234,0.20091804862022,-0.52776849269867,2.62766170501709
391,2581315848,-0.34229210019112,-0.42321527004242,56.34248352050781,0.02566582523286,-0.03182584047318,10.16665649414062,0.06349769234657,-0.45656096935272,2.64589953422546
392,2581324181,-0.34268191456795,-0.42309069633484,56.34226226806641,0.04835634678602,-0.05731429532170,10.16427516937256,0.06157661229372,-0.48957762122154,2.56880021095276
393,2581332514,-0.34314629435539,-0.42348626255989,56.34184646606445,0.12784060835838,-0.07479052990675,10.16018009185791,0.05481446161866,-0.55325466394424,2.54943609237671
394,2581340847,-0.34307610988617,-0.42341661453247,56.34260177612305,0.12635697424412,-0.05979205667973,10.13269329071045,0.11820969730616,-0.49526405334473,2.64863991737366
395,2581349180,-0.34323099255562,-0.42285209894180,56.34275054931641,0.09965288639069,-0.06088133528829,10.15365886688232,0.09236494451761,-0.43916890025139,2.61762142181396
396,2581357513,-0.34300008416176,-0.42247095704079,56.34203338623047,0.05116121470928,-0.04924778640270,10.18804359436035,0.13767652213573,-0.45726531744003,2.65816855430603
397,2581365846,-0.34342485666275,-0.42346072196960,56.34137725830078,0.03835297003388,-0.04551891982555,10.14813041687012,0.05873343721032,-0.62438541650772,2.51851987838745
398,2581374179,-0.34357798099518,-0.42318314313889,56.34218597412109,0.08275655657053,-0.06501527130604,10.15789318084717,0.09029018133879,-0.47180145978928,2.64087891578674
399,2581382512,-0.34326615929604,-0.42251569032669,56.34157562255859,0.14555364847183,-0.06718748062849,10.13953113555908,0.14805027842522,-0.42564454674721,2.52648544311523
400,2581390845,-0.34330263733864,-0.42384579777718,56.34191513061523,0.14820218086243,-0.04324381798506,10.14304065704346,0.10465976595879,-0.66378009319305,2.60686326026917
401,2581399178,-0.34284964203835,-0.42452615499496,56.34148788452148,0.06084977835417,-0.07747422903776,10.15866661071777,0.16564725339413,-0.58645069599152,2.54820680618286
402,2581407511,-0.34256726503372,-0.42471173405647,56.34074783325195,0.01830228976905,-0.08520674705505,10.17650032043457,0.14267131686211,-0.52543765306473,2.56480455398560
403,2581415844,-0.34267139434814,-0.42503571510315,56.34123992919922,0.06401712447405,-0.05334287136793,10.15119075775146,0.09815374761820,-0.54468673467636,2.65768194198608
404,2581424177,-0.34220027923584,-0.42535555362701,56.34196090698242,0.12469984591007,-0.04016583412886,10.16394329071045,0.16539111733437,-0.54339319467545,2.63859915733337
405,2581432510,-0.34309610724449,-0.42529341578484,56.34151458740234,0.12316211313009,-0.06392068415880,10.14945125579834,0.00307370838709,-0.49823531508446,2.54723334312439
406,2581440843,-0.34233635663986,-0.42497366666794,56.34125137329102,0.08129706978798,-0.06630320101976,10.16541862487793,0.19976542890072,-0.46421962976456,2.54579901695251
407,2581449176,-0.34214088320732,-0.42486473917961,56.34134292602539,0.01247871946543,-0.04245387390256,10.13630771636963,0.13432106375694,-0.49341985583305,2.61108946800232
408,2581457509,-0.34189522266388,-0.42490118741989,56.33877182006836,0.03407726436853,-0.05871420726180,10.11558532714844,0.14036601781845,-0.50696974992752,2.64559197425842
409,2581465842,-0.34173956513405,-0.42515686154366,56.33880615234375,0.08276002109051,-0.04705941304564,10.16901588439941,0.12912136316299,-0.53747642040253,2.60317492485046
410,2581474175,-0.34177824854851,-0.42468893527985,56.33872222900391,0.13150922954082,-0.04891430214047,10.17302036285400,0.10427556186914,-0.44815951585770,2.66908025741577
411,2581482508,-0.34161755442619,-0.42561218142509,56.33898162841797,0.12482301890850,-0.05882576107979,10.16412162780762,0.13152909278870,-0.61652177572250,2.63142704963684
412,2581490841,-0.34183937311172,-0.42660024762154,56.33931732177734,0.03593900054693,-0.05184553936124,10.16504764556885,0.08169659972191,-0.62242585420609,2.63225960731506
413,2581499174,-0.34281611442566,-0.42676907777786,56.33923339843750,0.01655168272555,-0.04105665534735,10.17478942871094,-0.00664689438418,-0.52518153190613,2.58893322944641
414,2581507507,-0.34303095936775,-0.42661535739899,56.33950424194336,0.06736468523741,-0.06970706582069,10.14220046997070,0.08327188342810,-0.48635029792786,2.56605982780457
415,2581515840,-0.34312185645103,-0.42720556259155,56.33924102783203,0.12492420524359,-0.06203905120492,10.14038848876953,0.09917830675840,-0.57643544673920,2.56780099868774
416,2581524173,-0.34331533312798,-0.42696571350098,56.33774566650391,0.12673617899418,-0.03596606850624,10.15854930877686,0.08514172583818,-0.47351759672165,2.51344823837280
417,2581532506,-0.34330546855927,-0.42766505479813,56.33753967285156,0.05677154287696,-0.05975436791778,10.15721416473389,0.11126822978258,-0.59057462215424,2.57433295249939
418,2581540839,-0.34263813495636,-0.42702504992485,56.33715438842773,0.03200380504131,-0.06488677114248,10.13971233367920,0.18834148347378,-0.42574703693390,2.55448222160339
419,2581549172,-0.34248602390289,-0.42741230130196,56.33691406250000,0.03291888907552,-0.04994751513004,10.13048458099365,0.12907013297081,-0.55248630046844,2.57069611549377
420,2581557505,-0.34269365668297,-0.42830148339272,56.33700942993164,0.09980553388596,-0.04553610458970,10.14302825927734,0.08301573991776,-0.61134779453278,2.56016850471497
421,2581565838,-0.34278002381325,-0.42796665430069,56.33666610717773,0.12622314691544,-0.06065014377236,10.15142631530762,0.09979306161404,-0.46468067169189,2.55945110321045
422,2581574171,-0.34318339824677,-0.42815101146698,56.33728408813477,0.07586080580950,-0.05238514393568,10.13835906982422,0.06178153678775,-0.52543765306473,2.65076637268066
423,2581582504,-0.34352025389671,-0.42838001251221,56.33673477172852,0.03768708929420,-0.06270033121109,10.13414669036865,0.06915844231844,-0.53307068347931,2.53230023384094
424,2581590837,-0.34236359596252,-0.42866319417953,56.33547592163086,0.04249020665884,-0.05719409137964,10.17612743377686,0.24681878089905,-0.53755319118500,2.55581402778625
425,2581599170,-0.34205013513565,-0.42793717980385,56.33538818359375,0.09766883403063,-0.03995982185006,10.16697788238525,0.14840888977051,-0.41918975114822,2.58824181556702
426,2581607503,-0.34149777889252,-0.42829957604408,56.33671188354492,0.14725898206234,-0.07766029983759,10.14906501770020,0.17325468361378,-0.54808062314987,2.53573250770569
427,2581615836,-0.34165760874748,-0.42808964848518,56.33705139160156,0.13555651903152,-0.05895603448153,10.12922286987305,0.09328704327345,-0.48030537366867,2.64044356346130
428,2581624169,-0.34163391590118,-0.42883855104446,56.33716964721680,0.06153195723891,-0.04440225660801,10.15539741516113,0.11065350472927,-0.59357148408890,2.66201090812683
429,2581632502,-0.34192091226578,-0.42793622612953,56.33652877807617,0.03644522652030,-0.05483336001635,10.15627098083496,0.07684271782637,-0.39716151356697,2.52205443382263
430,2581640835,-0.34187442064285,-0.42828944325447,56.33554840087891,0.04861296340823,-0.08277498930693,10.13953304290771,0.11254895478487,-0.54482758045197,2.53191590309143
431,2581649168,-0.34142166376114,-0.42845770716667,56.33507537841797,0.11152154207230,-0.04816140234470,10.16116809844971,0.16528865695000,-0.52615481615067,2.54254579544067
432,2581657501,-0.34115430712700,-0.42901074886322,56.33514404296875,0.13962496817112,-0.03957135975361,10.15839862823486,0.13893161714077,-0.56992954015732,2.56126999855042
433,2581665834,-0.34121644496918,-0.42773738503456,56.33549118041992,0.08475975692272,-0.05228933319449,10.17308712005615,0.10394255816936,-0.35287451744080,2.64172434806824
434,2581674167,-0.34058392047882,-0.42784836888313,56.33649826049805,0.02528207749128,-0.06854894757271,10.12383365631104,0.18529336154461,-0.51603716611862,2.61306166648865
435,2581682500,-0.34090188145638,-0.42794942855835,56.33583450317383,0.01395551767200,-0.06438285857439,10.13154411315918,0.07171985507011,-0.51844495534897,2.51951861381531
436,2581690833,-0.34104365110397,-0.42749530076981,56.33422851562500,0.09843997657299,-0.05005059018731,10.17817878723145,0.09146843105555,-0.44918408989906,2.56997871398926
437,2581699166,-0.34031021595001,-0.42720660567284,56.33448410034180,0.13619859516621,-0.05407392978668,10.19895648956299,0.19761382043362,-0.47100734710693,2.63091516494751
438,2581707499,-0.34079897403717,-0.42680138349533,56.33450698852539,0.09476165473461,-0.07685581594706,10.16563987731934,0.04994776099920,-0.45556199550629,2.57574200630188
439,2581715832,-0.34066998958588,-0.42714956402779,56.33442306518555,0.04303714632988,-0.07551569491625,10.14720821380615,0.12632942199707,-0.54749149084091,2.58801126480103
440,2581724165,-0.34130990505219,-0.42744067311287,56.33431625366211,0.02455865964293,-0.03854606300592,10.16232872009277,0.03253008052707,-0.53775811195374,2.63726735115051
441,2581732498,-0.34215581417084,-0.42776045203209,56.33402633666992,0.07928977906704,-0.04600727930665,10.14591121673584,0.00770988455042,-0.54416161775589,2.56370306015015
442,2581740831,-0.34201347827911,-0.42899945378304,56.33386230468750,0.12830421328545,-0.06724737584591,10.13890075683594,0.12574028968811,-0.65281718969345,2.59349298477173
443,2581749164,-0.34199765324593,-0.42936062812805,56.33418655395508,0.11982291191816,-0.06330524384975,10.17398643493652,0.11377844214439,-0.54961746931076,2.63611483573914
444,2581757497,-0.34175795316696,-0.42890793085098,56.33404159545898,0.05986989289522,-0.06015452370048,10.17784404754639,0.13670317828655,-0.44805705547333,2.60250902175903
445,2581765830,-0.34128570556641,-0.43032523989677,56.33360290527344,0.03404084593058,-0.07222024351358,10.16779422760010,0.16728657484055,-0.67630547285080,2.54528665542603
446,2581774163,-0.34123170375824,-0.43070429563522,56.33206558227539,0.04017588868737,-0.07296524196863,10.16212177276611,0.11341983824968,-0.54843920469284,2.50788974761963
447,2581782496,-0.34084200859070,-0.43100669980049,56.33176803588867,0.07377534359694,-0.07306105643511,10.14451789855957,0.15768124163151,-0.54213809967041,2.56477928161621
448,2581790829,-0.34065937995911,-0.43088129162788,56.33152008056641,0.12596322596073,-0.05219153687358,10.12985324859619,0.13109366595745,-0.48883482813835,2.57002997398376
449,2581799162,-0.34047284722328,-0.43062528967857,56.33120346069336,0.10089942067862,-0.06766508519650,10.16378021240234,0.13209262490273,-0.47577160596848,2.56339573860168
450,2581807495,-0.34081885218620,-0.43065112829208,56.33095550537109,0.03634999319911,-0.03404710069299,10.15117740631104,0.06622561067343,-0.50483095645905,2.51361465454102
451,2581815828,-0.34032112360001,-0.43020030856133,56.33067321777344,0.01982162520289,-0.06810887157917,10.14826011657715,0.17032186686993,-0.45278283953667,2.56602144241333
452,2581824161,-0.33941605687141,-0.43106174468994,56.33011245727539,0.07724240422249,-0.00897244177759,10.14605426788330,0.21742644906044,-0.60636579990387,2.63172197341919
453,2581832494,-0.33878362178802,-0.43106666207314,56.33036422729492,0.13109295070171,-0.03064638376236,10.17731189727783,0.18818779289722,-0.50676482915878,2.62855839729309
454,2581840827,-0.33949208259583,-0.43040025234222,56.32983398437500,0.11806114017963,-0.06182674318552,10.15409469604492,0.02254052832723,-0.42487612366676,2.63109445571899
455,2581849160,-0.33913177251816,-0.43033802509308,56.33077621459961,0.07267865538597,-0.05925136059523,10.15565490722656,0.15573455393314,-0.49872195720673,2.71313667297363
456,2581857493,-0.33895462751389,-0.43044179677963,56.33079910278320,0.01887026987970,-0.06423079967499,10.16489124298096,0.12932626903057,-0.51660066843033,2.60670924186707
457,2581865826,-0.33940064907074,-0.43090263009071,56.33041763305664,0.06697689741850,-0.04124759510159,10.12466812133789,0.05703010037541,-0.56146407127380,2.55544281005859
458,2581874159,-0.33913046121597,-0.43071675300598,56.33174514770508,0.12897749245167,-0.04791895300150,10.15555381774902,0.13905969262123,-0.48125311732292,2.60978341102600
459,2581882492,-0.33895611763000,-0.43089929223061,56.33144378662109,0.13649871945381,-0.07311413437128,10.15908622741699,0.13257928192616,-0.52694880962372,2.56237125396729
460,2581890825,-0.33892792463303,-0.43035945296288,56.33085632324219,0.07672257721424,-0.06780863553286,10.15933799743652,0.11021806299686,-0.43788817524910,2.52789473533630
461,2581899158,-0.33985775709152,-0.43015637993813,56.33128738403320,0.01679143868387,-0.05321263149381,10.16320991516113,-0.00020491390023,-0.48195746541023,2.65184187889099
462,2581907491,-0.34038880467415,-0.42967337369919,56.33061981201172,0.02711999230087,-0.05119885876775,10.16285800933838,0.04469683766365,-0.44669944047928,2.59169960021973
463,2581915824,-0.34011229872704,-0.42935666441917,56.33001708984375,0.08498598635197,-0.06730302423239,10.12428188323975,0.14382393658161,-0.46726772189140,2.52756142616272
464,2581924157,-0.33985459804535,-0.42959660291672,56.33048248291016,0.11396786570549,-0.06245353445411,10.16539573669434,0.13844494521618,-0.53217417001724,2.64315867424011
465,2581932490,-0.34009826183319,-0.42951756715775,56.33065795898438,0.11898537725210,-0.04824470356107,10.16151142120361,0.08183749020100,-0.49759498238564,2.61938858032227
466,2581940823,-0.33988961577415,-0.42983299493790,56.33027648925781,0.04389019683003,-0.04564673826098,10.16234302520752,0.13286103308201,-0.54029387235641,2.55448198318481
467,2581949156,-0.34011501073837,-0.42999526858330,56.32997894287109,0.02182315476239,-0.07686743885279,10.15046310424805,0.08328468352556,-0.52596271038055,2.56353664398193
468,2581957489,-0.34007042646408,-0.43057706952095,56.32948684692383,0.05928820371628,-0.03693585470319,10.14165687561035,0.11393211781979,-0.57310563325882,2.58137702941895
469,2581965822,-0.34010690450668,-0.43010380864143,56.32909774780273,0.12870059907436,-0.04157655313611,10.15937995910645,0.10645277053118,-0.44905596971512,2.55309867858887
470,2581974155,-0.34081253409386,-0.43021062016487,56.32996368408203,0.13391943275928,-0.06836666166782,10.16299819946289,0.02266860008240,-0.51695930957794,2.62730336189270
471,2581982488,-0.34098285436630,-0.43072271347046,56.33038711547852,0.05425127968192,-0.06869562715292,10.15486907958984,0.09077685326338,-0.56913548707962,2.65102219581604
472,2581990821,-0.34084582328796,-0.43092867732048,56.33024597167969,0.03102491609752,-0.05094248801470,10.17396640777588,0.12387044727802,-0.52812713384628,2.54333996772766
473,2581999154,-0.34105136990547,-0.43074870109558,56.33048248291016,0.05235273018479,-0.06014863029122,10.17326545715332,0.08662733435631,-0.48325094580650,2.62781548500061
474,2582007487,-0.34088718891144,-0.43222418427467,56.32820129394531,0.09216333925724,-0.05976441875100,10.16819953918457,0.12643186748028,-0.68147951364517,2.54400610923767
475,2582015820,-0.34112820029259,-0.43241521716118,56.32826995849609,0.11569430679083,-0.07921561598778,10.11983203887939,0.08217047154903,-0.52904921770096,2.60845136642456
476,2582024153,-0.34322294592857,-0.42510902881622,56.32382202148438,0.09584686905146,-0.08609056472778,10.15541267395020,0.18744499981403,-0.42818039655685,2.64080214500427
477,2582032486,-0.34220880270004,-0.42436495423317,56.32405471801758,0.05196692422032,-0.05523441359401,10.16053390502930,0.23544606566429,-0.42438948154449,2.63667821884155
478,2582040819,-0.34282255172729,-0.42407256364822,56.32328033447266,0.04074895754457,-0.05842438712716,10.15914630889893,0.03470728546381,-0.47036701440811,2.60261130332947
479,2582049152,-0.34311521053314,-0.42448267340660,56.32316589355469,0.08638859540224,-0.07781954109669,10.16126823425293,0.07594620436430,-0.55653333663940,2.58906126022339
480,2582057485,-0.34372645616531,-0.42457327246666,56.32300186157227,0.12921816110611,-0.05204178765416,10.16144657135010,0.03665396943688,-0.51672881841660,2.58142828941345
481,2582065818,-0.34360793232918,-0.42453810572624,56.32287597656250,0.13163796067238,-0.02250524237752,10.15940761566162,0.12527921795845,-0.50348621606827,2.58808803558350
482,2582074151,-0.34372329711914,-0.42394527792931,56.32333374023438,0.05173442512751,-0.04465053603053,10.15878105163574,0.09446529299021,-0.43463510274887,2.62630414962769
483,2582082484,-0.34436094760895,-0.42333790659904,56.32348632812500,0.01520988252014,-0.06374107301235,10.15838909149170,0.03680765256286,-0.43427652120590,2.62243652343750
484,2582090817,-0.34443739056587,-0.42296111583710,56.32349395751953,0.03752632066607,-0.04721441864967,10.15752220153809,0.09881971031427,-0.46135073900223,2.63957262039185
485,2582099150,-0.34503161907196,-0.42343556880951,56.32317733764648,0.11329755187035,-0.05024899169803,10.13462352752686,0.04008627682924,-0.56488347053528,2.56370306015015
486,2582107483,-0.34463876485825,-0.42334234714508,56.32120513916016,0.12842348217964,-0.06925813108683,10.16715526580811,0.15560647845268,-0.49326619505882,2.57453799247742
487,2582115816,-0.34430795907974,-0.42324197292328,56.32164001464844,0.08338101953268,-0.07005269825459,10.14502525329590,0.15173871815205,-0.49756932258606,2.65537619590759
488,2582124149,-0.34418040513992,-0.42190942168236,56.32169342041016,0.05178482830524,-0.07253392785788,10.19569015502930,0.12376799434423,-0.34370458126068,2.59105920791626
489,2582132482,-0.34360218048096,-0.42223778367043,56.32255935668945,0.04261564463377,-0.05027724802494,10.17212104797363,0.18234774470329,-0.54961746931076,2.70453047752380
490,2582140815,-0.34361052513123,-0.42185178399086,56.32318496704102,0.10219954699278,-0.06545884162188,10.12604141235352,0.10709312558174,-0.45889180898666,2.62817406654358
491,2582149148,-0.34292316436768,-0.42085477709770,56.32288742065430,0.12528054416180,-0.07453940063715,10.17654800415039,0.19497555494308,-0.38837584853172,2.56705856323242
492,2582157481,-0.34245654940605,-0.42024829983711,56.32213211059570,0.12125478684902,-0.08662500232458,10.16577625274658,0.16459706425667,-0.43163833022118,2.57113122940063
493,2582165814,-0.34226909279823,-0.41999399662018,56.32233810424805,0.05681604892015,-0.04201801121235,10.19547557830811,0.13329648971558,-0.47782078385353,2.62794375419617
494,2582174147,-0.34231004118919,-0.41967904567719,56.32031250000000,0.01914606615901,-0.06683897227049,10.14388275146484,0.10497993230820,-0.46720361709595,2.55598044395447
495,2582182480,-0.34280544519424,-0.41946965456009,56.32037734985352,0.06949969381094,-0.07060014456511,10.14570522308350,0.05174075812101,-0.48337906599045,2.60980892181396
496,2582190813,-0.34272912144661,-0.41918554902077,56.32013702392578,0.11496060341597,-0.04936595261097,10.13659858703613,0.11869636178017,-0.47005960345268,2.59866642951965
497,2582199146,-0.34313169121742,-0.41985952854156,56.31989288330078,0.11965331435204,-0.04465054348111,10.11808586120605,0.06234504655004,-0.58995991945267,2.57389760017395
498,2582207479,-0.34297600388527,-0.41967961192131,56.31828689575195,0.08555851131678,-0.06904857605696,10.15983200073242,0.12684169411659,-0.48122748732567,2.47346425056458
499,2582215812,-0.34227097034454,-0.41971307992935,56.31826782226562,0.03881693631411,-0.07452963292599,10.16896057128906,0.19694785773754,-0.51375752687454,2.60084366798401
500,2582224145,-0.34193551540375,-0.41893905401230,56.31766891479492,0.05679158866405,-0.06441291421652,10.18109798431396,0.14801184833050,-0.41054499149323,2.53712844848633
501,2582232478,-0.34266439080238,-0.41930598020554,56.31768798828125,0.10262941569090,-0.06595704704523,10.15007400512695,0.02515317872167,-0.55335712432861,2.60266232490540
502,2582240811,-0.34214350581169,-0.42000880837440,56.31688690185547,0.11720062792301,-0.07168084383011,10.19904232025146,0.17135924100876,-0.58883285522461,2.58693552017212
503,2582249144,-0.34184074401855,-0.41980135440826,56.31669235229492,0.10012563318014,-0.07613223046064,10.14476108551025,0.14844730496407,-0.48290514945984,2.57870006561279
504,2582257477,-0.34166106581688,-0.41985446214676,56.31700897216797,0.03934053331614,-0.06527330726385,10.19285774230957,0.13087593019009,-0.51215660572052,2.67142367362976
505,2582265810,-0.34194916486740,-0.41961464285851,56.31656265258789,0.02713266946375,-0.04635678231716,10.14745140075684,0.07755990326405,-0.47787195444107,2.54887247085571
506,2582274143,-0.34191921353340,-0.41932043433189,56.31586837768555,0.06147641316056,-0.06757853180170,10.16092014312744,0.11160123348236,-0.46957299113274,2.56467652320862
507,2582282476,-0.34195765852928,-0.41898059844971,56.31542968750000,0.11311341077089,-0.07546420395374,10.16817092895508,0.10660645365715,-0.46749821305275,2.55163908004761
508,2582290809,-0.34096688032150,-0.41945356130600,56.31468963623047,0.09640922397375,-0.05182235687971,10.12840843200684,0.22970844805241,-0.56175863742828,2.57610034942627
509,2582299142,-0.34108409285545,-0.41936689615250,56.31506729125977,0.06700705736876,-0.05080393701792,10.16621208190918,0.09715478867292,-0.49910616874695,2.64925456047058
510,2582307475,-0.34091097116470,-0.41924604773521,56.31385803222656,0.02834783121943,-0.07670395076275,10.14951896667480,0.12935189902782,-0.48947522044182,2.55968165397644
511,2582315808,-0.34079921245575,-0.41971650719643,56.31425094604492,0.06580629944801,-0.08177333325148,10.16094779968262,0.12702099978924,-0.56467860937119,2.64907550811768
512,2582324141,-0.34124946594238,-0.41973721981049,56.31409835815430,0.11192627251148,-0.03270903602242,10.16445922851562,0.05396918952465,-0.50832736492157,2.58931756019592
513,2582332474,-0.34128120541573,-0.41940447688103,56.31468200683594,0.11871313303709,-0.06571228802204,10.15337944030762,0.10883489251137,-0.46888139843941,2.67215394973755
514,2582340807,-0.34155401587486,-0.41943317651749,56.31527328491211,0.08211030066013,-0.08433568477631,10.15489673614502,0.07844358682632,-0.50874990224838,2.66635203361511
515,2582349140,-0.34216722846031,-0.41941830515862,56.31567764282227,0.02884100750089,-0.06246316060424,10.14406776428223,0.03719187155366,-0.50641906261444,2.65076613426208
516,2582357473,-0.34139412641525,-0.41986998915672,56.31501388549805,0.03476189821959,-0.07218135893345,10.18422508239746,0.20263421535492,-0.55922281742096,2.61488032341003
517,2582365806,-0.34116172790527,-0.42030152678490,56.31553268432617,0.07825335115194,-0.04150484129786,10.16408061981201,0.14075022935867,-0.56114387512207,2.66229248046875
518,2582374139,-0.34056222438812,-0.42053592205048,56.31678390502930,0.10884893685579,-0.05509372055531,10.13549709320068,0.18188668787479,-0.53250718116760,2.59879469871521
519,2582382472,-0.34030067920685,-0.42057609558105,56.31724166870117,0.09809312969446,-0.08782723546028,10.15442466735840,0.14374710619450,-0.51365512609482,2.65719532966614
520,2582390805,-0.34029737114906,-0.42048570513725,56.31725311279297,0.04838502034545,-0.05715932324529,10.14158630371094,0.11083280295134,-0.49398329854012,2.64295363426208
521,2582399138,-0.34032854437828,-0.42143526673317,56.31805801391602,0.01578835211694,-0.05179414898157,10.17036247253418,0.10886050015688,-0.62371945381165,2.69794726371765
522,2582407471,-0.34023493528366,-0.42178994417191,56.31832122802734,0.08038349449635,-0.06479429453611,10.14592647552490,0.12033567577600,-0.54805499315262,2.56070637702942
523,2582415804,-0.34004244208336,-0.42067551612854,56.31888961791992,0.13368023931980,-0.08269435912371,10.15126228332520,0.13493578135967,-0.37433922290802,2.67174410820007
524,2582424137,-0.33934104442596,-0.42056301236153,56.31976699829102,0.12889994680882,-0.05691223964095,10.16783523559570,0.19397658109665,-0.49267703294754,2.59210944175720
525,2582432470,-0.33927875757217,-0.42042258381844,56.32056045532227,0.10063399374485,-0.03984675556421,10.15239906311035,0.12043814361095,-0.49144747853279,2.69904899597168
526,2582440803,-0.34020158648491,-0.42050120234489,56.31985092163086,0.04849482327700,-0.06253155320883,10.16192054748535,-0.00174176809378,-0.51435947418213,2.55329108238220
527,2582449136,-0.33966889977455,-0.42034396529198,56.31901168823242,0.05454166606069,-0.06178254261613,10.15071964263916,0.17622591555119,-0.48806643486023,2.50030779838562
528,2582457469,-0.33961871266365,-0.42050141096115,56.31883621215820,0.08985318988562,-0.04050065577030,10.16023159027100,0.11429071426392,-0.52443867921829,2.55607032775879
529,2582465802,-0.33972194790840,-0.41977307200432,56.31885147094727,0.12478821724653,-0.05141738429666,10.13691997528076,0.09940885007381,-0.42054733633995,2.60378980636597
530,2582474135,-0.34033161401749,-0.41981908679008,56.31834030151367,0.07907377928495,-0.07324913144112,10.16636276245117,0.03683327510953,-0.50996661186218,2.56426692008972
531,2582482468,-0.33967846632004,-0.41981405019760,56.31792831420898,0.04540409147739,-0.07374408841133,10.15124893188477,0.19013446569443,-0.50750762224197,2.55466151237488
532,2582490801,-0.33952292799950,-0.41913700103760,56.31801986694336,0.05146409571171,-0.06296641379595,10.18579006195068,0.12883959710598,-0.42482483386993,2.69569325447083
533,2582499134,-0.33956694602966,-0.41957029700279,56.31808471679688,0.06969346851110,-0.04847338795662,10.12819480895996,0.10678573697805,-0.55970942974091,2.61103844642639
534,2582507467,-0.33948805928230,-0.41959014534950,56.31721115112305,0.10023789852858,-0.08213442564011,10.15831470489502,0.11867074668407,-0.50694411993027,2.52167010307312
535,2582515800,-0.34010747075081,-0.41913679242134,56.31689834594727,0.11356367170811,-0.05839033052325,10.16501712799072,0.03757608309388,-0.45399951934814,2.56426644325256
536,2582524133,-0.34055730700493,-0.41891324520111,56.31621170043945,0.05652821063995,-0.04999398812652,10.17646980285645,0.05647938698530,-0.47899898886681,2.56567549705505
537,2582532466,-0.34194758534431,-0.41878733038902,56.31612396240234,0.06208549439907,-0.06050626561046,10.16532516479492,-0.05637693405151,-0.49202388525009,2.59278845787048
538,2582540799,-0.34253093600273,-0.41952767968178,56.31636428833008,0.06731946021318,-0.04138001799583,10.13022613525391,0.04041926562786,-0.59423738718033,2.60125374794006
539,2582549132,-0.34339636564255,-0.41945797204971,56.31621170043945,0.11007472127676,-0.04638361558318,10.12853717803955,0.00850392598659,-0.50041246414185,2.58337497711182
540,2582557465,-0.34344041347504,-0.41898128390312,56.31583786010742,0.11902409791946,-0.06812904030085,10.16860771179199,0.10483906418085,-0.44767281413078,2.59444046020508
541,2582565798,-0.34321126341820,-0.41907858848572,56.31589508056641,0.08808635920286,-0.04076732695103,10.17160511016846,0.13879074156284,-0.52037876844406,2.60897636413574
542,2582574131,-0.34284827113152,-0.41963911056519,56.31554794311523,0.03141592815518,-0.07927741110325,10.15580654144287,0.15376225113869,-0.57131272554398,2.63040280342102
543,2582582464,-0.34296801686287,-0.42095711827278,56.31586837768555,0.04454085603356,-0.07010664790869,10.18090534210205,0.09776953607798,-0.66764783859253,2.64026427268982
544,2582590797,-0.34338852763176,-0.42032888531685,56.31568527221680,0.10129647701979,-0.05776828899980,10.15656280517578,0.05991169065237,-0.42961475253105,2.64000797271729
545,2582599130,-0.34372699260712,-0.42030534148216,56.31526565551758,0.10175041109324,-0.05947715789080,10.16023159027100,0.07000371068716,-0.50525367259979,2.55117821693420
546,2582607463,-0.34317857027054,-0.42011666297913,56.31452560424805,0.09173600375652,-0.07397586852312,10.15707778930664,0.17515015602112,-0.48156046867371,2.57369279861450
547,2582615796,-0.34293344616890,-0.41997721791267,56.31436920166016,0.04711273312569,-0.07367542386055,10.14795207977295,0.14139060676098,-0.49114018678665,2.58439946174622
548,2582624129,-0.34320211410522,-0.41991224884987,56.31412887573242,0.04374951124191,-0.06116023659706,10.16821575164795,0.07884061336517,-0.49764615297318,2.62202668190002
549,2582632462,-0.34302863478661,-0.42061579227448,56.31450653076172,0.06096148863435,-0.05159964039922,10.15466022491455,0.13193891942501,-0.59380197525024,2.64943408966064
550,2582640795,-0.34347888827324,-0.42034456133842,56.31278228759766,0.09783279150724,-0.05498612672091,10.18432903289795,0.05549323558807,-0.47237774729729,2.55982279777527
551,2582649128,-0.34410220384598,-0.42028588056564,56.31288146972656,0.11762727797031,-0.06331310421228,10.14507484436035,0.03706380352378,-0.50153964757919,2.61316442489624
552,2582657461,-0.34452727437019,-0.41960838437080,56.31369781494141,0.08719918131828,-0.06792457401752,10.14272212982178,0.06083380803466,-0.42438948154449,2.73273134231567
553,2582665794,-0.34377488493919,-0.41989564895630,56.31349182128906,0.05698337033391,-0.03450083360076,10.17500400543213,0.20186580717564,-0.54224056005478,2.57873868942261
554,2582674127,-0.34472662210464,-0.42025697231293,56.31246566772461,0.07260762900114,-0.07348783314228,10.14706993103027,-0.00421354128048,-0.54864406585693,2.53360652923584
555,2582682460,-0.34508991241455,-0.42087972164154,56.31234741210938,0.09468647837639,-0.07230389118195,10.15717697143555,0.06754473596811,-0.58242928981781,2.58839535713196
556,2582690793,-0.34528377652168,-0.42029428482056,56.31267166137695,0.11153037101030,-0.03840543329716,10.14350128173828,0.08762630820274,-0.43430221080780,2.63847112655640
557,2582699126,-0.34584242105484,-0.41887062788010,56.31243133544922,0.09961647540331,-0.06128114089370,10.18811416625977,0.04390279948711,-0.33753162622452,2.57633113861084
558,2582707459,-0.34614646434784,-0.41960224509239,56.31189346313477,0.04341271519661,-0.05111240223050,10.16662120819092,0.07433251291513,-0.59311038255692,2.57689428329468
559,2582715792,-0.34630814194679,-0.41973328590393,56.31135940551758,0.03431013971567,-0.06083423271775,10.11394023895264,0.09098175913095,-0.52254325151443,2.53837084770203
560,2582724125,-0.34703582525253,-0.42026466131210,56.31100845336914,0.06895403563976,-0.05998771637678,10.15832996368408,0.02319369092584,-0.56935328245163,2.61261343955994
561,2582732458,-0.34678331017494,-0.42073598504066,56.31111907958984,0.10218486189842,-0.05350006371737,10.18256950378418,0.14233832061291,-0.56567758321762,2.61347174644470
562,2582740791,-0.34643185138702,-0.42076534032822,56.31007766723633,0.11044459789991,-0.04960698634386,10.16206264495850,0.15209732949734,-0.50768691301346,2.54541468620300
563,2582749124,-0.34632617235184,-0.42102688550949,56.31112670898438,0.07740987092257,-0.06471335142851,10.15257167816162,0.12440833449364,-0.54014015197754,2.72760844230652
564,2582757457,-0.34676569700241,-0.42138203978539,56.31112670898438,0.05325164273381,-0.06668984889984,10.14997577667236,0.05781133472919,-0.54810631275177,2.65985894203186
565,2582765790,-0.34658920764923,-0.42189413309097,56.31081771850586,0.07762856036425,-0.05299896001816,10.14889526367188,0.13255365192890,-0.56985265016556,2.56280660629272
566,2582774123,-0.34650263190269,-0.42243292927742,56.31090164184570,0.11148180067539,-0.04875114187598,10.15479564666748,0.12082234025002,-0.56992948055267,2.63070988655090
567,2582782456,-0.34697020053864,-0.42290940880775,56.30985641479492,0.11448537558317,-0.06762667000294,10.17127418518066,0.05535236746073,-0.56519091129303,2.47546219825745
568,2582790789,-0.34702870249748,-0.42235371470451,56.30928039550781,0.08321256190538,-0.04008902609348,10.15968894958496,0.10340467095375,-0.43752953410149,2.68662571907043
569,2582799122,-0.34754186868668,-0.42236039042473,56.30910491943359,0.05703702941537,-0.08299432694912,10.14820861816406,0.05042162537575,-0.50974893569946,2.58095455169678
570,2582807455,-0.34762522578239,-0.42245340347290,56.30965423583984,0.03979267925024,-0.05450587347150,10.15250873565674,0.10035658627748,-0.51626777648926,2.71359801292419
571,2582815788,-0.34818392992020,-0.42369154095650,56.30978393554688,0.10762382298708,-0.05789959058166,10.15696144104004,0.04495298117399,-0.65745341777802,2.61815905570984
572,2582824121,-0.34870615601540,-0.42352145910263,56.30971145629883,0.12081976234913,-0.05717740207911,10.13442420959473,0.04764247313142,-0.48450604081154,2.62891697883606
573,2582832454,-0.34892871975899,-0.42407235503197,56.30921554565430,0.09598470479250,-0.04930279776454,10.15380859375000,0.08537225425243,-0.57482194900513,2.54280209541321
574,2582840787,-0.34944394230843,-0.42406222224236,56.30904006958008,0.05403881147504,-0.06236609444022,10.14472484588623,0.04669475555420,-0.50143712759018,2.51695728302002
575,2582849120,-0.34955105185509,-0.42337772250175,56.30946350097656,0.03690940886736,-0.06004666909575,10.15647792816162,0.09905026108027,-0.42738634347916,2.65407013893127
576,2582857453,-0.34977892041206,-0.42259916663170,56.30790328979492,0.04957896098495,-0.06859529763460,10.13216590881348,0.08199116587639,-0.41119810938835,2.54551696777344
577,2582865786,-0.35008436441422,-0.42357972264290,56.30764389038086,0.10729482024908,-0.08071254193783,10.16821289062500,0.07540830969810,-0.62482082843781,2.56985068321228
578,2582874119,-0.34948024153709,-0.42339611053467,56.30667877197266,0.10427911579609,-0.06874836981297,10.14817237854004,0.18257825076580,-0.48345583677292,2.52899575233459
579,2582882452,-0.34994691610336,-0.42371362447739,56.30635833740234,0.08700361847878,-0.07740281522274,10.16915130615234,0.05443025380373,-0.54498124122620,2.56511211395264
580,2582890785,-0.34922939538956,-0.42348000407219,56.30535125732422,0.05259949341416,-0.05635651946068,10.15960407257080,0.19638435542583,-0.47677057981491,2.52218246459961
581,2582899118,-0.34923708438873,-0.42355442047119,56.30540466308594,0.04081608355045,-0.06263558566570,10.16567707061768,0.11114016920328,-0.51806068420410,2.60840010643005
582,2582907451,-0.34941881895065,-0.42378947138786,56.30585861206055,0.09357651323080,-0.05147248506546,10.18165397644043,0.08806172758341,-0.53330111503601,2.68490934371948
583,2582915784,-0.34918034076691,-0.42379987239838,56.30568313598633,0.10265969485044,-0.06856242567301,10.15937328338623,0.14114724099636,-0.51003068685532,2.58141565322876
584,2582924117,-0.34970596432686,-0.42399746179581,56.30594635009766,0.07724314928055,-0.04544149339199,10.17324352264404,0.04748879000545,-0.52874183654785,2.69415664672852
585,2582932450,-0.34961637854576,-0.42382073402405,56.30627441406250,0.04451148211956,-0.06787306070328,10.16931724548340,0.12351184338331,-0.48801526427269,2.64121222496033
586,2582940783,-0.34963372349739,-0.42386013269424,56.30604553222656,0.05138991400599,-0.07291791588068,10.16541194915771,0.10709312558174,-0.50945436954498,2.60378956794739
587,2582949116,-0.34914749860764,-0.42366942763329,56.30621719360352,0.07635652273893,-0.07096108794212,10.15149211883545,0.17130799591541,-0.48522332310677,2.62376880645752
588,2582957449,-0.34924793243408,-0.42431110143661,56.30516815185547,0.10821504145861,-0.08343303203583,10.15565395355225,0.09710356593132,-0.58260864019394,2.59953784942627
589,2582965782,-0.34906926751137,-0.42315331101418,56.30504608154297,0.10157687216997,-0.06657727062702,10.15774345397949,0.13411611318588,-0.36903703212738,2.58783149719238
590,2582974115,-0.34915408492088,-0.42296421527863,56.30455780029297,0.05958802253008,-0.07347249984741,10.16698551177979,0.09931918978691,-0.48239290714264,2.56279397010803
591,2582982448,-0.34906688332558,-0.42238184809685,56.30429077148438,0.02532139420509,-0.06157919019461,10.16666507720947,0.12276903539896,-0.43717092275620,2.57038879394531
592,2582990781,-0.34931942820549,-0.42203652858734,56.30432128906250,0.05637840181589,-0.08003118634224,10.14338874816895,0.07983957231045,-0.46498796343803,2.63754916191101
593,2582999114,-0.34950226545334,-0.42171671986580,56.30447769165039,0.12040909379721,-0.03605113551021,10.15684127807617,0.09049509465694,-0.46959862112999,2.62087416648865
594,2583007447,-0.35008123517036,-0.42135059833527,56.30436325073242,0.13474985957146,-0.05212680250406,10.16728305816650,0.04036803543568,-0.46222165226936,2.63024902343750
595,2583015780,-0.35060444474220,-0.42119148373604,56.30522537231445,0.09122852981091,-0.06680034101009,10.13817310333252,0.05056250095367,-0.48939841985703,2.70778298377991
596,2583024113,-0.35110506415367,-0.42169782519341,56.30441665649414,0.04939601942897,-0.06554004549980,10.18957328796387,0.05002459511161,-0.56606173515320,2.55640292167664
597,2583032446,-0.35148233175278,-0.42230027914047,56.30408096313477,0.05652874708176,-0.04278521984816,10.17084693908691,0.06677630543709,-0.57948368787766,2.56272983551025
598,2583040779,-0.35109794139862,-0.42214208841324,56.30385208129883,0.07369895279408,-0.07485260814428,10.15742206573486,0.15602912008762,-0.48710593581200,2.61151242256165
599,2583049112,-0.35166388750076,-0.42274636030197,56.30414962768555,0.10405836254358,-0.07019563019276,10.16521739959717,0.04367227107286,-0.57979100942612,2.63770222663879
600,2583057445,-0.35225555300713,-0.42335277795792,56.30424499511719,0.10958393663168,-0.05810283496976,10.16494464874268,0.03965083509684,-0.57789552211761,2.59654068946838
601,2583065778,-0.35197263956070,-0.42324754595757,56.30497741699219,0.06677699834108,-0.08767241984606,10.14505481719971,0.14674396812916,-0.49731317162514,2.68957161903381
602,2583074111,-0.35210862755775,-0.42342081665993,56.30178451538086,0.04221429675817,-0.05493903160095,10.16622066497803,0.09359441697598,-0.52500212192535,2.52420616149902
603,2583082444,-0.35214579105377,-0.42371296882629,56.30183792114258,0.07187277823687,-0.05622700974345,10.14657783508301,0.10673451423645,-0.54262483119965,2.60988569259644
604,2583090777,-0.35226672887802,-0.42328205704689,56.30092620849609,0.08674807101488,-0.07805679738522,10.15702056884766,0.09648881852627,-0.45410192012787,2.58004474639893
605,2583099110,-0.35191580653191,-0.42260313034058,56.30126953125000,0.10233979672194,-0.04747850820422,10.16352939605713,0.15385191142559,-0.42745035886765,2.64468264579773
606,2583107443,-0.35155794024467,-0.42189329862595,56.30069351196289,0.07518761605024,-0.04866515845060,10.13914585113525,0.15322434902191,-0.41944596171379,2.57707405090332
607,2583115776,-0.35141599178314,-0.42166769504547,56.29982757568359,0.04029454663396,-0.07378458231688,10.15187931060791,0.12796871364117,-0.47966498136520,2.49874544143677
608,2583124109,-0.35068610310555,-0.42119699716568,56.29898834228516,0.06150423735380,-0.05776660889387,10.14901733398438,0.19863837957382,-0.44933772087097,2.61920928955078
609,2583132442,-0.35042020678520,-0.42026671767235,56.29829788208008,0.09236055612564,-0.04201082512736,10.15305137634277,0.14308112859726,-0.39713588356972,2.52120923995972
610,2583140775,-0.34976392984390,-0.42033880949020,56.29781341552734,0.10893584787846,-0.06656258553267,10.13594055175781,0.18918673694134,-0.51273292303085,2.60171461105347
611,2583149108,-0.35008901357651,-0.42018002271652,56.29734039306641,0.10144819319248,-0.06420289725065,10.15096092224121,0.07338478416204,-0.48957768082619,2.54651594161987
612,2583157441,-0.34990221261978,-0.42061772942543,56.29749298095703,0.05157210677862,-0.04650169238448,10.14771556854248,0.13255365192890,-0.55735301971436,2.59175086021423
613,2583165774,-0.34958517551422,-0.42079979181290,56.29788589477539,0.04355087131262,-0.07963932305574,10.17027568817139,0.15012502670288,-0.53108555078506,2.64907526969910
614,2583174107,-0.34996789693832,-0.42009806632996,56.29722595214844,0.06306987255812,-0.05225137993693,10.15094184875488,0.06521383672953,-0.42052167654037,2.62579202651978
615,2583182440,-0.34989380836487,-0.41992303729057,56.29710388183594,0.09913644194603,-0.04208114743233,10.13091945648193,0.11933673173189,-0.48655524849892,2.58860039710999
616,2583190773,-0.35019391775131,-0.42074522376060,56.29647827148438,0.09325990080833,-0.07915101200342,10.18087482452393,0.07502409070730,-0.60525155067444,2.56388235092163
617,2583199106,-0.35048338770866,-0.42094644904137,56.29672241210938,0.06629655510187,-0.06173757091165,10.14175701141357,0.07694515585899,-0.53250718116760,2.63283610343933
618,2583207439,-0.35009273886681,-0.42159342765808,56.29674911499023,0.02661405317485,-0.05172096565366,10.15277385711670,0.15832160413265,-0.58184015750885,2.61974716186523
619,2583215772,-0.34989210963249,-0.42204618453979,56.29679489135742,0.07817079871893,-0.05819963663816,10.14309406280518,0.13555052876472,-0.56270635128021,2.60704255104065
620,2583224105,-0.34897732734680,-0.42200443148613,56.29585266113281,0.09860822558403,-0.06964357197285,10.18071842193604,0.21964207291603,-0.50025886297226,2.56682825088501
621,2583232438,-0.34910854697227,-0.42169806361198,56.29625320434570,0.12316419184208,-0.05054086819291,10.19050216674805,0.09613022953272,-0.47195515036583,2.65051007270813
622,2583240771,-0.34910115599632,-0.42156168818474,56.29509735107422,0.09448324888945,-0.06282899528742,10.14977455139160,0.11114014685154,-0.48886045813560,2.60076665878296
623,2583249104,-0.34900206327438,-0.42157837748528,56.29523086547852,0.05291305482388,-0.05986945703626,10.15907478332520,0.12369114905596,-0.51173400878906,2.61882519721985
624,2583257437,-0.34912604093552,-0.42188027501106,56.29595184326172,0.04921226948500,-0.07170964777470,10.16667079925537,0.09572039544582,-0.54139530658722,2.63291287422180
625,2583265770,-0.34917432069778,-0.42245492339134,56.29612350463867,0.08709625154734,-0.05801757052541,10.16301345825195,0.10760538280010,-0.57756251096725,2.61964464187622
626,2583274103,-0.34912195801735,-0.42216816544533,56.29558563232422,0.11794484406710,-0.04260083660483,10.16151142120361,0.11672408133745,-0.46980351209641,2.59912776947021
627,2583282436,-0.34881687164307,-0.42224946618080,56.29571914672852,0.11565580964088,-0.04561655223370,10.15433788299561,0.14774289727211,-0.51798385381699,2.61856889724731
628,2583290769,-0.34899607300758,-0.42233404517174,56.29700088500977,0.05471623688936,-0.08543909341097,10.13361072540283,0.08988035470247,-0.51606279611588,2.60673499107361
629,2583299102,-0.34906759858131,-0.42229205369949,56.29752731323242,0.05571094900370,-0.06202966347337,10.17931747436523,0.10258501023054,-0.50410097837448,2.66429042816162
630,2583307435,-0.34942960739136,-0.42226442694664,56.29736709594727,0.05954940989614,-0.04190537333488,10.18090438842773,0.06795457005501,-0.50197499990463,2.58585977554321
631,2583315768,-0.35035753250122,-0.42291012406349,56.29705810546875,0.08589722216129,-0.06536162644625,10.16511726379395,-0.00034579215571,-0.58470886945724,2.56480431556702
632,2583324101,-0.35013154149055,-0.42274722456932,56.29586410522461,0.09415995329618,-0.06937199831009,10.14461040496826,0.13783021271229,-0.48568436503410,2.59249401092529
633,2583332434,-0.35015162825584,-0.42190811038017,56.29516983032227,0.07855634391308,-0.03683111071587,10.15074062347412,0.10755416750908,-0.40807321667671,2.52018451690674
634,2583340767,-0.35040804743767,-0.42287051677704,56.29571533203125,0.05178115516901,-0.07319109886885,10.15955257415771,0.07966027408838,-0.61918574571609,2.56329345703125
635,2583349100,-0.34963893890381,-0.42276397347450,56.29539489746094,0.07633307576180,-0.06355530768633,10.17303562164307,0.20373564958572,-0.49554580450058,2.56470227241516
636,2583357433,-0.34937778115273,-0.42206591367722,56.29491806030273,0.08511889725924,-0.04293671250343,10.15787220001221,0.14195409417152,-0.42190483212471,2.57581853866577
637,2583365766,-0.34924259781837,-0.42209726572037,56.29484558105469,0.08556330204010,-0.06891173124313,10.17083263397217,0.12804557383060,-0.51260483264923,2.59479904174805
638,2583374099,-0.34932684898376,-0.42161002755165,56.29423141479492,0.08803921192884,-0.07329852879047,10.15242195129395,0.09938323497772,-0.44644328951836,2.57871317863464
639,2583382432,-0.34914129972458,-0.42119067907333,56.29473114013672,0.06332959234715,-0.03621197119355,10.18097686767578,0.13462843000889,-0.45855888724327,2.66385483741760
640,2583390765,-0.34857803583145,-0.42073851823807,56.29490661621094,0.05996764451265,-0.06771384924650,10.14280891418457,0.17891541123390,-0.44979876279831,2.53565549850464
641,2583399098,-0.34808188676834,-0.42037141323090,56.29515457153320,0.07276581972837,-0.08857079595327,10.19181346893311,0.17107747495174,-0.46491113305092,2.63178563117981
642,2583407431,-0.34765699505806,-0.41961637139320,56.29535293579102,0.11046423763037,-0.04483339190483,10.18615436553955,0.16206127405167,-0.41429746150970,2.61529040336609
643,2583415764,-0.34729683399200,-0.41966959834099,56.29524230957031,0.12291110306978,-0.06699198484421,10.15450954437256,0.15383909642696,-0.51588356494904,2.58798551559448
644,2583424097,-0.34694996476173,-0.41937968134880,56.29515075683594,0.06410126388073,-0.08760274946690,10.16482543945312,0.15202048420906,-0.46959856152534,2.54984593391418
645,2583432430,-0.34723541140556,-0.42003071308136,56.29516601562500,0.02517397515476,-0.06087186932564,10.14463996887207,0.07789288461208,-0.58575910329819,2.60514688491821
646,2583440763,-0.34730339050293,-0.42080533504486,56.29358291625977,0.06772609800100,-0.07502224296331,10.14266490936279,0.10163728892803,-0.59759294986725,2.48575925827026
647,2583449096,-0.34717327356339,-0.42148521542549,56.29386138916016,0.11232132464647,-0.05183805897832,10.14591026306152,0.12743082642555,-0.59177845716476,2.63388586044312
648,2583457429,-0.34681206941605,-0.42180070281029,56.29370880126953,0.11706520617008,-0.04673067852855,10.16219139099121,0.15363417565823,-0.54208683967590,2.64297914505005
649,2583465762,-0.34700930118561,-0.42192173004150,56.29307556152344,0.08732576668262,-0.05755987763405,10.17473030090332,0.08870209753513,-0.52310675382614,2.52551245689392
650,2583474095,-0.34705445170403,-0.42153388261795,56.29214859008789,0.05182699114084,-0.06363712251186,10.16186428070068,0.10458292067051,-0.45743179321289,2.50335597991943
651,2583482428,-0.34637305140495,-0.42178627848625,56.29181289672852,0.05702072009444,-0.03467619791627,10.14317417144775,0.19328503310680,-0.53926932811737,2.56121873855591
652,2583490761,-0.34675595164299,-0.42209920287132,56.29190063476562,0.07350032031536,-0.06468556821346,10.15719985961914,0.06308786571026,-0.54270166158676,2.59087967872620
653,2583499094,-0.34654805064201,-0.42174533009529,56.29207611083984,0.10956268012524,-0.08634921163321,10.18121910095215,0.13790701329708,-0.46596133708954,2.62340998649597
654,2583507427,-0.34649756550789,-0.42173001170158,56.29066848754883,0.09698615968227,-0.05465557426214,10.17072486877441,0.11659599840641,-0.50333255529404,2.55148530006409
655,2583515760,-0.34615221619606,-0.42202451825142,56.28981018066406,0.06484859436750,-0.04644314944744,10.15215015411377,0.15164908766747,-0.54274010658264,2.49801564216614
656,2583524093,-0.34619608521461,-0.42091557383537,56.29047012329102,0.03465160354972,-0.08329596370459,10.17951107025146,0.10577399283648,-0.37253341078758,2.65362191200256
657,2583532426,-0.34590220451355,-0.42043110728264,56.29134750366211,0.05077308043838,-0.06524561345577,10.13282394409180,0.14851132035255,-0.45036229491234,2.70599031448364
658,2583540759,-0.34602156281471,-0.42070356011391,56.29056549072266,0.07827238738537,-0.04453176632524,10.18638992309570,0.09495196491480,-0.53844964504242,2.59208369255066
659,2583549092,-0.34596490859985,-0.42103147506714,56.29049301147461,0.10172598809004,-0.07360536605120,10.14506053924561,0.11854267120361,-0.54808056354523,2.59172511100769
660,2583557425,-0.34632894396782,-0.42104452848434,56.28918838500977,0.07136977463961,-0.07104837149382,10.15392398834229,0.06746789813042,-0.50691854953766,2.58944535255432
661,2583565758,-0.34567058086395,-0.42090153694153,56.29024505615234,0.05220653489232,-0.06936536729336,10.16590595245361,0.19177378714085,-0.49216476082802,2.72853112220764
662,2583574091,-0.34530681371689,-0.42185953259468,56.28986358642578,0.06691078841686,-0.07455219328403,10.16890144348145,0.15391594171524,-0.61875033378601,2.58145403862000
663,2583582424,-0.34519049525261,-0.42167648673058,56.29022216796875,0.08808232098818,-0.08747742325068,10.15143394470215,0.12582993507385,-0.48756697773933,2.64429831504822
664,2583590757,-0.34483969211578,-0.42188411951065,56.28864288330078,0.12244614213705,-0.05249102413654,10.15141773223877,0.15258400142193,-0.52958714962006,2.53819131851196
665,2583599090,-0.34397688508034,-0.42123648524284,56.28857421875000,0.10282584279776,-0.07338205724955,10.15802955627441,0.21605606377125,-0.43158698081970,2.59397888183594
666,2583607423,-0.34434837102890,-0.42040863633156,56.28730773925781,0.07250022888184,-0.06718724966049,10.15221405029297,0.06652017682791,-0.40574231743813,2.63068461418152
667,2583615756,-0.34477689862251,-0.42038860917091,56.28710937500000,0.05835725367069,-0.04777575284243,10.17303562164307,0.05909203737974,-0.50589394569397,2.58019876480103
668,2583624089,-0.34454762935638,-0.42018675804138,56.28683090209961,0.08663532882929,-0.07601469755173,10.15160560607910,0.13822722434998,-0.48134276270866,2.57652330398560
669,2583632422,-0.34392112493515,-0.42018842697144,56.28708267211914,0.10272007435560,-0.06258051097393,10.16359424591064,0.18729127943516,-0.50883960723877,2.63173460960388
670,2583640755,-0.34308975934982,-0.42031669616699,56.28732681274414,0.08389332145452,-0.06072111800313,10.18106842041016,0.21147114038467,-0.52003306150436,2.66431593894958
671,2583649088,-0.34261795878410,-0.41989949345589,56.28776931762695,0.06852574646473,-0.06965346634388,10.17276477813721,0.16956624388695,-0.45850765705109,2.65519714355469
672,2583657421,-0.34218284487724,-0.41984900832176,56.28793716430664,0.05748688429594,-0.06675556302071,10.15133476257324,0.16288089752197,-0.49928545951843,2.59776973724365
673,2583665754,-0.34205678105354,-0.42044353485107,56.28739166259766,0.06457370519638,-0.04521708935499,10.16558265686035,0.12627817690372,-0.57925307750702,2.53801202774048
674,2583674087,-0.34225142002106,-0.42152571678162,56.28721237182617,0.08870708942413,-0.07782070338726,10.15903663635254,0.08706279098988,-0.63514339923859,2.58073663711548
675,2583682420,-0.34280145168304,-0.42119795084000,56.28706359863281,0.09642017632723,-0.07035689800978,10.14398002624512,0.04579825326800,-0.46941933035851,2.58585953712463
676,2583690753,-0.34376901388168,-0.42142233252525,56.28645324707031,0.09411834180355,-0.06592256575823,10.13677024841309,-0.00391897838563,-0.53211015462875,2.64209556579590
677,2583699086,-0.34347397089005,-0.42186418175697,56.28636169433594,0.05144281685352,-0.07093463093042,10.16651344299316,0.14641097187996,-0.56183546781540,2.59057259559631
678,2583707419,-0.34355905652046,-0.42222097516060,56.28525543212891,0.05457368493080,-0.06018152087927,10.15717220306396,0.10150922089815,-0.54787576198578,2.57520389556885
679,2583715752,-0.34295824170113,-0.42189228534698,56.28474044799805,0.07645173370838,-0.06562637537718,10.15427398681641,0.18196351826191,-0.46921434998512,2.53967690467834
680,2583724085,-0.34196007251740,-0.42180216312408,56.28399276733398,0.09556355327368,-0.06999076902866,10.16801452636719,0.23157832026482,-0.49390649795532,2.53701329231262
681,2583732418,-0.34204095602036,-0.42204716801643,56.28447723388672,0.09310871362686,-0.06533337384462,10.15715599060059,0.10173974186182,-0.53745073080063,2.66129350662231
682,2583740751,-0.34187000989914,-0.42204618453979,56.28364562988281,0.04593475162983,-0.06931755691767,10.16881656646729,0.13206700980663,-0.50548410415649,2.58437395095825
683,2583749084,-0.34171000123024,-0.42158076167107,56.28391647338867,0.06792671978474,-0.06206433475018,10.14016246795654,0.13022276759148,-0.45369216799736,2.63544869422913
684,2583757417,-0.34074145555496,-0.42138409614563,56.28339385986328,0.06470386683941,-0.05684648826718,10.14951801300049,0.22791546583176,-0.48163723945618,2.58849787712097
685,2583765750,-0.34051534533501,-0.42148542404175,56.28280258178711,0.09203434735537,-0.06539078056812,10.15917396545410,0.13867548108101,-0.51990497112274,2.52986693382263
686,2583774083,-0.34040650725365,-0.42138403654099,56.28059768676758,0.09729802608490,-0.06845070421696,10.15345191955566,0.12394728511572,-0.49283066391945,2.58970165252686
687,2583782416,-0.34014275670052,-0.42112079262733,56.28078842163086,0.08249185979366,-0.05300286784768,10.14134883880615,0.14341409504414,-0.47702670097351,2.62394785881042
