sep=,
DeviceTag:,left thigh
FirmwareVersion:,2.2.1
AppVersion:,2023.6.0
StartTime: ,2025-04-02_17:17:54_000 PDT
© Movella Technologies B. V. 2005-2025

PacketCounter,SampleTimeFine,Euler_X,Euler_Y,Euler_Z,Acc_X,Acc_Y,Acc_Z,Gyr_X,Gyr_Y,Gyr_Z
0,2528767462,-0.26830413937569,-0.42837148904800,54.97364044189453,0.00000000000000,0.00000000000000,0.00000000000000,0.00000000000000,0.00000000000000,0.00000000000000
1,2528775795,-0.26807147264481,-0.43161916732788,54.99532699584961,0.07374174892902,-0.06344995647669,10.16821479797363,0.04760405793786,-0.40160563588142,2.59990906715393
2,2528784128,-0.28320017457008,-0.42598736286163,55.00538635253906,0.04874942451715,-0.06329534202814,10.12611389160156,0.15067574381828,-0.57222205400467,2.62941670417786
3,2528792461,-0.28284490108490,-0.43066766858101,55.02713775634766,0.06789954751730,-0.05952148512006,10.14440345764160,0.06212732195854,-0.57537251710892,2.60649156570435
4,2528800794,-0.29827573895454,-0.41676500439644,55.04972839355469,0.08334154635668,-0.05585419759154,10.13524055480957,0.06064170971513,-0.47209599614143,2.58351612091064
5,2528809127,-0.29853010177612,-0.42143747210503,55.07138442993164,0.07864870876074,-0.04115360602736,10.16819953918457,-0.00998955219984,-0.57360517978668,2.59504222869873
6,2528817460,-0.30256497859955,-0.42007669806480,55.08367156982422,0.07923157513142,-0.06130807846785,10.12790966033936,0.07895588129759,-0.35247749090195,2.61958074569702
7,2528825793,-0.30189609527588,-0.42320483922958,55.10482788085938,0.06143325567245,-0.07392936944962,10.16086959838867,0.09852515161037,-0.38859355449677,2.53758955001831
8,2528834126,-0.30945971608162,-0.42343989014626,55.12026977539062,0.07851216197014,-0.07026685774326,10.16452407836914,0.03607764840126,-0.45729094743729,2.57695865631104
9,2528842459,-0.30913630127907,-0.42767551541328,55.14177703857422,0.06102863699198,-0.03899974748492,10.15172100067139,0.05887432396412,-0.52291464805603,2.57862353324890
10,2528850792,-0.31322199106216,-0.42822819948196,55.15046691894531,0.07991763949394,-0.06654411554337,10.14985370635986,0.00651882309467,-0.47196793556213,2.56714868545532
11,2528859125,-0.31216216087341,-0.43157932162285,55.17213439941406,0.08420649170876,-0.06284911185503,10.12604904174805,0.14606517553329,-0.41664111614227,2.59824419021606
12,2528867458,-0.31541043519974,-0.43525329232216,55.18389511108398,0.06656233966351,-0.05889295414090,10.13521862030029,0.13102962076664,-0.53131604194641,2.72613573074341
13,2528875791,-0.31483888626099,-0.43926808238029,55.20616531372070,0.08016180247068,-0.05333578214049,10.13153553009033,0.09012368321419,-0.49676248431206,2.66878557205200
14,2528884124,-0.31649193167686,-0.44296243786812,55.21752548217773,0.07536117732525,-0.06598671525717,10.14619159698486,0.14068618416786,-0.56251424551010,2.62613773345947
15,2528892457,-0.31548020243645,-0.44652777910233,55.23939895629883,0.06881684809923,-0.05476865544915,10.12238788604736,0.14112162590027,-0.44120517373085,2.62283349037170
16,2528900790,-0.31711071729660,-0.45005610585213,55.25526428222656,0.07695011049509,-0.05099738389254,10.17363643646240,0.10118903964758,-0.60170406103134,2.66222858428955
17,2528909123,-0.31613478064537,-0.45463782548904,55.27749252319336,0.06661207973957,-0.06543076783419,10.12238693237305,0.13904687762260,-0.56415349245071,2.66384196281433
18,2528917456,-0.31754860281944,-0.45756658911705,55.27814865112305,0.06192409992218,-0.07622221112251,10.15718555450439,0.06023187190294,-0.57859998941422,2.55897712707520
19,2528925789,-0.31699791550636,-0.46221426129341,55.30030441284180,0.06465984880924,-0.06151024624705,10.14252948760986,0.08820262551308,-0.57217079401016,2.65572237968445
20,2528934122,-0.31789317727089,-0.46396175026894,55.34160614013672,0.05643725022674,-0.05758325010538,10.17366600036621,0.18658690154552,-0.54801660776138,2.55887484550476
21,2528942455,-0.31696000695229,-0.46773824095726,55.36417007446289,0.05525499954820,-0.06285021454096,10.17184925079346,0.13464123010635,-0.46907350420952,2.70479917526245
22,2528950788,-0.31811738014221,-0.46804186701775,55.37677383422852,0.07601585239172,-0.06471653282642,10.14067649841309,0.11309966444969,-0.50501024723053,2.66878581047058
23,2528959121,-0.31692457199097,-0.47301065921783,55.39836883544922,0.06767885386944,-0.06810943037271,10.17547512054443,0.16327792406082,-0.61184722185135,2.58845925331116
24,2528967454,-0.31778353452682,-0.47319892048836,55.41241455078125,0.09045989066362,-0.06082708016038,10.14795112609863,0.15925648808479,-0.45283401012421,2.62444734573364
25,2528975787,-0.31719812750816,-0.47739335894585,55.43445587158203,0.06381434947252,-0.05119265243411,10.16448879241943,0.09171175956726,-0.51802217960358,2.64094257354736
26,2528984120,-0.31743541359901,-0.47799071669579,55.44175338745117,0.07319381833076,-0.09141787141562,10.14433288574219,0.17226853966713,-0.43987327814102,2.45562386512756
27,2528992453,-0.31619095802307,-0.48227134346962,55.46411132812500,0.08885064721107,-0.06208290532231,10.15894508361816,0.17201238870621,-0.52831918001175,2.68184852600098
28,2529000786,-0.31759980320930,-0.48425939679146,55.47147369384766,0.06802793592215,-0.03415711596608,10.16446685791016,0.09634794294834,-0.54916918277740,2.56719946861267
29,2529009119,-0.31757077574730,-0.48842111229897,55.49397277832031,0.06649471819401,-0.06703091412783,10.15166282653809,0.02790671028197,-0.51428258419037,2.69842123985291
30,2529017452,-0.31886577606201,-0.48940002918243,55.50807189941406,0.06720820814371,-0.06701496988535,10.14616966247559,0.02808601222932,-0.44712206721306,2.52626800537109
31,2529025785,-0.31817704439163,-0.49355000257492,55.52883148193359,0.06816012412310,-0.04680174961686,10.14431762695312,0.10464696586132,-0.51320683956146,2.48846173286438
32,2529034118,-0.31839561462402,-0.49550855159760,55.53598022460938,0.07970155030489,-0.05780943110585,10.13330936431885,0.13059417903423,-0.57565438747406,2.60487842559814
33,2529042451,-0.31751480698586,-0.49970576167107,55.55757904052734,0.05475969612598,-0.06641805171967,10.14253711700439,0.12775099277496,-0.51825278997421,2.59009861946106
34,2529050784,-0.31787827610970,-0.50060081481934,55.57286453247070,0.04988993331790,-0.07350993901491,10.14803791046143,0.10846348851919,-0.46077445149422,2.59832072257996
35,2529059117,-0.31622636318207,-0.50474685430527,55.59414291381836,0.05778753012419,-0.08074502646923,10.14436149597168,0.21950115263462,-0.51238715648651,2.55062675476074
36,2529067450,-0.31644275784492,-0.50583928823471,55.61216354370117,0.08435877412558,-0.07169803231955,10.16625499725342,0.16858009994030,-0.53003537654877,2.58185100555420
37,2529075783,-0.31563609838486,-0.50939404964447,55.63392257690430,0.08718226104975,-0.05323779955506,10.16805744171143,0.12014356255531,-0.44115400314331,2.60979604721069
38,2529084116,-0.31664940714836,-0.51105105876923,55.65373992919922,0.08168711513281,-0.08966610580683,10.13697147369385,0.06028310209513,-0.54394394159317,2.58861303329468
39,2529092449,-0.31585350632668,-0.51534676551819,55.67627716064453,0.07586147636175,-0.04733215644956,10.15526103973389,0.12121937423944,-0.53129047155380,2.70000958442688
40,2529100782,-0.31625840067863,-0.51676660776138,55.69130706787109,0.09138432145119,-0.03827630355954,10.13689231872559,0.13774055242538,-0.48887330293655,2.55733799934387
41,2529109115,-0.31621038913727,-0.52018523216248,55.71356201171875,0.05513959378004,-0.05219250172377,10.13152885437012,0.03023760765791,-0.42560610175133,2.66732573509216
42,2529117448,-0.31696584820747,-0.52161866426468,55.72609710693359,0.07365735620260,-0.08176989108324,10.15162754058838,0.04432543367147,-0.48477503657341,2.56402349472046
43,2529125781,-0.31722548604012,-0.52510225772858,55.74806594848633,0.06193769723177,-0.05589799582958,10.14798641204834,-0.00591688835993,-0.43349531292915,2.63459062576294
44,2529134114,-0.31795176863670,-0.52611154317856,55.75971603393555,0.07899737358093,-0.06532651931047,10.18638324737549,0.05966835841537,-0.44061610102654,2.69186377525330
45,2529142447,-0.31790369749069,-0.53044682741165,55.78173446655273,0.07593108713627,-0.05976284667850,10.13511848449707,0.03085234574974,-0.53543996810913,2.64281272888184
46,2529150780,-0.31852290034294,-0.53145015239716,55.79578781127930,0.07843349128962,-0.06340487301350,10.14426708221436,0.06630244851112,-0.42757841944695,2.64104533195496
47,2529159113,-0.31841239333153,-0.53522121906281,55.81755828857422,0.09208822995424,-0.05445320904255,10.15152740478516,0.03799871727824,-0.46666574478149,2.61325383186340
48,2529167446,-0.31907519698143,-0.53755438327789,55.82089996337891,0.07470431178808,-0.04490174725652,10.15159130096436,0.05013986676931,-0.56187391281128,2.60672235488892
49,2529175779,-0.31912952661514,-0.54126554727554,55.84194183349609,0.05542440339923,-0.04444596171379,10.17546749114990,0.01663644611835,-0.45992925763130,2.52972602844238
50,2529184112,-0.31926578283310,-0.54340672492981,55.82846832275391,0.04847102239728,-0.05343299359083,10.14069938659668,0.08128677308559,-0.55239659547806,2.56404900550842
51,2529192445,-0.31869387626648,-0.54683250188828,55.85012435913086,0.06565771996975,-0.05731977149844,10.15712165832520,0.09419636428356,-0.42627212405205,2.60823369026184
52,2529200778,-0.31870368123055,-0.54875290393829,55.84939575195312,0.08293434232473,-0.04843277856708,10.14421749114990,0.08479592204094,-0.54911798238754,2.68046545982361
53,2529209111,-0.31823617219925,-0.55309420824051,55.87143707275391,0.07615787535906,-0.06280270218849,10.16073322296143,0.08161976188421,-0.53597784042358,2.65421104431152
54,2529217444,-0.31808790564537,-0.55477249622345,55.88607025146484,0.07311919331551,-0.06993576139212,10.16258525848389,0.09486232697964,-0.50501018762589,2.53615498542786
55,2529225777,-0.31857970356941,-0.55929976701736,55.90793991088867,0.06653928756714,-0.06973371654749,10.16627693176270,-0.03345219418406,-0.55926120281219,2.63315629959106
56,2529234110,-0.31799963116646,-0.56172037124634,55.91984558105469,0.07119205594063,-0.06245820596814,10.16257858276367,0.15771965682507,-0.59755450487137,2.52949547767639
57,2529242443,-0.31646415591240,-0.56562054157257,55.94144058227539,0.07377918064594,-0.06409072130919,10.16805839538574,0.21002390980721,-0.48341742157936,2.59983181953430
58,2529250776,-0.31645268201828,-0.56750822067261,55.94624328613281,0.06002075970173,-0.05074690282345,10.13516139984131,0.08966263383627,-0.53116244077682,2.55421304702759
59,2529259109,-0.31637710332870,-0.57192283868790,55.96843719482422,0.08047050982714,-0.06763550639153,10.12592029571533,0.03730713576078,-0.54688954353333,2.67567586898804
60,2529267442,-0.31640866398811,-0.57378864288330,55.98066711425781,0.07809979468584,-0.05101234093308,10.14606285095215,0.08151730895042,-0.52942067384720,2.56571412086487
61,2529275775,-0.31558701395988,-0.57813012599945,56.00242233276367,0.06578592211008,-0.05972784757614,10.14245796203613,0.12580431997776,-0.53815507888794,2.62626624107361
62,2529284108,-0.31559076905251,-0.58085709810257,56.01918411254883,0.07027064263821,-0.06150799617171,10.14976787567139,0.07693234831095,-0.63264590501785,2.57073426246643
63,2529292441,-0.31409433484077,-0.58394473791122,56.04056167602539,0.05978559330106,-0.07023228704929,10.14066314697266,0.20639950037003,-0.38674932718277,2.58012199401855
64,2529300774,-0.31416833400726,-0.58467578887939,56.04729080200195,0.07027504593134,-0.04095987230539,10.14791488647461,0.07516498118639,-0.40142634510994,2.64278721809387
65,2529309107,-0.31364411115646,-0.58872264623642,56.06918716430664,0.08160600811243,-0.05760439485312,10.17717742919922,0.09189107269049,-0.50165480375290,2.65259742736816
66,2529317440,-0.31265640258789,-0.58986437320709,56.07660675048828,0.07432034611702,-0.07923104614019,10.16257190704346,0.18927639722824,-0.44558528065681,2.60313677787781
67,2529325773,-0.31245601177216,-0.59379965066910,56.09869766235352,0.05540110915899,-0.05836715549231,10.16815853118896,0.05277812853456,-0.48959046602249,2.67567563056946
68,2529334106,-0.31221616268158,-0.59586238861084,56.10936737060547,0.07476567476988,-0.04962566867471,10.18086147308350,0.10907822847366,-0.56251424551010,2.65098381042480
69,2529342439,-0.31156063079834,-0.59965229034424,56.13052368164062,0.08373390883207,-0.07541856914759,10.13505458831787,0.10523609071970,-0.47071284055710,2.56899261474609
70,2529350772,-0.31197258830070,-0.60130262374878,56.14015197753906,0.07359433919191,-0.06953316181898,10.13876628875732,0.03115971758962,-0.50567620992661,2.65282773971558
71,2529359105,-0.31074064970016,-0.60521936416626,56.16194915771484,0.07455149292946,-0.06028718128800,10.13508319854736,0.17734016478062,-0.48810490965843,2.64913940429688
72,2529367438,-0.31046605110168,-0.60733413696289,56.16765975952148,0.09015138447285,-0.06228993088007,10.18260574340820,0.11553300172091,-0.55936360359192,2.60510873794556
73,2529375771,-0.30963987112045,-0.61233389377594,56.18902969360352,0.07254407554865,-0.05981268733740,10.14973926544189,0.12778942286968,-0.61691880226135,2.59689927101135
74,2529384104,-0.30953979492188,-0.61382305622101,56.19333267211914,0.08233332633972,-0.06725775450468,10.15702056884766,0.09552829712629,-0.47875571250916,2.62808442115784
75,2529392437,-0.30909839272499,-0.61793577671051,56.21529388427734,0.08257458359003,-0.07816110551357,10.13872337341309,0.08206801116467,-0.50967210531235,2.67407512664795
76,2529400770,-0.30916815996170,-0.61975038051605,56.22175216674805,0.07835845649242,-0.06142188236117,10.14605522155762,0.08361766487360,-0.51295059919357,2.67570114135742
77,2529409103,-0.30877751111984,-0.62370914220810,56.24300384521484,0.06281524151564,-0.05713722482324,10.15895938873291,0.07552357763052,-0.49156278371811,2.59207105636597
78,2529417436,-0.30887356400490,-0.62524628639221,56.24007034301758,0.07801865786314,-0.06118753552437,10.15521144866943,0.07739341259003,-0.48175257444382,2.61340785026550
79,2529425769,-0.30828610062599,-0.62923520803452,56.26243591308594,0.07417830079794,-0.08478163927794,10.13878059387207,0.10211114585400,-0.49681365489960,2.73960876464844
80,2529434102,-0.30830195546150,-0.63091742992401,56.27253341674805,0.06796029955149,-0.08253956586123,10.18825721740723,0.09164773672819,-0.49681371450424,2.51831483840942
81,2529442435,-0.30744391679764,-0.63412851095200,56.29389953613281,0.07000899314880,-0.03484503924847,10.16622066497803,0.13280981779099,-0.40236121416092,2.61813330650330
82,2529450768,-0.30805498361588,-0.63561290502548,56.31064224243164,0.07325513660908,-0.05870275199413,10.12777233123779,0.02014559507370,-0.47747495770454,2.63489794731140
83,2529459101,-0.30703631043434,-0.64044022560120,56.33078002929688,0.06078852340579,-0.07644890993834,10.15350151062012,0.15044520795345,-0.59622251987457,2.47883009910583
84,2529467434,-0.30751800537109,-0.64234596490860,56.34455490112305,0.07698298245668,-0.05848509073257,10.17901611328125,0.03892083466053,-0.53354448080063,2.64312005043030
85,2529475767,-0.30657169222832,-0.64607870578766,56.36584472656250,0.07395897805691,-0.05830175057054,10.16256427764893,0.14332446455956,-0.46482154726982,2.62306427955627
86,2529484100,-0.30644106864929,-0.64773762226105,56.37707901000977,0.08158828318119,-0.06572583317757,10.14420318603516,0.10813049972057,-0.50357580184937,2.59532403945923
87,2529492433,-0.30578789114952,-0.65167969465256,56.39815902709961,0.06194353476167,-0.07402630150318,10.15899562835693,0.11005155742168,-0.49051260948181,2.60518503189087
88,2529500766,-0.30591380596161,-0.65287864208221,56.39962387084961,0.06689507514238,-0.05755644664168,10.16260719299316,0.08120993524790,-0.44901755452156,2.60198354721069
89,2529509099,-0.30504292249680,-0.65680265426636,56.42050552368164,0.06000291556120,-0.06266594678164,10.15716457366943,0.13456436991692,-0.48933434486389,2.58546257019043
90,2529517432,-0.30487117171288,-0.65875941514969,56.41888809204102,0.05027878656983,-0.04929497092962,10.16820907592773,0.11564828455448,-0.54472512006760,2.61997771263123
91,2529525765,-0.30492451786995,-0.66371107101440,56.44023895263672,0.06838471442461,-0.07730337977409,10.16628360748291,0.02598564326763,-0.61356335878372,2.65641403198242
92,2529534098,-0.30438289046288,-0.66477340459824,56.44261169433594,0.07518823444843,-0.05913737043738,10.14242172241211,0.15980722010136,-0.44558528065681,2.53455424308777
93,2529542431,-0.30384448170662,-0.66887485980988,56.46342468261719,0.07244628667831,-0.05698312446475,10.16806507110596,0.09648882597685,-0.51158028841019,2.59549021720886
94,2529550764,-0.30351632833481,-0.67000520229340,56.47047424316406,0.04917884245515,-0.05778825655580,10.15359592437744,0.13205417990685,-0.45321828126907,2.60349488258362
95,2529559097,-0.30284914374352,-0.67418402433395,56.49097061157227,0.06567569822073,-0.07109181582928,10.12785148620605,0.11092245578766,-0.52171075344086,2.55936145782471
96,2529567430,-0.30246254801750,-0.67558711767197,56.48349380493164,0.07272198796272,-0.04919299483299,10.12960433959961,0.14135217666626,-0.49435478448868,2.66742849349976
97,2529575763,-0.30176767706871,-0.67961513996124,56.50423431396484,0.08479246497154,-0.04212567582726,10.14049816131592,0.11476457864046,-0.50209021568298,2.60856652259827
98,2529584096,-0.30144056677818,-0.68069016933441,56.49618530273438,0.06777431070805,-0.07426354289055,10.14798069000244,0.12745644152164,-0.45312863588333,2.67568874359131
99,2529592429,-0.30128285288811,-0.68435263633728,56.51679611206055,0.07499931752682,-0.08909094333649,10.12597751617432,0.05161269009113,-0.45986521244049,2.60386657714844
100,2529600762,-0.30130207538605,-0.68620246648788,56.51336669921875,0.06355679035187,-0.07568212598562,10.14619159698486,0.09245458245277,-0.54758107662201,2.59724497795105
101,2529609095,-0.30066847801208,-0.69035041332245,56.53328704833984,0.08000461757183,-0.04688869789243,10.12771511077881,0.10918068140745,-0.51843214035034,2.52993083000183
102,2529617428,-0.29968255758286,-0.69217395782471,56.52362442016602,0.09465552121401,-0.07286237925291,10.16792869567871,0.21225237846375,-0.54345726966858,2.59347987174988
103,2529625761,-0.29910871386528,-0.69601744413376,56.54301071166992,0.06801885366440,-0.06969206780195,10.16263580322266,0.10154764354229,-0.48223921656609,2.48077726364136
104,2529634094,-0.29944065213203,-0.69780796766281,56.53249740600586,0.06260611861944,-0.04184641316533,10.16814327239990,0.05614640936255,-0.53866738080978,2.48429894447327
105,2529642427,-0.29873877763748,-0.70243734121323,56.55254745483398,0.06046239659190,-0.06729664653540,10.16453170776367,0.11800479143858,-0.57600015401840,2.56769919395447
106,2529650760,-0.29839771986008,-0.70449477434158,56.54946136474609,0.07287658751011,-0.04751406237483,10.13509750366211,0.13576826453209,-0.57642275094986,2.50531554222107
107,2529659093,-0.29856917262077,-0.70810437202454,56.56916809082031,0.05441197007895,-0.07403277605772,10.16276454925537,0.01224360335618,-0.45408916473389,2.54182839393616
108,2529667426,-0.29825165867805,-0.71006327867508,56.57781982421875,0.07972013205290,-0.04941788315773,10.13139247894287,0.13304033875465,-0.56975018978119,2.60865616798401
109,2529675759,-0.29736673831940,-0.71403622627258,56.59803390502930,0.06959274411201,-0.05602015182376,10.17726325988770,0.13941827416420,-0.49941357970238,2.59543895721436
110,2529684092,-0.29790958762169,-0.71504276990891,56.61469650268555,0.06473057717085,-0.05205265432596,10.14799404144287,0.02534528635442,-0.45434531569481,2.53684663772583
111,2529692425,-0.29727941751480,-0.71893054246902,56.63509750366211,0.07713886350393,-0.07814934104681,10.15709209442139,0.11024367809296,-0.49056386947632,2.62343573570251
112,2529700758,-0.29757606983185,-0.72048485279083,56.64184570312500,0.07727459818125,-0.04870935901999,10.15155601501465,0.05854133889079,-0.52383679151535,2.59750127792358
113,2529709091,-0.29766929149628,-0.72388386726379,56.66157531738281,0.07033339887857,-0.05203385278583,10.13147830963135,0.02275824919343,-0.42965316772461,2.55820894241333
114,2529717424,-0.29698723554611,-0.72499811649323,56.64524078369141,0.05861350148916,-0.04583275318146,10.15721511840820,0.17146170139313,-0.47226250171661,2.66421341896057
115,2529725757,-0.29558137059212,-0.72907972335815,56.66540145874023,0.04967181384563,-0.05796995013952,10.16646385192871,0.20479860901833,-0.51402646303177,2.62639403343201
116,2529734090,-0.29539778828621,-0.73090636730194,56.67478561401367,0.06876941770315,-0.05130413547158,10.13149929046631,0.10836103558540,-0.56594651937485,2.59898686408997
117,2529742423,-0.29387938976288,-0.73511964082718,56.69428253173828,0.06895039975643,-0.07299435138702,10.17548274993896,0.21724712848663,-0.52916449308395,2.55093407630920
118,2529750756,-0.29332870244980,-0.73703753948212,56.69625091552734,0.08545328676701,-0.04419927671552,10.14599704742432,0.15230223536491,-0.57848471403122,2.58737087249756
119,2529759089,-0.29348531365395,-0.74142187833786,56.71530914306641,0.06511373072863,-0.06509777158499,10.14255809783936,0.01648276112974,-0.55075734853745,2.50595593452454
120,2529767422,-0.29299062490463,-0.74222528934479,56.71386337280273,0.07465569674969,-0.07820466160774,10.17362308502197,0.14391356706619,-0.44550839066505,2.57580614089966
121,2529775755,-0.29191008210182,-0.74686193466187,56.73342895507812,0.06522601842880,-0.05375074595213,10.14254379272461,0.16694077849388,-0.58210909366608,2.58405399322510
122,2529784088,-0.29160627722740,-0.74815398454666,56.73577117919922,0.06683595478535,-0.07378249615431,10.13706398010254,0.12278184294701,-0.50726431608200,2.57926392555237
123,2529792421,-0.29090020060539,-0.75216042995453,56.75529861450195,0.06513690948486,-0.08813896775246,10.14992618560791,0.12121937423944,-0.50559943914413,2.58420753479004
124,2529800754,-0.29040196537971,-0.75282210111618,56.74887084960938,0.09363392740488,-0.04893592745066,10.17523193359375,0.15378788113594,-0.43595430254936,2.52663946151733
125,2529809087,-0.28922563791275,-0.75618034601212,56.76804733276367,0.06427106261253,-0.06010666862130,10.16637802124023,0.17714805901051,-0.42830842733383,2.56585502624512
126,2529817420,-0.28877738118172,-0.75745242834091,56.77195739746094,0.07134212553501,-0.07491992413998,10.15169334411621,0.14620605111122,-0.50937753915787,2.68747115135193
127,2529825753,-0.28784134984016,-0.76149094104767,56.79142379760742,0.06578776240349,-0.05424736812711,10.15170669555664,0.14893396198750,-0.51282256841660,2.59235239028931
128,2529834086,-0.28746953606606,-0.76266175508499,56.78892898559570,0.06432607769966,-0.06308595091105,10.16089820861816,0.13763809204102,-0.49947759509087,2.56614947319031
129,2529842419,-0.28562721610069,-0.76699537038803,56.80894470214844,0.08518411964178,-0.06928638368845,10.19184112548828,0.25993326306343,-0.54837512969971,2.67550921440125
130,2529850752,-0.28493085503578,-0.76846057176590,56.81132507324219,0.06428805738688,-0.05694271996617,10.15906620025635,0.17745541036129,-0.53659260272980,2.51521515846252
131,2529859085,-0.28445795178413,-0.77274692058563,56.83015060424805,0.05389368906617,-0.06529142707586,10.18666267395020,0.09379932284355,-0.54261195659637,2.53698754310608
132,2529867418,-0.28439378738403,-0.77386635541916,56.83058929443359,0.05755469575524,-0.06910925358534,10.13353157043457,0.10344309359789,-0.50178289413452,2.62050294876099
133,2529875751,-0.28369152545929,-0.77758330106735,56.84934616088867,0.05282228067517,-0.07048103213310,10.14639949798584,0.12182129174471,-0.47447809576988,2.53675675392151
134,2529884084,-0.28384533524513,-0.77790075540543,56.85382080078125,0.07303426414728,-0.04753495007753,10.14982509613037,0.07909674942493,-0.41270932555199,2.52707457542419
135,2529892417,-0.28354102373123,-0.78158682584763,56.87279129028320,0.08136740326881,-0.07171743363142,10.13330173492432,0.07448620349169,-0.47159644961357,2.56979942321777
136,2529900750,-0.28396815061569,-0.78223246335983,56.86750793457031,0.06791868060827,-0.06536634266376,10.15540409088135,0.04724545404315,-0.45278280973434,2.60275197029114
137,2529909083,-0.28288868069649,-0.78662568330765,56.88583755493164,0.06206484511495,-0.05566054210067,10.17925930023193,0.16694079339504,-0.55774998664856,2.50549483299255
138,2529917416,-0.28339472413063,-0.78749674558640,56.88550567626953,0.08706255257130,-0.04404480755329,10.15882968902588,0.03812678903341,-0.48531296849251,2.58971452713013
139,2529925749,-0.28256267309189,-0.79107248783112,56.90408325195312,0.06320858746767,-0.05547355487943,10.15178585052490,0.13695931434631,-0.46018537878990,2.54003572463989
140,2529934082,-0.28217914700508,-0.79243409633636,56.89487838745117,0.08693836629391,-0.06759490817785,10.13873767852783,0.14314515888691,-0.54555761814117,2.59914064407349
141,2529942415,-0.28097259998322,-0.79544824361801,56.91436386108398,0.07424649596214,-0.07403095811605,10.12240886688232,0.18369249999523,-0.39407506585121,2.65618348121643
142,2529950748,-0.28133040666580,-0.79642772674561,56.92309570312500,0.08206645399332,-0.04489739611745,10.12960433959961,0.05715816468000,-0.49899095296860,2.53887009620667
143,2529959081,-0.28094336390495,-0.80038779973984,56.94153594970703,0.07053251564503,-0.07159399241209,10.15174961090088,0.08469347655773,-0.50956964492798,2.53387546539307
144,2529967414,-0.28108188509941,-0.80184590816498,56.94534301757812,0.07172639667988,-0.09537912160158,10.14812946319580,0.08159414678812,-0.55872339010239,2.51917314529419
145,2529975747,-0.28006324172020,-0.80583149194717,56.96434020996094,0.08222182840109,-0.05721118673682,10.17174816131592,0.16212528944016,-0.51172119379044,2.60398173332214
146,2529984080,-0.28054696321487,-0.80646085739136,56.97434234619141,0.06543807685375,-0.04141327366233,10.16641998291016,0.04381315037608,-0.46405315399170,2.61112809181213
147,2529992413,-0.27999868988991,-0.81147164106369,56.99364471435547,0.05694079771638,-0.07383646070957,10.16291427612305,0.10788717120886,-0.63639849424362,2.64215993881226
148,2530000746,-0.28020101785660,-0.81245535612106,57.00391769409180,0.06045039370656,-0.05739363282919,10.15186405181885,0.07863569259644,-0.51093995571136,2.62745666503906
149,2530009079,-0.27944028377533,-0.81622970104218,57.02340698242188,0.06981153786182,-0.03575000166893,10.15721416473389,0.13195173442364,-0.48946240544319,2.66484093666077
150,2530017412,-0.27948516607285,-0.81736946105957,57.04322433471680,0.07484683394432,-0.05602799728513,10.15719985961914,0.09620707482100,-0.53433859348297,2.66349625587463
151,2530025745,-0.27869850397110,-0.82058131694794,57.06206130981445,0.06392547488213,-0.06260196119547,10.13536262512207,0.13517913222313,-0.42243000864983,2.59422254562378
152,2530034078,-0.27886992692947,-0.82105952501297,57.06903457641602,0.06420852988958,-0.06613430380821,10.12621402740479,0.08023658394814,-0.46010848879814,2.64381146430969
153,2530042411,-0.27764344215393,-0.82438707351685,57.08773040771484,0.07460103183985,-0.05917373672128,10.14073467254639,0.18717603385448,-0.43551889061928,2.57759881019592
154,2530050744,-0.27847811579704,-0.82535654306412,57.08266067504883,0.04868513718247,-0.04457651451230,10.14467525482178,0.00064035580726,-0.52343958616257,2.53614211082458
155,2530059077,-0.27814686298370,-0.82855111360550,57.10111999511719,0.07798033207655,-0.06271398812532,10.17550373077393,0.08095379173756,-0.42086753249168,2.56182074546814
156,2530067410,-0.27831381559372,-0.82983171939850,57.10693740844727,0.08913736045361,-0.06880486011505,10.16074657440186,0.07814902812243,-0.56512689590454,2.54725885391235
157,2530075743,-0.27736645936966,-0.83309471607208,57.12543487548828,0.06712161004543,-0.05076415091753,10.16280078887939,0.15614438056946,-0.43140777945518,2.56470227241516
158,2530084076,-0.27709451317787,-0.83417207002640,57.13088607788086,0.09193106740713,-0.04293718561530,10.14600467681885,0.13311716914177,-0.54218935966492,2.57812404632568
159,2530092409,-0.27661320567131,-0.83795326948166,57.14963912963867,0.08309073746204,-0.07709741592407,10.13520431518555,0.09857638925314,-0.49517440795898,2.59629702568054
160,2530100742,-0.27729174494743,-0.83932214975357,57.15496826171875,0.07692428678274,-0.04533439129591,10.15901565551758,0.02076033502817,-0.57965004444122,2.63625526428223
161,2530109075,-0.27659615874290,-0.84321558475494,57.17426300048828,0.06973971426487,-0.05216847732663,10.14263629913330,0.12812240421772,-0.50913417339325,2.66836309432983
162,2530117408,-0.27614125609398,-0.84349304437637,57.17065048217773,0.07470919936895,-0.07422284036875,10.15728664398193,0.15655420720577,-0.45259076356888,2.73373055458069
163,2530125741,-0.27560535073280,-0.84705758094788,57.18999862670898,0.07328264415264,-0.07939699292183,10.16464710235596,0.10807927697897,-0.47078964114189,2.68323206901550
164,2530134074,-0.27644032239914,-0.84816622734070,57.18020248413086,0.07525426149368,-0.05382074043155,10.13160610198975,0.00280475895852,-0.55454826354980,2.52818942070007
165,2530142407,-0.27624791860580,-0.85175806283951,57.20010757446289,0.05359316244721,-0.09446097165346,10.16676425933838,0.06740386039019,-0.47596377134323,2.75402975082397
166,2530150740,-0.27644583582878,-0.85227388143539,57.20437622070312,0.09075201302767,-0.06922645121813,10.16441726684570,0.08438610285521,-0.48976981639862,2.65882182121277
167,2530159073,-0.27564576268196,-0.85675126314163,57.22277450561523,0.07055551558733,-0.07516158372164,10.13355922698975,0.13826562464237,-0.58184015750885,2.56844139099121
168,2530167406,-0.27545154094696,-0.85705369710922,57.22809982299805,0.08272571116686,-0.07201106101274,10.14988231658936,0.13207979500294,-0.46684503555298,2.56012988090515
169,2530175739,-0.27457991242409,-0.85984605550766,57.24673461914062,0.07339030504227,-0.08041321486235,10.13353157043457,0.14829361438751,-0.38201072812080,2.59929418563843
170,2530184072,-0.27411589026451,-0.86017584800720,57.25335693359375,0.08911128342152,-0.04994475468993,10.15342998504639,0.16558322310448,-0.47304370999336,2.44184327125549
171,2530192405,-0.27400061488152,-0.86390376091003,57.27160644531250,0.08644083142281,-0.06258614361286,10.10222244262695,0.05902801081538,-0.49394494295120,2.55575013160706
172,2530200738,-0.27352827787399,-0.86456006765366,57.28068161010742,0.08807995170355,-0.05869630351663,10.15529727935791,0.16856727004051,-0.51393681764603,2.60594081878662
173,2530209071,-0.27227365970612,-0.86876177787781,57.29956436157227,0.08641598373652,-0.04356187954545,10.17543888092041,0.19532135128975,-0.55255025625229,2.63371968269348
174,2530217404,-0.27208700776100,-0.86918109655380,57.30360794067383,0.08547564595938,-0.08740558475256,10.13159942626953,0.13327085971832,-0.48816889524460,2.58813905715942
175,2530225737,-0.27115571498871,-0.87245726585388,57.32234954833984,0.07745166867971,-0.05720615014434,10.15362358093262,0.15796299278736,-0.44303658604622,2.62241101264954
176,2530234070,-0.27132755517960,-0.87207537889481,57.32921218872070,0.07553997635841,-0.06244213134050,10.12985420227051,0.09190388023853,-0.39495873451233,2.55714607238770
177,2530242403,-0.27030879259109,-0.87629324197769,57.34851455688477,0.07511286437511,-0.07692559808493,10.12624168395996,0.16924604773521,-0.55652046203613,2.68809866905212
178,2530250736,-0.27061727643013,-0.87646490335464,57.35105133056641,0.08618080615997,-0.06633675098419,10.15719985961914,0.07991642504930,-0.46665298938751,2.60002422332764
179,2530259069,-0.27047416567802,-0.87940728664398,57.36911773681641,0.07880493998528,-0.05100879818201,10.16458892822266,0.06206329539418,-0.40376996994019,2.54431319236755
180,2530267402,-0.27060943841934,-0.88010805845261,57.36981964111328,0.09469444304705,-0.06851679831743,10.16259193420410,0.10097131133080,-0.53292971849442,2.65906500816345
181,2530275735,-0.27049493789673,-0.88397008180618,57.38799285888672,0.06465967744589,-0.05897709727287,10.14284420013428,0.05982205271721,-0.51686966419220,2.56087303161621
182,2530284068,-0.27042788267136,-0.88464272022247,57.39601135253906,0.08221847563982,-0.05998682975769,10.17007446289062,0.12522798776627,-0.53225100040436,2.60481381416321
183,2530292401,-0.27047982811928,-0.88821226358414,57.41403961181641,0.06969402730465,-0.06446196883917,10.16292858123779,0.03962522745132,-0.48335343599319,2.54464626312256
184,2530300734,-0.27080824971199,-0.88823872804642,57.42092132568359,0.09122504293919,-0.04947432875633,10.13514041900635,0.07919920980930,-0.45994195342064,2.69525766372681
185,2530309067,-0.27008429169655,-0.89228665828705,57.43870162963867,0.07660435885191,-0.03716647997499,10.15546131134033,0.13247683644295,-0.54085737466812,2.51457524299622
186,2530317400,-0.27001458406448,-0.89218485355377,57.44409179687500,0.07116753607988,-0.04934612289071,10.17388725280762,0.12466447800398,-0.44864609837532,2.56045007705688
187,2530325733,-0.27007618546486,-0.89522469043732,57.46257400512695,0.08426481485367,-0.07593133300543,10.15363025665283,0.03897206112742,-0.42086753249168,2.60203480720520
188,2530334066,-0.27016311883926,-0.89546126127243,57.46773529052734,0.07661242783070,-0.08450841158628,10.13177871704102,0.10668329149485,-0.49393212795258,2.57707405090332
189,2530342399,-0.26920077204704,-0.89900511503220,57.48579025268555,0.07670658081770,-0.07317838072777,10.16106224060059,0.16270163655281,-0.48287954926491,2.55207443237305
190,2530350732,-0.26911517977715,-0.89881181716919,57.49156570434570,0.07350619137287,-0.04706401005387,10.14273643493652,0.13178524374962,-0.44557246565819,2.62282085418701
191,2530359065,-0.26873472332954,-0.90214824676514,57.51047897338867,0.07940118014812,-0.05097239837050,10.14634132385254,0.09372249245644,-0.46053117513657,2.65924429893494
192,2530367398,-0.26878398656845,-0.90242135524750,57.51807403564453,0.08845035731792,-0.08816172182560,10.15362358093262,0.11275386065245,-0.50727707147598,2.57878971099854
193,2530375731,-0.26809069514275,-0.90707463026047,57.53597640991211,0.06599450111389,-0.05507164821029,10.15387344360352,0.13128575682640,-0.61794346570969,2.53945946693420
194,2530384064,-0.26835837960243,-0.90661543607712,57.53710937500000,0.07130959630013,-0.02215078845620,10.17020320892334,0.08944491297007,-0.42440229654312,2.55261230468750
195,2530392397,-0.26782879233360,-0.91065555810928,57.55542373657227,0.06331630051136,-0.06542794406414,10.17775726318359,0.11139632016420,-0.54656940698624,2.59367203712463
196,2530400730,-0.26760977506638,-0.91130208969116,57.55596923828125,0.08024356514215,-0.04267829656601,10.15914535522461,0.14683361351490,-0.56269353628159,2.59509348869324
197,2530409063,-0.26648542284966,-0.91531336307526,57.57381057739258,0.07806281000376,-0.05874576792121,10.16472434997559,0.18326984345913,-0.54452019929886,2.53901124000549
198,2530417396,-0.26648458838463,-0.91479575634003,57.57981872558594,0.08025688678026,-0.06234993040562,10.16104030609131,0.11929830163717,-0.42873108386993,2.60992407798767
199,2530425729,-0.26517602801323,-0.91865170001984,57.59826278686523,0.09291908144951,-0.07047714293003,10.14623451232910,0.20737284421921,-0.52730739116669,2.60939908027649
200,2530434062,-0.26515060663223,-0.91898202896118,57.60211944580078,0.07040198147297,-0.06473849713802,10.15938854217529,0.12389604747295,-0.53381341695786,2.66915702819824
201,2530442395,-0.26474633812904,-0.92212271690369,57.62077331542969,0.08073542267084,-0.08189034461975,10.15561866760254,0.09935761988163,-0.44265243411064,2.63964939117432
202,2530450728,-0.26407018303871,-0.92271554470062,57.62729644775391,0.06683728843927,-0.06030217930675,10.17226314544678,0.20374843478203,-0.57155603170395,2.58003234863281
203,2530459061,-0.26339820027351,-0.92648530006409,57.64587402343750,0.07826438546181,-0.05918223410845,10.14278697967529,0.13237436115742,-0.51940548419952,2.62812280654907
204,2530467394,-0.26351082324982,-0.92657887935638,57.65407943725586,0.06883315742016,-0.06929050385952,10.13014793395996,0.11065348982811,-0.51706171035767,2.56757068634033
205,2530475727,-0.26195067167282,-0.92966049909592,57.67215728759766,0.05993312224746,-0.05717406049371,10.16138458251953,0.23689323663712,-0.43836200237274,2.57301378250122
206,2530484060,-0.26218497753143,-0.92906785011292,57.67732238769531,0.09103198349476,-0.04464273527265,10.16637706756592,0.09491354972124,-0.43943786621094,2.46753454208374
207,2530492393,-0.26211240887642,-0.93143910169601,57.69532012939453,0.05847372487187,-0.08788780122995,10.15052700042725,0.05965555831790,-0.35583293437958,2.56613636016846
208,2530500726,-0.26229655742645,-0.93134772777557,57.70320892333984,0.08814742416143,-0.05145246908069,10.17925930023193,0.10483906418085,-0.50686728954315,2.61854338645935
209,2530509059,-0.26245504617691,-0.93504685163498,57.72145080566406,0.07334917038679,-0.05754990875721,10.15754318237305,0.03377236798406,-0.51553767919540,2.59778261184692
210,2530517392,-0.26263141632080,-0.93423211574554,57.72035980224609,0.09389495104551,-0.08300887048244,10.14996814727783,0.10439082235098,-0.42496576905251,2.55608296394348
211,2530525725,-0.26133289933205,-0.93752062320709,57.73927307128906,0.08799047768116,-0.04924328252673,10.14631271362305,0.21028004586697,-0.46843311190605,2.68336009979248
212,2530534058,-0.26063629984856,-0.94119358062744,57.75763702392578,0.09409442543983,-0.04946789145470,10.14073371887207,0.13576827943325,-0.50982576608658,2.60690164566040
213,2530542391,-0.26029431819916,-0.94089931249619,57.76271057128906,0.07391296327114,-0.07702798396349,10.12648582458496,0.16937413811684,-0.49476456642151,2.62793064117432
214,2530550724,-0.25954964756966,-0.94032740592957,57.77019882202148,0.06517154723406,-0.05761297047138,10.12658596038818,0.21993663907051,-0.46238818764687,2.62588191032410
215,2530559057,-0.25948202610016,-0.94368517398834,57.78799057006836,0.07816222310066,-0.04729115590453,10.15382385253906,0.05947626009583,-0.47888377308846,2.54682374000549
216,2530567390,-0.25973394513130,-0.94276010990143,57.79253387451172,0.07742523401976,-0.08567932248116,10.15394592285156,0.09995955973864,-0.42465841770172,2.61205005645752
217,2530575723,-0.25920554995537,-0.94559115171432,57.81072998046875,0.08788567036390,-0.05516373738647,10.15186405181885,0.11655758321285,-0.41876715421677,2.60208606719971
218,2530584056,-0.25920405983925,-0.94573414325714,57.81570053100586,0.07650167495012,-0.06327129900455,10.13010501861572,0.13179805874825,-0.55734014511108,2.57106733322144
219,2530592389,-0.25833404064178,-0.95039296150208,57.83339309692383,0.08200218528509,-0.07628101110458,10.14655494689941,0.15768124163151,-0.63888311386108,2.54147005081177
220,2530600722,-0.25790593028069,-0.95002394914627,57.83874511718750,0.08312316238880,-0.07061373442411,10.13553333282471,0.18498601019382,-0.50217992067337,2.56398463249207
221,2530609055,-0.25789380073547,-0.95278203487396,57.85754394531250,0.07902643084526,-0.06446958333254,10.15206432342529,0.05690202116966,-0.41115966439247,2.67646980285645
222,2530617388,-0.25759384036064,-0.95166361331940,57.85953140258789,0.06232544779778,-0.07027474790812,10.13589954376221,0.17052675783634,-0.41789624094963,2.56069350242615
223,2530625721,-0.25813975930214,-0.95520794391632,57.87799835205078,0.06950134038925,-0.06505693495274,10.17239189147949,-0.00993832293898,-0.50846815109253,2.64116048812866
224,2530634054,-0.25888890028000,-0.95396023988724,57.88449478149414,0.07064633816481,-0.05779160931706,10.16320133209229,0.05066495761275,-0.40922582149506,2.70286536216736
225,2530642387,-0.25873094797134,-0.95632475614548,57.90268325805664,0.08067085593939,-0.07510209828615,10.15941810607910,0.07301337271929,-0.36769235134125,2.61071825027466
226,2530650720,-0.25918617844582,-0.95598030090332,57.90873336791992,0.08116960525513,-0.04941663146019,10.12821674346924,0.08401469141245,-0.52251756191254,2.57320594787598
227,2530659053,-0.25830030441284,-0.95980697870255,57.92706680297852,0.08051104843616,-0.05083975940943,10.16303634643555,0.16222776472569,-0.54550641775131,2.63003134727478
228,2530667386,-0.25817504525185,-0.95887649059296,57.93145751953125,0.06415726244450,-0.07313016802073,10.13774490356445,0.15373663604259,-0.45836675167084,2.53150606155396
229,2530675719,-0.25729259848595,-0.96230632066727,57.94992065429688,0.07183694094419,-0.03854300826788,10.15583324432373,0.16274005174637,-0.49958005547523,2.64639878273010
230,2530684052,-0.25855645537376,-0.96093451976776,57.95443725585938,0.06333826482296,-0.05966763198376,10.15788650512695,-0.01509959064424,-0.41158229112625,2.50010251998901
231,2530692385,-0.25852230191231,-0.96520274877548,57.97234344482422,0.08474782109261,-0.07617699354887,10.16671943664551,0.05925852805376,-0.60016715526581,2.58185076713562
232,2530700718,-0.25815102458000,-0.96418696641922,57.97765731811523,0.08133655786514,-0.07760671526194,10.14481925964355,0.18492196500301,-0.46144050359726,2.54445433616638
233,2530709051,-0.25740337371826,-0.96843820810318,57.99517822265625,0.07620655000210,-0.06750951707363,10.17968845367432,0.14579623937607,-0.60084593296051,2.53524589538574
234,2530717384,-0.25741398334503,-0.96795785427094,58.00090026855469,0.04742556810379,-0.06475760787725,10.15638542175293,0.14128810167313,-0.53161054849625,2.60407114028931
235,2530725717,-0.25771200656891,-0.97133123874664,58.01843643188477,0.07132790237665,-0.05205651745200,10.15226459503174,0.02087560296059,-0.49669846892357,2.54108595848083
236,2530734050,-0.25810894370079,-0.97510480880737,58.03680038452148,0.08575933426619,-0.03689422458410,10.12084770202637,0.00988709367812,-0.54037070274353,2.63483381271362
237,2530742383,-0.34225821495056,-0.38738989830017,55.77217483520508,0.07059718668461,-0.07210651785135,10.13039112091064,0.15798860788345,-0.51124727725983,2.53012251853943
238,2530750716,-0.34196957945824,-0.38779062032700,55.77357482910156,0.06742974370718,-0.06035298481584,10.16155529022217,0.15017625689507,-0.54197156429291,2.54994845390320
239,2530759049,-0.34249851107597,-0.38750663399696,55.77330398559570,0.06079521030188,-0.06314921379089,10.17634105682373,0.04396683350205,-0.46487277746201,2.56717371940613
240,2530767382,-0.34258112311363,-0.38739106059074,55.76985931396484,0.06730613112450,-0.07656102627516,10.16162109375000,0.10576118528843,-0.48081761598587,2.58801150321960
241,2530775715,-0.34354585409164,-0.38637307286263,55.76987457275391,0.07384299486876,-0.05312573909760,10.16510391235352,-0.00746654905379,-0.37707996368408,2.60363602638245
242,2530784048,-0.34351024031639,-0.38685730099678,55.76641845703125,0.06663960218430,-0.05250508338213,10.13410282135010,0.12048936635256,-0.55212765932083,2.58970165252686
243,2530792381,-0.34278297424316,-0.38745674490929,55.76598358154297,0.06174155324697,-0.07922319322824,10.16175651550293,0.19470663368702,-0.57042902708054,2.54806590080261
244,2530800714,-0.34274584054947,-0.38671046495438,55.76266860961914,0.07848282903433,-0.06040342524648,10.13759422302246,0.12104006856680,-0.40601122379303,2.61737775802612
245,2530809047,-0.34270370006561,-0.38673171401024,55.76248550415039,0.07651437073946,-0.05795305222273,10.18524551391602,0.11292034387589,-0.50088632106781,2.57823920249939
246,2530817380,-0.34316104650497,-0.38746234774590,55.76015853881836,0.07612569630146,-0.08361511677504,10.15604114532471,0.06032152473927,-0.58365869522095,2.63964939117432
247,2530825713,-0.34293073415756,-0.38710504770279,55.76091003417969,0.08182467520237,-0.05088610947132,10.15585517883301,0.13580667972565,-0.45584377646446,2.69128799438477
248,2530834046,-0.34317296743393,-0.38696447014809,55.75786590576172,0.07281282544136,-0.05176059529185,10.13403892517090,0.08634559810162,-0.47664251923561,2.59659194946289
249,2530842379,-0.34325644373894,-0.38617002964020,55.75732803344727,0.05856202915311,-0.05925913155079,10.16365242004395,0.09752620756626,-0.40342423319817,2.53725647926331
250,2530850712,-0.34331169724464,-0.38567292690277,55.75331115722656,0.08272403478622,-0.06324230134487,10.16687774658203,0.10965454578400,-0.43509623408318,2.59472203254700
251,2530859045,-0.34269902110100,-0.38579308986664,55.75389862060547,0.07117880135775,-0.04379892721772,10.10293769836426,0.18204037845135,-0.51393681764603,2.67133402824402
252,2530867378,-0.34260287880898,-0.38644087314606,55.75206375122070,0.08519584685564,-0.06855697929859,10.15403842926025,0.12627817690372,-0.57208114862442,2.61949110031128
253,2530875711,-0.34241649508476,-0.38586786389351,55.75274658203125,0.07693272083998,-0.06390600651503,10.14137840270996,0.13040207326412,-0.43099790811539,2.68157982826233
254,2530884044,-0.34258064627647,-0.38703039288521,55.74969482421875,0.09767080843449,-0.04731872677803,10.14094066619873,0.09528495371342,-0.63296616077423,2.61336922645569
255,2530892377,-0.34303975105286,-0.38733881711960,55.74943542480469,0.07362817227840,-0.07786011695862,10.15066146850586,0.05202252045274,-0.53573453426361,2.56928706169128
256,2530900710,-0.34267020225525,-0.38753306865692,55.74699783325195,0.06645765900612,-0.06769588589668,10.16726493835449,0.15929493308067,-0.51777893304825,2.71108770370483
257,2530909043,-0.34210065007210,-0.38721975684166,55.74657821655273,0.08286184072495,-0.05618214234710,10.15775775909424,0.17704559862614,-0.45986521244049,2.54997396469116
258,2530917376,-0.34199124574661,-0.38721325993538,55.74331283569336,0.07118809968233,-0.06766581535339,10.15070438385010,0.12666240334511,-0.49175488948822,2.59651517868042
259,2530925709,-0.34205067157745,-0.38773250579834,55.74272155761719,0.07984154671431,-0.06456837058067,10.16336536407471,0.10125306993723,-0.56122076511383,2.52958512306213
260,2530934042,-0.34279009699821,-0.38781565427780,55.73965454101562,0.06878498196602,-0.05230357125401,10.15439605712891,0.02517879568040,-0.50326853990555,2.51221895217896
261,2530942375,-0.34257754683495,-0.38758522272110,55.73965072631836,0.06090484187007,-0.06424883008003,10.15458965301514,0.13269454240799,-0.47073841094971,2.59972953796387
262,2530950708,-0.34163510799408,-0.38757213950157,55.73759078979492,0.06027383357286,-0.05837982520461,10.15276622772217,0.22874791920185,-0.49194705486298,2.62677836418152
263,2530959041,-0.34234139323235,-0.38737601041794,55.73780059814453,0.06657610088587,-0.05871443822980,10.15997505187988,0.02274543978274,-0.47497755289078,2.62387108802795
264,2530967374,-0.34196552634239,-0.38761031627655,55.73502349853516,0.06926988810301,-0.08841818571091,10.13438987731934,0.15962791442871,-0.52139061689377,2.59313416481018
265,2530975707,-0.34156531095505,-0.38738346099854,55.73512268066406,0.08146929740906,-0.04707958921790,10.13036918640137,0.15578579902649,-0.47192952036858,2.61114096641541
266,2530984040,-0.34219574928284,-0.38796466588974,55.73146820068359,0.07375477999449,-0.06070826947689,10.14705657958984,0.03929223865271,-0.56288558244705,2.59113574028015
267,2530992373,-0.34292593598366,-0.38764664530754,55.73111724853516,0.08085855841637,-0.05753073468804,10.17254924774170,0.01967173255980,-0.46014690399170,2.55996346473694
268,2531000706,-0.34265244007111,-0.38763675093651,55.72695159912109,0.06596231460571,-0.06148908287287,10.15089130401611,0.14657746255398,-0.49281790852547,2.62278246879578
269,2531009039,-0.34284955263138,-0.38674312829971,55.72709274291992,0.06453357636929,-0.05938577651978,10.12894725799561,0.08450137078762,-0.39114221930504,2.61833834648132
270,2531017372,-0.34273391962051,-0.38721799850464,55.72434997558594,0.06269983202219,-0.05331484973431,10.15827274322510,0.12842978537083,-0.55110305547714,2.58378481864929
271,2531025705,-0.34240475296974,-0.38687577843666,55.72437667846680,0.05744960531592,-0.05624306574464,10.15107727050781,0.14664149284363,-0.45676580071449,2.60312342643738
272,2531034038,-0.34250885248184,-0.38763028383255,55.72467803955078,0.08927875012159,-0.05751858651638,10.14861488342285,0.10190623253584,-0.58420944213867,2.57104134559631
273,2531042371,-0.34323823451996,-0.38734313845634,55.72492980957031,0.07648943364620,-0.06518367677927,10.15623378753662,0.02010717429221,-0.46488556265831,2.62909626960754
274,2531050704,-0.34311878681183,-0.38715198636055,55.72426986694336,0.07674685865641,-0.03557239100337,10.16347980499268,0.12817363440990,-0.47057190537453,2.62965989112854
275,2531059037,-0.34333488345146,-0.38822984695435,55.72371673583984,0.06414303928614,-0.05793404579163,10.16564750671387,0.08106905966997,-0.62920087575912,2.53365778923035
276,2531067370,-0.34350335597992,-0.38756987452507,55.71929550170898,0.07113255560398,-0.06773085147142,10.16006088256836,0.09192948788404,-0.41322162747383,2.47400212287903
277,2531075703,-0.34312987327576,-0.38714647293091,55.71958923339844,0.05872352048755,-0.06984654068947,10.16765785217285,0.15250712633133,-0.44723728299141,2.63765120506287
278,2531084036,-0.34242388606071,-0.38607975840569,55.71751403808594,0.07627180218697,-0.06053864583373,10.13796615600586,0.19879208505154,-0.36614269018173,2.56644415855408
279,2531092369,-0.34293663501740,-0.38589048385620,55.71779632568359,0.08852633833885,-0.05964141711593,10.16519641876221,0.04584948718548,-0.47601500153542,2.63560247421265
280,2531100702,-0.34302848577499,-0.38553628325462,55.71507263183594,0.05647096037865,-0.05065103992820,10.14019107818604,0.10202150046825,-0.45100262761116,2.69902324676514
281,2531109035,-0.34342211484909,-0.38575652241707,55.71496582031250,0.08464422821999,-0.05348712950945,10.14694881439209,0.06073134765029,-0.52618038654327,2.58965039253235
282,2531117368,-0.34251075983047,-0.38605910539627,55.71085739135742,0.06997279077768,-0.04425276815891,10.15456771850586,0.22289508581161,-0.52848571538925,2.56662321090698
283,2531125701,-0.34193995594978,-0.38599652051926,55.71150207519531,0.07465197890997,-0.04074787348509,10.15080451965332,0.17676384747028,-0.49284350872040,2.67709732055664
284,2531134034,-0.34154143929482,-0.38533228635788,55.70871353149414,0.07663983106613,-0.06453682482243,10.16367435455322,0.15917965769768,-0.41323441267014,2.62454962730408
285,2531142367,-0.34183999896049,-0.38564988970757,55.70827484130859,0.08050209283829,-0.07201205939054,10.18011760711670,0.07120757550001,-0.53661823272705,2.54861640930176
286,2531150700,-0.34277179837227,-0.38633301854134,55.70448684692383,0.08223591744900,-0.04093417897820,10.14885139465332,-0.00012807118765,-0.57547497749329,2.52651119232178
287,2531159033,-0.34344998002052,-0.38616338372231,55.70394134521484,0.05779948085546,-0.04751612246037,10.12375259399414,0.02663880400360,-0.47842270135880,2.53586053848267
288,2531167366,-0.34472125768661,-0.38579845428467,55.70186233520508,0.08744072169065,-0.05973511934280,10.16530418395996,-0.04260928183794,-0.44805699586868,2.65975666046143
289,2531175699,-0.34423539042473,-0.38585472106934,55.70203781127930,0.06515435874462,-0.06817203760147,10.16948223114014,0.16715851426125,-0.50743079185486,2.62154006958008
290,2531184032,-0.34395334124565,-0.38633832335472,55.69885253906250,0.09256624430418,-0.04153785109520,10.15599727630615,0.14368306100368,-0.54909229278564,2.48723196983337
291,2531192365,-0.34414935112000,-0.38667830824852,55.69802474975586,0.08859796822071,-0.06488715112209,10.14334392547607,0.08364328742027,-0.53915399312973,2.50101232528687
292,2531200698,-0.34473103284836,-0.38735550642014,55.69311904907227,0.06020338460803,-0.02662151306868,10.12919616699219,0.04131576418877,-0.57441204786301,2.56401062011719
293,2531209031,-0.34482416510582,-0.38713023066521,55.69269943237305,0.04806200787425,-0.06186306849122,10.14240837097168,0.09623268246651,-0.47080248594284,2.55007648468018
294,2531217364,-0.34526690840721,-0.38721910119057,55.69002151489258,0.04905407503247,-0.04156852141023,10.13683605194092,0.05781132727861,-0.50451081991196,2.66388058662415
295,2531225697,-0.34543320536613,-0.38737779855728,55.68942260742188,0.07825110852718,-0.05383317172527,10.15273666381836,0.08688349276781,-0.51631897687912,2.52897071838379
296,2531234030,-0.34610614180565,-0.38709664344788,55.68697357177734,0.07744229584932,-0.05171735584736,10.15825843811035,0.02943075820804,-0.46009567379951,2.69372105598450
297,2531242363,-0.34636545181274,-0.38691034913063,55.68648529052734,0.05564093962312,-0.06942975521088,10.14964675903320,0.07615111768246,-0.47628393769264,2.54221296310425
298,2531250696,-0.34615641832352,-0.38659590482712,55.68290710449219,0.08233665674925,-0.06320693343878,10.12706470489502,0.13416735827923,-0.45510089397430,2.47912502288818
299,2531259029,-0.34631198644638,-0.38645407557487,55.68245315551758,0.08702372014523,-0.06521378457546,10.15445327758789,0.08898384869099,-0.48191905021667,2.54544043540955
300,2531267362,-0.34672623872757,-0.38605567812920,55.67935180664062,0.06170018389821,-0.07883253693581,10.13492679595947,0.05991169810295,-0.44577735662460,2.54733562469482
301,2531275695,-0.34709766507149,-0.38572454452515,55.67877197265625,0.07431963086128,-0.04494950920343,10.16568279266357,0.06237066537142,-0.45745748281479,2.53258204460144
302,2531284028,-0.34719023108482,-0.38644433021545,55.67626190185547,0.05643585696816,-0.06116289645433,10.16065406799316,0.09817937016487,-0.57938116788864,2.54892373085022
303,2531292361,-0.34720340371132,-0.38683900237083,55.67583084106445,0.05767016857862,-0.05919155851007,10.16978168487549,0.10499275475740,-0.54692798852921,2.54876995086670
304,2531300694,-0.34632468223572,-0.38661649823189,55.67297363281250,0.08680138736963,-0.06071076542139,10.12885284423828,0.21494184434414,-0.46628150343895,2.56543231010437
305,2531309027,-0.34600916504860,-0.38696745038033,55.67294692993164,0.08118794858456,-0.05768472328782,10.16195583343506,0.14689764380455,-0.54106229543686,2.59602832794189
306,2531317360,-0.34569129347801,-0.38749462366104,55.67131423950195,0.07546278834343,-0.04760164394975,10.14740753173828,0.14689764380455,-0.55599546432495,2.52873992919922
307,2531325693,-0.34580639004707,-0.38752317428589,55.67083740234375,0.06922112405300,-0.04653953388333,10.15855121612549,0.09277476370335,-0.50187247991562,2.54239225387573
308,2531334026,-0.34582054615021,-0.38721141219139,55.66841125488281,0.05926821753383,-0.05986107140779,10.16616344451904,0.10678575187922,-0.45512655377388,2.52243876457214
309,2531342359,-0.34583237767220,-0.38744363188744,55.66824722290039,0.08149755746126,-0.06415247172117,10.16385173797607,0.10652960091829,-0.52725619077682,2.58340048789978
310,2531350692,-0.34544092416763,-0.38623860478401,55.66648864746094,0.07072255760431,-0.06812552362680,10.16961765289307,0.15491491556168,-0.34781572222710,2.57914853096008
311,2531359025,-0.34514737129211,-0.38626399636269,55.66576004028320,0.08672843128443,-0.06061478704214,10.16007518768311,0.14333726465702,-0.50166761875153,2.51234674453735
312,2531367358,-0.34524726867676,-0.38651636242867,55.66517639160156,0.07969670742750,-0.06144768744707,10.14926719665527,0.09702673554420,-0.52336287498474,2.59835934638977
313,2531375691,-0.34591129422188,-0.38574966788292,55.66434097290039,0.08600646257401,-0.07678890973330,10.15285110473633,0.02738161757588,-0.40607529878616,2.50038480758667
314,2531384024,-0.34544712305069,-0.38584658503532,55.66235733032227,0.04112209379673,-0.05821507051587,10.16298675537109,0.16490444540977,-0.50458765029907,2.54997420310974
315,2531392357,-0.34586337208748,-0.38518336415291,55.66171264648438,0.05782283097506,-0.06900518387556,10.19562530517578,0.05645376816392,-0.41925376653671,2.52313017845154
316,2531400690,-0.34694039821625,-0.38440379500389,55.65789794921875,0.08850663155317,-0.06931654363871,10.14179992675781,-0.01982541754842,-0.39991503953934,2.50262618064880
317,2531409023,-0.34754592180252,-0.38418191671371,55.65789413452148,0.08261964470148,-0.07775066792965,10.14564037322998,0.03443833813071,-0.47194227576256,2.60072827339172
318,2531417356,-0.34836441278458,-0.38375043869019,55.65549468994141,0.07201667129993,-0.06704804301262,10.16051101684570,0.01089885644615,-0.44112837314606,2.53694915771484
319,2531425689,-0.34797209501266,-0.38451966643333,55.65535354614258,0.07655512541533,-0.04905283451080,10.15120506286621,0.15506859123707,-0.59108692407608,2.58329820632935
320,2531434022,-0.34748607873917,-0.38453665375710,55.65201950073242,0.06958615779877,-0.05693483725190,10.17705631256104,0.16677430272102,-0.49341985583305,2.51229548454285
321,2531442355,-0.34721741080284,-0.38457816839218,55.65188980102539,0.05862695723772,-0.04073182493448,10.14613533020020,0.14064778387547,-0.50476694107056,2.58491206169128
322,2531450688,-0.34755477309227,-0.38358950614929,55.64795684814453,0.05428643524647,-0.07116694748402,10.17382335662842,0.06869738548994,-0.37380135059357,2.62325596809387
323,2531459021,-0.34744140505791,-0.38341185450554,55.64805984497070,0.07043975591660,-0.07320611178875,10.14049053192139,0.12120655179024,-0.47892218828201,2.61308765411377
324,2531467354,-0.34734761714935,-0.38330653309822,55.64694213867188,0.05979775264859,-0.05877194553614,10.13338851928711,0.12164201587439,-0.48048466444016,2.65581226348877
325,2531475687,-0.34742304682732,-0.38381984829903,55.64703369140625,0.06759671121836,-0.06670333445072,10.16254234313965,0.09802568703890,-0.56124633550644,2.61201167106628
326,2531484020,-0.34704259037971,-0.38347995281219,55.64429855346680,0.08301448822021,-0.08311034739017,10.16774272918701,0.15481245517731,-0.45166862010956,2.53222322463989
327,2531492353,-0.34715461730957,-0.38299179077148,55.64396286010742,0.08212831616402,-0.05136881023645,10.16948795318604,0.09502881765366,-0.44129481911659,2.56086015701294
328,2531500686,-0.34768173098564,-0.38336840271950,55.64166259765625,0.08635552227497,-0.04642288386822,10.13825035095215,0.04520912095904,-0.53821909427643,2.61431694030762
329,2531509019,-0.34775599837303,-0.38327997922897,55.64152145385742,0.07165565341711,-0.05712406709790,10.16614055633545,0.09899902343750,-0.48750290274620,2.58398962020874
330,2531517352,-0.34803524613380,-0.38316205143929,55.63851165771484,0.07579721510410,-0.05573029443622,10.14954566955566,0.07704760879278,-0.47940880060196,2.63027429580688
331,2531525685,-0.34804171323776,-0.38335418701172,55.63882446289062,0.08510220050812,-0.06754535436630,10.18601799011230,0.10729803889990,-0.52238953113556,2.63826632499695
332,2531534018,-0.34800207614899,-0.38352787494659,55.63731384277344,0.07331045717001,-0.06398659199476,10.18447303771973,0.11313807219267,-0.51447474956512,2.67266583442688
333,2531542351,-0.34793123602867,-0.38345417380333,55.63748168945312,0.06587561219931,-0.06304376572371,10.14803028106689,0.11733882129192,-0.49021804332733,2.62005472183228
334,2531550684,-0.34831127524376,-0.38437664508820,55.63614654541016,0.06340958178043,-0.07715823501348,10.16648387908936,0.06377944350243,-0.60350978374481,2.59310841560364
335,2531559017,-0.34812000393867,-0.38522115349770,55.63540649414062,0.05378755927086,-0.07023236900568,10.15388870239258,0.13032524287701,-0.59982138872147,2.51016950607300
336,2531567350,-0.34753280878067,-0.38527077436447,55.63254547119141,0.06678979098797,-0.04759181290865,10.15715694427490,0.17891541123390,-0.49923422932625,2.59149456024170
337,2531575683,-0.34755101799965,-0.38454365730286,55.63296508789062,0.06748182326555,-0.05094850063324,10.17732143402100,0.10637592524290,-0.41224834322929,2.65135526657104
338,2531584016,-0.34775990247726,-0.38501399755478,55.62961196899414,0.08028167486191,-0.06554803997278,10.14775753021240,0.08411715179682,-0.55048835277557,2.63557696342468
339,2531592349,-0.34765249490738,-0.38483309745789,55.62950134277344,0.09128522127867,-0.04456800222397,10.15291500091553,0.12110409885645,-0.47746214270592,2.58729386329651
340,2531600682,-0.34824660420418,-0.38493439555168,55.62649536132812,0.08844731003046,-0.06636258959770,10.12559032440186,0.03731993958354,-0.50484371185303,2.59994745254517
341,2531609015,-0.34864071011543,-0.38488325476646,55.62681579589844,0.08085884153843,-0.06502443552017,10.15693473815918,0.06157661601901,-0.49318927526474,2.63908576965332
342,2531617348,-0.34897309541702,-0.38492774963379,55.62387084960938,0.06234609335661,-0.06628234684467,10.13361644744873,0.06885106861591,-0.49713388085365,2.58319568634033
343,2531625681,-0.34945416450500,-0.38548657298088,55.62369918823242,0.06412704288960,-0.05131623148918,10.17016029357910,0.04946109279990,-0.56649720668793,2.57873868942261
344,2531634014,-0.35050675272942,-0.38577422499657,55.62289428710938,0.08432703465223,-0.07055613398552,10.16240596771240,-0.01722557283938,-0.52892112731934,2.69776797294617
345,2531642347,-0.34973376989365,-0.38559776544571,55.62245178222656,0.06286294013262,-0.07121355831623,10.16481113433838,0.20122541487217,-0.47641199827194,2.54705405235291
346,2531650680,-0.34933608770370,-0.38649731874466,55.62042236328125,0.06093860045075,-0.07442130893469,10.15021896362305,0.15739949047565,-0.60151195526123,2.59725785255432
347,2531659013,-0.34994566440582,-0.38625112175941,55.62018585205078,0.08355347067118,-0.07361604273319,10.13317298889160,0.03452799096704,-0.46857404708862,2.57387208938599
348,2531667346,-0.34990352392197,-0.38636359572411,55.61793899536133,0.04685867577791,-0.04240443557501,10.17065525054932,0.11406018584967,-0.50673925876617,2.56967139244080
349,2531675679,-0.35083767771721,-0.38666352629662,55.61751937866211,0.06584380567074,-0.06890202313662,10.15561199188232,-0.00468740519136,-0.53500455617905,2.55323982238770
350,2531684012,-0.35072821378708,-0.38691002130508,55.61548233032227,0.08031848818064,-0.06330356746912,10.15707111358643,0.12243603914976,-0.52221018075943,2.53516888618469
351,2531692345,-0.35111334919930,-0.38600140810013,55.61527252197266,0.07024886459112,-0.06169542297721,10.16283702850342,0.06119241192937,-0.38986146450043,2.57507586479187
352,2531700678,-0.35090565681458,-0.38684579730034,55.61506271362305,0.07942254841328,-0.04816400259733,10.13691425323486,0.13462843000889,-0.59651714563370,2.71933531761169
353,2531709011,-0.35049000382423,-0.38630342483521,55.61459732055664,0.07548117637634,-0.04356732964516,10.14435291290283,0.15819351375103,-0.43263727426529,2.54608058929443
354,2531717344,-0.35123750567436,-0.38634952902794,55.61373901367188,0.07277634739876,-0.06885358691216,10.14818668365479,0.01741768047214,-0.49867072701454,2.54976916313171
355,2531725677,-0.35064482688904,-0.38587638735771,55.61368179321289,0.06927533447742,-0.04418651759624,10.14270877838135,0.17955575883389,-0.44216573238373,2.59354376792908
356,2531734010,-0.35070034861565,-0.38498362898827,55.61145782470703,0.08677731454372,-0.07206504791975,10.15884494781494,0.10245694220066,-0.38609617948532,2.56155180931091
357,2531742343,-0.35127952694893,-0.38391134142876,55.61093139648438,0.07891240715981,-0.06353479623795,10.14621257781982,0.03748643025756,-0.37022811174393,2.53771734237671
358,2531750676,-0.35182011127472,-0.38367083668709,55.61164474487305,0.06906230747700,-0.05482602491975,10.12630653381348,0.04392841830850,-0.46405315399170,2.64313316345215
359,2531759009,-0.35185250639915,-0.38319230079651,55.61116027832031,0.07906231284142,-0.06130473688245,10.16453838348389,0.10327658802271,-0.44214010238647,2.54208469390869
360,2531767342,-0.35128358006477,-0.38261416554451,55.61114883422852,0.07594099640846,-0.04592461138964,10.15358161926270,0.17676384747028,-0.42387714982033,2.65939807891846
361,2531775675,-0.35083395242691,-0.38325932621956,55.61152648925781,0.05986232683063,-0.07295428961515,10.15229415893555,0.16280409693718,-0.57576960325241,2.64525914192200
362,2531784008,-0.35042491555214,-0.38381600379944,55.60811233520508,0.08220920711756,-0.06106831133366,10.13518333435059,0.15806543827057,-0.56083649396896,2.58122348785400
363,2531792341,-0.35109239816666,-0.38369488716125,55.60801315307617,0.07563069462776,-0.04698954522610,10.13349533081055,0.02707424573600,-0.48432680964470,2.58936882019043
364,2531800674,-0.35088670253754,-0.38382604718208,55.60738372802734,0.08176644146442,-0.03828084841371,10.15347290039062,0.13439789414406,-0.50813519954681,2.62912178039551
365,2531809007,-0.35103744268417,-0.38372811675072,55.60635375976562,0.07036376744509,-0.05862864106894,10.15203571319580,0.08780560642481,-0.48724681138992,2.47520637512207
366,2531817340,-0.35131245851517,-0.38332474231720,55.60198211669922,0.08123818784952,-0.06727236509323,10.16460990905762,0.07435812056065,-0.44362571835518,2.47039055824280
367,2531825673,-0.35142686963081,-0.38283526897430,55.60247421264648,0.08494710177183,-0.05303233489394,10.13699245452881,0.09523373097181,-0.43960428237915,2.65914154052734
368,2531834006,-0.35103884339333,-0.38201230764389,55.60006713867188,0.08300354331732,-0.06162937358022,10.15723609924316,0.15378788113594,-0.39452326297760,2.62046432495117
369,2531842339,-0.35147395730019,-0.38215833902359,55.59939575195312,0.06345105916262,-0.06808473169804,10.12850284576416,0.05509622022510,-0.51606279611588,2.52026128768921
370,2531850672,-0.35128310322762,-0.38257136940956,55.59616851806641,0.07681956887245,-0.06573964655399,10.17393684387207,0.13140103220940,-0.54265040159225,2.58839535713196
371,2531859005,-0.35046550631523,-0.38262057304382,55.59594345092773,0.08886915445328,-0.05051705986261,10.16989612579346,0.20627143979073,-0.50363987684250,2.57412815093994
372,2531867338,-0.34956085681915,-0.38331586122513,55.59609603881836,0.08928146213293,-0.05206949636340,10.16625404357910,0.21544134616852,-0.57671731710434,2.54305815696716
373,2531875671,-0.34955880045891,-0.38287392258644,55.59508132934570,0.07854406535625,-0.03386838734150,10.12436771392822,0.10732363909483,-0.44426614046097,2.47843337059021
374,2531884004,-0.34945169091225,-0.38275057077408,55.59249877929688,0.04971264675260,-0.05145203322172,10.15455436706543,0.11992583423853,-0.47636070847511,2.48493933677673
375,2531892337,-0.34866935014725,-0.38247975707054,55.59174346923828,0.06222302839160,-0.06030150130391,10.16157817840576,0.20153281092644,-0.46573087573051,2.50850462913513
376,2531900670,-0.34842947125435,-0.38230422139168,55.58938217163086,0.07204704731703,-0.06313310563564,10.17415904998779,0.13506387174129,-0.47093051671982,2.48148155212402
377,2531909003,-0.34849396348000,-0.38345879316330,55.58964157104492,0.08017421513796,-0.04930238798261,10.16840744018555,0.10035658627748,-0.63890874385834,2.63042831420898
378,2531917336,-0.34834003448486,-0.38443371653557,55.58768844604492,0.08235602080822,-0.06068099290133,10.14092636108398,0.12486939877272,-0.60960602760315,2.58734560012817
379,2531925669,-0.34841293096542,-0.38476094603539,55.58759689331055,0.07032699137926,-0.07165835052729,10.13582706451416,0.10058709979057,-0.53714329004288,2.58913826942444
380,2531934002,-0.34817662835121,-0.38425233960152,55.58624649047852,0.06806616485119,-0.04146890342236,10.13762283325195,0.13526876270771,-0.43266281485558,2.64756417274475
381,2531942335,-0.34869289398193,-0.38510522246361,55.58550262451172,0.08633644133806,-0.04939654096961,10.14448070526123,0.04554210975766,-0.60079473257065,2.51291012763977
382,2531950668,-0.34922498464584,-0.38494631648064,55.58433532714844,0.08822302520275,-0.06977073848248,10.15917396545410,0.04246839880943,-0.47218567132950,2.56191015243530
383,2531959001,-0.34921362996101,-0.38532903790474,55.58450698852539,0.07723512500525,-0.05704886466265,10.13747882843018,0.11037174612284,-0.54435372352600,2.62202692031860
384,2531967334,-0.34975308179855,-0.38451704382896,55.58354568481445,0.07872912287712,-0.05329715833068,10.14659881591797,0.04223787412047,-0.39639309048653,2.61931180953979
385,2531975667,-0.34976106882095,-0.38390877842903,55.58390426635742,0.07570450007915,-0.07856667041779,10.15229415893555,0.10622224211693,-0.42569574713707,2.64318418502808
386,2531984000,-0.34945827722549,-0.38316306471825,55.58222579956055,0.08113390207291,-0.06407607346773,10.18323707580566,0.14441306889057,-0.40213069319725,2.66398286819458
387,2531992333,-0.34951648116112,-0.38280430436134,55.58213424682617,0.06456197053194,-0.06338740140200,10.16173553466797,0.10150922089815,-0.45676586031914,2.58918952941895
388,2532000666,-0.34940123558044,-0.38262364268303,55.58152389526367,0.07857842743397,-0.05972569808364,10.15767192840576,0.12095043063164,-0.47118669748306,2.64653968811035
389,2532008999,-0.34938272833824,-0.38260203599930,55.58190155029297,0.08477257192135,-0.05860959365964,10.15016841888428,0.11083280295134,-0.49674969911575,2.64515662193298
390,2532017332,-0.34983980655670,-0.38315257430077,55.58103942871094,0.07374248653650,-0.05879152566195,10.12853145599365,0.05145899951458,-0.55658447742462,2.59687352180481
391,2532025665,-0.34944409132004,-0.38299161195755,55.58129119873047,0.06185340508819,-0.07678303122520,10.17109870910645,0.15624685585499,-0.48045903444290,2.63137602806091
392,2532033998,-0.34852597117424,-0.38277870416641,55.58081436157227,0.08715826272964,-0.05637529492378,10.14830875396729,0.21669644117355,-0.46688351035118,2.64856314659119
393,2532042331,-0.34769472479820,-0.38254135847092,55.57984924316406,0.07223729044199,-0.06114142388105,10.14695072174072,0.20755213499069,-0.46996995806694,2.48434996604919
394,2532050664,-0.34760728478432,-0.38200777769089,55.57715225219727,0.09056940674782,-0.07842384278774,10.14650630950928,0.11874759197235,-0.42679718136787,2.59899973869324
395,2532058997,-0.34746360778809,-0.38127917051315,55.57714080810547,0.05935617908835,-0.05674950778484,10.15100574493408,0.12479256093502,-0.41242763400078,2.60215020179749
396,2532067330,-0.34758251905441,-0.38050052523613,55.57338333129883,0.07003057003021,-0.06013371050358,10.13424015045166,0.09386336058378,-0.39837816357613,2.66343235969543
397,2532075663,-0.34836247563362,-0.38085088133812,55.57279205322266,0.07450183480978,-0.06769035756588,10.17811393737793,0.01370361633599,-0.54075491428375,2.52861166000366
398,2532083996,-0.34869390726089,-0.38049063086510,55.57141876220703,0.08703251183033,-0.05856086313725,10.15390968322754,0.06713490933180,-0.44772401452065,2.55058884620667
399,2532092329,-0.34853762388229,-0.38059088587761,55.57116699218750,0.06186308339238,-0.06757014244795,10.14189338684082,0.12666240334511,-0.51142662763596,2.56969714164734
400,2532100662,-0.34838274121284,-0.38003987073898,55.57049560546875,0.09142130613327,-0.04955882951617,10.14828014373779,0.12568905949593,-0.42572143673897,2.61552095413208
401,2532108995,-0.34801131486893,-0.37975141406059,55.57048416137695,0.07173255085945,-0.04637828841805,10.13420295715332,0.15212294459343,-0.46393787860870,2.59887146949768
402,2532117328,-0.34821832180023,-0.37997752428055,55.56965255737305,0.07232103496790,-0.04624133929610,10.13054084777832,0.08211924135685,-0.51939266920090,2.60174036026001
403,2532125661,-0.34863492846489,-0.37931951880455,55.56944656372070,0.05673002451658,-0.07886926829815,10.12748718261719,0.05808027461171,-0.42063695192337,2.57547283172607
404,2532133994,-0.34908008575439,-0.37841904163361,55.56804656982422,0.04524118080735,-0.05621851980686,10.16622734069824,0.05384112522006,-0.38389337062836,2.65278959274292
405,2532142327,-0.34897610545158,-0.37807443737984,55.56787109375000,0.06296314299107,-0.05322498828173,10.16570568084717,0.12112972140312,-0.45674026012421,2.57971191406250
406,2532150660,-0.34902018308640,-0.37752410769463,55.56668090820312,0.07224980741739,-0.06747152656317,10.15817356109619,0.10209833830595,-0.42569574713707,2.57502460479736
407,2532158993,-0.34874936938286,-0.37695997953415,55.56645202636719,0.08506318181753,-0.07291578501463,10.16149139404297,0.13941828906536,-0.43189445137978,2.57451224327087
408,2532167326,-0.34912475943565,-0.37752589583397,55.56525802612305,0.06754621863365,-0.06235263869166,10.18030357360840,0.06180714815855,-0.55914592742920,2.55637741088867
409,2532175659,-0.34916120767593,-0.37799271941185,55.56534576416016,0.06133701652288,-0.05932410806417,10.17867279052734,0.10401941090822,-0.55566239356995,2.61003947257996
410,2532183992,-0.34896710515022,-0.37756764888763,55.56554794311523,0.08160809427500,-0.05527500435710,10.12860298156738,0.13055574893951,-0.44111552834511,2.57640790939331
411,2532192325,-0.34928631782532,-0.37795418500900,55.56484603881836,0.07442680001259,-0.07231916487217,10.14172077178955,0.06887668371201,-0.54500687122345,2.51521539688110
412,2532200658,-0.34927713871002,-0.37752258777618,55.56704711914062,0.06928583979607,-0.06559029221535,10.16019058227539,0.10906542092562,-0.44075697660446,2.67548370361328
413,2532208991,-0.35016563534737,-0.37732315063477,55.56711578369141,0.06212329864502,-0.05506382882595,10.15305805206299,0.00176738237496,-0.47528496384621,2.60983443260193
414,2532217324,-0.35000151395798,-0.37708824872971,55.56799697875977,0.06467225402594,-0.05351685732603,10.14565563201904,0.12584273517132,-0.46375852823257,2.59810328483582
415,2532225657,-0.35023248195648,-0.37642064690590,55.56760025024414,0.06942377239466,-0.07619551569223,10.15661430358887,0.08099221438169,-0.41922819614410,2.55261230468750
416,2532233990,-0.34995409846306,-0.37689599394798,55.56509017944336,0.06935211271048,-0.06095161661506,10.17488861083984,0.13923898339272,-0.54900270700455,2.51764893531799
417,2532242323,-0.34974059462547,-0.37723022699356,55.56438827514648,0.07135200500488,-0.04238635301590,10.17844390869141,0.13347576558590,-0.53868013620377,2.51772570610046
418,2532250656,-0.35050219297409,-0.37720122933388,55.56278991699219,0.06575328111649,-0.06736638396978,10.16407394409180,0.01521485485137,-0.48788714408875,2.58521914482117
419,2532258989,-0.35016313195229,-0.37684839963913,55.56300735473633,0.05642750114202,-0.06772289425135,10.14239406585693,0.14989450573921,-0.45743185281754,2.62748265266418
420,2532267322,-0.35032758116722,-0.37714335322380,55.56285476684570,0.05564349144697,-0.05608682334423,10.15521907806396,0.08680664002895,-0.52799910306931,2.63859891891479
421,2532275655,-0.35001361370087,-0.37730365991592,55.56308364868164,0.08529120683670,-0.04365289583802,10.18541049957275,0.14666712284088,-0.51803511381149,2.62784099578857
422,2532283988,-0.35001215338707,-0.37675288319588,55.56253814697266,0.05504773184657,-0.04966161772609,10.17723560333252,0.10688819736242,-0.42625927925110,2.55414915084839
423,2532292321,-0.35069486498833,-0.37695407867432,55.56198120117188,0.06502463668585,-0.08092198520899,10.16240692138672,0.02471773698926,-0.52331155538559,2.53442573547363
424,2532300654,-0.35131537914276,-0.37703129649162,55.56057739257812,0.07839194685221,-0.05712847039104,10.14541912078857,0.03304236382246,-0.50100165605545,2.52932906150818
425,2532308987,-0.35077637434006,-0.37707772850990,55.55964279174805,0.09412426501513,-0.06284910440445,10.18161964416504,0.17197397351265,-0.50417780876160,2.48937082290649
426,2532317320,-0.35178717970848,-0.37728404998779,55.55690765380859,0.08729837089777,-0.05630873143673,10.14335060119629,-0.01540696248412,-0.51667755842209,2.56311416625977
427,2532325653,-0.35263782739639,-0.37786644697189,55.55664825439453,0.06839982420206,-0.04775148257613,10.12194347381592,0.00671093026176,-0.56946849822998,2.57118272781372
428,2532333986,-0.35331642627716,-0.37858816981316,55.55587005615234,0.07665982842445,-0.08410020172596,10.13651371002197,0.02507633529603,-0.57898420095444,2.63678073883057
429,2532342319,-0.35319924354553,-0.37852901220322,55.55575561523438,0.06765323877335,-0.05045748874545,10.18063926696777,0.12189813703299,-0.49165242910385,2.58568000793457
430,2532350652,-0.35388344526291,-0.37892082333565,55.55410766601562,0.07372545450926,-0.04774090647697,10.15847301483154,0.02484580874443,-0.53985846042633,2.52320718765259
431,2532358985,-0.35360908508301,-0.37821730971336,55.55353546142578,0.08566249161959,-0.06461538374424,10.13252925872803,0.14059653878212,-0.41442555189133,2.53253054618835
432,2532367318,-0.35297802090645,-0.37837094068527,55.55128097534180,0.09112254530191,-0.06310515105724,10.16168403625488,0.18216842412949,-0.51127284765244,2.65074038505554
433,2532375651,-0.35299834609032,-0.37795934081078,55.55169296264648,0.08724996447563,-0.05659507215023,10.15996074676514,0.10668328404427,-0.44910725951195,2.65009999275208
434,2532383984,-0.35276994109154,-0.37736004590988,55.54999542236328,0.06194723770022,-0.06875030696392,10.16817283630371,0.13352699577808,-0.42047050595284,2.53445196151733
435,2532392317,-0.35302212834358,-0.37646251916885,55.54988098144531,0.06933013349771,-0.06986834108829,10.15512657165527,0.07763674855232,-0.39096292853355,2.58790898323059
436,2532400650,-0.35307547450066,-0.37641713023186,55.54706573486328,0.09095677733421,-0.07348270714283,10.13431072235107,0.09983147680759,-0.48682415485382,2.52209281921387
437,2532408983,-0.35331687331200,-0.37629041075706,55.54724884033203,0.09816076606512,-0.09872818738222,10.12320899963379,0.07873815298080,-0.48308444023132,2.62123250961304
438,2532417316,-0.35217744112015,-0.37112683057785,55.54726409912109,0.03682998940349,-0.19623558223248,10.28132724761963,0.24500013887882,0.12691853940487,2.73170685768127
439,2532425649,-0.34715375304222,-0.37388214468956,55.55068588256836,1.15155601501465,0.11188834160566,10.44009971618652,0.71363818645477,-0.83275717496872,3.01054334640503
440,2532433982,-0.35546427965164,-0.37707829475403,55.54931259155273,2.93980193138123,0.52180171012878,9.81608772277832,-0.88985139131546,-0.86592769622803,2.50986242294312
441,2532442315,-0.35508891940117,-0.36696666479111,55.55216979980469,0.89637327194214,-1.03546118736267,10.19459629058838,0.15511982142925,0.71261364221573,2.95175886154175
442,2532450648,-0.34366711974144,-0.38050764799118,55.55189895629883,-0.08863683044910,1.06816864013672,10.36270236968994,1.48033642768860,-2.07908177375793,2.61097431182861
443,2532458981,-0.36032187938690,-0.36114478111267,55.53870773315430,-0.38999894261360,-0.49798557162285,9.78544044494629,-1.89967989921570,1.83441472053528,1.03122913837433
444,2532467314,-0.34087038040161,-0.37036758661270,55.54181671142578,-1.54700005054474,-0.43615281581879,10.38521194458008,2.44262504577637,-1.56969165802002,3.31617283821106
445,2532475647,-0.35592675209045,-0.37877869606018,55.53895187377930,-0.39738667011261,0.86643314361572,9.64088916778564,-1.70090031623840,-1.50618100166321,2.25085115432739
446,2532483980,-0.36751663684845,-0.36606493592262,55.54265213012695,1.60634613037109,-0.81023830175400,10.87914943695068,-1.28707706928253,1.04524016380310,3.21284484863281
447,2532492313,-0.35128548741341,-0.36943709850311,55.54379653930664,1.33665394783020,-0.20924085378647,9.86880588531494,2.05695128440857,-0.90365749597549,2.73577952384949
448,2532500646,-0.35334050655365,-0.37256452441216,55.53643035888672,0.30226156115532,0.53052091598511,10.34308719635010,-0.14442586898804,-0.82545721530914,1.83830785751343
449,2532508979,-0.35101297497749,-0.35670697689056,55.54279327392578,-1.38741111755371,-0.87804114818573,9.96476459503174,0.39220517873764,1.39984357357025,3.37695503234863
450,2532517312,-0.34771034121513,-0.36732238531113,55.54094314575195,-1.79379653930664,1.25430512428284,10.29908466339111,0.50772535800934,-1.73883521556854,2.77555871009827
451,2532525645,-0.37129923701286,-0.37095621228218,55.52914810180664,0.65736413002014,-0.82548356056213,9.78898239135742,-2.73305153846741,-0.92724800109863,1.18171274662018
452,2532533978,-0.36525046825409,-0.36830532550812,55.53420639038086,1.96742761135101,-0.80596637725830,10.49283027648926,0.83571565151215,-0.16133126616478,3.33894371986389
453,2532542311,-0.34800919890404,-0.37042596936226,55.54174041748047,0.67774480581284,0.38699644804001,9.95013999938965,2.18399810791016,-0.75788682699203,3.50323343276978
454,2532550644,-0.35549971461296,-0.36504882574081,55.53178787231445,-0.83524698019028,0.10325982421637,10.29295349121094,-0.79897195100784,0.19387412071228,1.73057448863983
455,2532558977,-0.34646308422089,-0.35964176058769,55.54166793823242,-1.97066140174866,-0.26007014513016,10.12334251403809,1.20041108131409,0.14264568686485,3.79121398925781
456,2532567310,-0.36164337396622,-0.37299096584320,55.52978134155273,-0.21880614757538,0.61112576723099,10.09272193908691,-1.72309541702271,-2.07206368446350,1.27166998386383
457,2532575643,-0.36823126673698,-0.37405145168304,55.53056716918945,2.81953620910645,-0.70492666959763,10.25617599487305,-0.68150520324707,-0.62748479843140,2.69443845748901
458,2532583976,-0.35181018710136,-0.36631354689598,55.53377532958984,2.14735937118530,-0.07462681829929,9.96843338012695,2.08236026763916,0.46584606170654,3.21586728096008
459,2532592309,-0.35443615913391,-0.36214339733124,55.53125000000000,-1.32015550136566,0.79676461219788,10.34335994720459,-0.20999829471111,0.00350915011950,2.30269384384155
460,2532600642,-0.35655704140663,-0.35923314094543,55.52428817749023,-2.45525741577148,-1.15643882751465,9.88755416870117,-0.15686157345772,-0.10422430932522,2.00921893119812
461,2532608975,-0.34436336159706,-0.35907238721848,55.53461074829102,-1.84301364421844,0.70045942068100,10.21849441528320,1.57804167270660,-0.48578676581383,3.83839559555054
462,2532617308,-0.36998957395554,-0.37041243910789,55.52004241943359,1.72804367542267,0.24264964461327,10.03961849212646,-2.98232984542847,-1.84049844741821,0.86450612545013
463,2532625641,-0.37964773178101,-0.37507671117783,55.52312088012695,3.90848374366760,-0.51365089416504,10.40042209625244,-1.04785287380219,-1.06101858615875,2.96744775772095
464,2532633974,-0.37119162082672,-0.35950598120689,55.53044509887695,0.52224701642990,-0.97400510311127,9.73321533203125,1.12322258949280,1.41486620903015,3.44599819183350
465,2532642307,-0.34843471646309,-0.35551437735558,55.53603744506836,-3.14009380340576,-0.01876418665051,10.64713764190674,2.84438419342041,-0.02409019134939,3.27403736114502
466,2532650640,-0.35165086388588,-0.35881453752518,55.52809143066406,-2.24827933311462,1.24828815460205,10.12257480621338,-0.27933603525162,-0.86152195930481,2.05380058288574
467,2532658973,-0.36550053954124,-0.36596298217773,55.52341461181641,0.02772145532072,-0.48938959836960,10.11300754547119,-1.55804991722107,-1.35331523418427,2.03435921669006
468,2532667306,-0.36870232224464,-0.37307345867157,55.51461410522461,3.00687122344971,-0.64445245265961,10.05160617828369,-0.28453570604324,-1.33617937564850,1.81359028816223
469,2532675639,-0.35479480028152,-0.36380630731583,55.52030563354492,3.04174828529358,0.01275434903800,10.32073593139648,1.78131628036499,0.60931140184402,3.29101943969727
470,2532683972,-0.34942549467087,-0.35884299874306,55.52953720092773,-1.60459566116333,1.06038939952850,10.14983749389648,0.75984627008438,0.14328603446484,3.85996270179749
471,2532692305,-0.36846116185188,-0.36315754055977,55.51425933837891,-3.07077813148499,-0.96264541149139,9.84231090545654,-2.18787860870361,-1.00539720058441,0.76509726047516
472,2532700638,-0.35194015502930,-0.35813540220261,55.52037048339844,-1.37985861301422,-0.94020140171051,10.32100868225098,2.09665346145630,0.11682653427124,3.59703302383423
473,2532708971,-0.35168093442917,-0.37002167105675,55.52302551269531,1.49497973918915,2.25035285949707,10.14806747436523,0.14067336916924,-1.92656183242798,2.91190290451050
474,2532717304,-0.38783162832260,-0.37731873989105,55.50965118408203,4.21990537643433,-0.20197185873985,10.01543235778809,-4.25115633010864,-1.34760344028473,1.22710120677948
475,2532725637,-0.40004998445511,-0.36169373989105,55.51159286499023,0.67908102273941,-1.35544216632843,10.11889934539795,-1.35731112957001,1.37545871734619,2.84223246574402
476,2532733970,-0.37493494153023,-0.36021366715431,55.51097869873047,-3.16896581649780,-1.49956750869751,10.24232769012451,3.12168359756470,-0.26983314752579,2.68496108055115
477,2532742303,-0.33677941560745,-0.36001646518707,55.52143478393555,-2.13422966003418,0.97149884700775,9.92593669891357,4.69471883773804,-0.48298209905624,3.85738897323608
478,2532750636,-0.35936480760574,-0.36000105738640,55.51325225830078,0.07689157873392,1.81984984874725,10.44257354736328,-2.60508275032043,-0.47925511002541,1.94002199172974
479,2532758969,-0.39065939188004,-0.37653258442879,55.50704574584961,2.59562921524048,-0.45548626780510,10.20065593719482,-3.65216755867004,-2.47808766365051,1.84530091285706
480,2532767302,-0.40410077571869,-0.37524077296257,55.49696731567383,2.57482671737671,-0.99875664710999,10.10547828674316,-1.52165186405182,-0.30615410208702,1.68062674999237
481,2532775635,-0.37950479984283,-0.36062639951706,55.50605773925781,-1.84935700893402,-1.68963372707367,10.21274948120117,3.06699752807617,1.24728512763977,3.70274281501770
482,2532783968,-0.34002223610878,-0.36073738336563,55.52191925048828,-2.96236515045166,1.00219821929932,9.98159599304199,4.86883020401001,-0.49201104044914,4.78909301757812
483,2532792301,-0.36275267601013,-0.36944222450256,55.50045776367188,-0.15204781293869,1.26661014556885,10.17474746704102,-2.63675498962402,-1.52658283710480,0.01880084723234
484,2532800634,-0.37538859248161,-0.36847296357155,55.51309967041016,1.66954958438873,-0.79947698116302,10.40080738067627,-1.40331435203552,-0.38251018524170,4.52772569656372
485,2532808967,-0.37529444694519,-0.38023278117180,55.50674438476562,3.20664501190186,-0.44175845384598,9.86253452301025,0.11400897055864,-1.90596818923950,1.82755005359650
486,2532817300,-0.35512456297874,-0.36491957306862,55.50780105590820,0.44971677660942,-0.69915252923965,10.11571979522705,2.53178787231445,1.38009500503540,3.14637589454651
487,2532825633,-0.34593045711517,-0.35926148295403,55.51842117309570,-3.35731744766235,2.24954724311829,10.57410907745361,1.21864843368530,0.17117992043495,3.87889146804810
488,2532833966,-0.39459809660912,-0.37453627586365,55.50349807739258,-1.61642396450043,-0.41810715198517,9.71565246582031,-5.75268888473511,-2.29807066917419,1.09961915016174
489,2532842299,-0.40165284276009,-0.37407851219177,55.50246429443359,0.47135990858078,-1.82138514518738,10.26314258575439,-0.73999524116516,-0.44284451007843,2.47813868522644
490,2532850632,-0.37126192450523,-0.37664002180099,55.49980545043945,2.65309166908264,-0.33740872144699,10.29311370849609,3.75817203521729,-0.79238927364349,2.60842609405518
491,2532858965,-0.36059457063675,-0.37380242347717,55.49895858764648,2.81956624984741,1.04955434799194,9.88763809204102,1.38683152198792,-0.15720735490322,2.50194716453552
492,2532867298,-0.35740727186203,-0.36239790916443,55.50364685058594,-1.11820662021637,0.07646740972996,10.61071395874023,0.49294590950012,0.91214853525162,3.53663420677185
493,2532875631,-0.37460657954216,-0.36598214507103,55.49963378906250,-3.28097367286682,0.42503765225410,9.90857124328613,-1.95829808712006,-0.92583942413330,2.11499309539795
494,2532883964,-0.38244202733040,-0.37185022234917,55.49341964721680,-1.59307515621185,-1.66581821441650,9.90359783172607,-0.84169656038284,-1.18085455894470,2.17175412178040
495,2532892297,-0.35502406954765,-0.37306252121925,55.49969863891602,1.52883505821228,0.35444164276123,10.55419445037842,3.40297937393188,-0.64892387390137,3.35362076759338
496,2532900630,-0.37093558907509,-0.38344067335129,55.48021316528320,3.41864848136902,1.74656176567078,10.15319442749023,-1.81411552429199,-1.71468102931976,0.65510964393616
497,2532908963,-0.39470601081848,-0.37308469414711,55.48123168945312,0.98188400268555,-1.14686441421509,10.05000495910645,-2.74416804313660,0.74286401271820,2.72988820075989
498,2532917296,-0.37636083364487,-0.36991989612579,55.49433898925781,-2.52650094032288,-1.77514278888702,10.46264648437500,2.31790876388550,-0.08599979430437,4.49253177642822
499,2532925629,-0.34845858812332,-0.36919897794724,55.49904251098633,-2.81163692474365,1.31896328926086,9.59274959564209,3.45976567268372,-0.41711500287056,3.16717481613159
500,2532933962,-0.37259608507156,-0.37175837159157,55.48071670532227,-0.13811489939690,0.64536374807358,10.35901260375977,-2.80139064788818,-0.78501224517822,0.79491221904755
501,2532942295,-0.37737703323364,-0.38311183452606,55.48541641235352,2.85241007804871,-0.62065958976746,10.43721294403076,-0.46193990111351,-1.86467778682709,3.15628838539124
502,2532950628,-0.37502115964890,-0.37716668844223,55.47136688232422,2.89778113365173,-0.30881685018539,9.82006645202637,0.37796366214752,0.24838124215603,1.26372945308685
503,2532958961,-0.35859164595604,-0.36499276757240,55.48267745971680,-0.23347009718418,-0.03677994012833,10.53581142425537,2.08955836296082,0.95397657155991,3.96905422210693
504,2532967294,-0.36469134688377,-0.36633530259132,55.48126983642578,-3.28194975852966,0.89515048265457,9.96813678741455,-0.62574297189713,-0.61941623687744,2.74479579925537
505,2532975627,-0.38453474640846,-0.36911216378212,55.47431182861328,-1.86686503887177,-0.89115101099014,9.74197101593018,-2.27796363830566,-0.82786482572556,1.76435959339142
506,2532983960,-0.37271657586098,-0.37391418218613,55.47235107421875,1.40772795677185,-0.93192094564438,10.24573326110840,1.52409839630127,-1.06779360771179,2.77461099624634
507,2532992293,-0.36563348770142,-0.37241569161415,55.48082733154297,2.64011740684509,1.72546696662903,10.50453948974609,0.96578472852707,-0.32536482810974,3.62059760093689
508,2533000626,-0.39058631658554,-0.37273466587067,55.46302413940430,1.78201663494110,-0.58152383565903,9.83627891540527,-2.90615272521973,-0.49416264891624,0.79834449291229
509,2533008959,-0.37661242485046,-0.36101472377777,55.46754455566406,-2.02670860290527,-1.63304102420807,10.34851074218750,1.78828334808350,0.90351653099060,3.15293312072754
510,2533017292,-0.35264497995377,-0.35987341403961,55.48052215576172,-3.24630475044250,1.29613769054413,10.10398483276367,2.99950385093689,-0.34442180395126,4.49286460876465
511,2533025625,-0.38531306385994,-0.37351155281067,55.46088027954102,0.03283181414008,0.22776417434216,9.93324089050293,-3.82708692550659,-2.11956524848938,0.23037444055080
512,2533033958,-0.38775253295898,-0.37278604507446,55.46666336059570,2.61330199241638,-0.89848041534424,10.40679931640625,-0.18312898278236,-0.41055780649185,3.56329894065857
513,2533042291,-0.37098258733749,-0.36517637968063,55.47554779052734,2.24451518058777,0.04897184297442,10.16611194610596,2.12644267082214,0.40813723206520,3.67233872413635
514,2533050624,-0.37112832069397,-0.36670345067978,55.45844268798828,-0.29218646883965,0.17558798193932,9.85591697692871,0.07927606254816,-0.63545083999634,0.88727718591690
515,2533058957,-0.35987505316734,-0.35686001181602,55.46956634521484,-2.53563308715820,-0.01170667819679,10.41195678710938,1.46756780147552,0.67475581169128,3.94228696823120
516,2533067290,-0.37488409876823,-0.36525112390518,55.45965576171875,-1.71656548976898,0.70631337165833,9.94402980804443,-1.70225799083710,-1.48130953311920,1.72447848320007
517,2533075623,-0.39203265309334,-0.37629225850105,55.45512008666992,1.61682581901550,-0.96709907054901,10.19492721557617,-1.95378994941711,-1.82100570201874,2.05018901824951
518,2533083956,-0.37931904196739,-0.37233173847198,55.45600509643555,2.98627662658691,-0.74476021528244,10.16565227508545,1.63458526134491,-0.00876006949693,3.03051018714905
519,2533092289,-0.36474528908730,-0.36538207530975,55.46588516235352,0.81329280138016,1.14216446876526,10.32535171508789,1.86504912376404,0.32717064023018,3.79118871688843
520,2533100622,-0.38045868277550,-0.36067113280296,55.45233917236328,-2.14652037620544,-0.56000769138336,9.83787631988525,-1.79085767269135,0.11388088017702,1.33816432952881
521,2533108955,-0.36644741892815,-0.36087226867676,55.45998764038086,-2.29300045967102,-0.52356153726578,10.67899703979492,1.79458439350128,-0.52933096885681,3.51908826828003
522,2533117288,-0.36957800388336,-0.37434014678001,55.45059204101562,0.14737196266651,1.12098765373230,9.90538597106934,-0.27244582772255,-2.09961175918579,1.81430768966675
523,2533125621,-0.38742437958717,-0.37160569429398,55.44359970092773,2.10956978797913,-0.74618560075760,9.85587596893311,-2.03781747817993,-0.16541673243046,1.76286137104034
524,2533133954,-0.37453621625900,-0.36870390176773,55.44821929931641,1.69010829925537,-0.67494040727615,10.59177207946777,1.65770184993744,-0.13259208202362,3.56286311149597
525,2533142287,-0.36844331026077,-0.36989739537239,55.44542694091797,-0.46078929305077,0.62463313341141,9.62667465209961,0.83732932806015,-0.64039433002472,2.26550221443176
526,2533150620,-0.37319290637970,-0.36260622739792,55.44832229614258,-2.09347057342529,-0.23154745995998,10.45701694488525,-0.45983961224556,0.40198981761932,3.33095216751099
527,2533158953,-0.37393760681152,-0.37087491154671,55.44822311401367,-1.08728146553040,-0.19314461946487,10.22956657409668,0.01764820888638,-1.49135053157806,2.58278584480286
528,2533167286,-0.37724390625954,-0.37351551651955,55.44498825073242,0.95475292205811,0.20227290689945,9.89081287384033,-0.28978663682938,-0.80599033832550,2.62722659111023
529,2533175619,-0.37838953733444,-0.36839604377747,55.44593429565430,1.73299360275269,-0.16675233840942,10.33297920227051,-0.02863671258092,0.11393211781979,2.71923279762268
530,2533183952,-0.37553966045380,-0.36895820498466,55.44147872924805,1.07025146484375,0.40144485235214,10.44626617431641,0.44835159182549,-0.53996086120605,2.51162934303284
531,2533192285,-0.38110944628716,-0.36912798881531,55.42891693115234,-0.10403094440699,-0.54796499013901,9.71119308471680,-0.57126146554947,-0.50971043109894,1.09237015247345
532,2533200618,-0.36673629283905,-0.36153569817543,55.43667984008789,-1.36719477176666,-0.23242127895355,10.49762439727783,1.83976829051971,0.43193286657333,4.00230121612549
533,2533208951,-0.37536019086838,-0.36828947067261,55.42948532104492,-0.93000566959381,0.79670095443726,9.82243537902832,-0.93178176879883,-1.30411040782928,1.73218822479248
534,2533217284,-0.38797941803932,-0.36831063032150,55.42862319946289,0.38497394323349,-0.88837236166000,10.00312042236328,-1.41051185131073,-0.48757979273796,2.92985868453979
535,2533225617,-0.37241137027740,-0.36462515592575,55.43936920166016,0.82896083593369,-0.27804431319237,10.53137874603271,1.98543632030487,-0.06591823697090,3.89269828796387
536,2533233950,-0.37724694609642,-0.37183949351311,55.42638015747070,1.06238639354706,1.04267001152039,9.98562049865723,-0.47961369156837,-1.33625614643097,1.45178914070129
537,2533242283,-0.38391974568367,-0.36446714401245,55.42630386352539,-0.18202297389507,-0.96605169773102,10.05506038665771,-0.69280111789703,0.38616019487381,2.59800076484680
538,2533250616,-0.36966884136200,-0.36026683449745,55.42841339111328,-1.05514657497406,0.04602907598019,10.32552719116211,1.82105672359467,0.02531966939569,3.33188700675964
539,2533258949,-0.37984979152679,-0.37030357122421,55.41939926147461,-0.60831433534622,0.60864949226379,10.01268100738525,-1.12114787101746,-1.69662308692932,1.51039481163025
540,2533267282,-0.38777160644531,-0.36584970355034,55.41577148437500,0.59963655471802,-1.05038022994995,10.17301177978516,-0.84753656387329,0.05133092775941,2.58114647865295
541,2533275615,-0.37285593152046,-0.36577692627907,55.42527008056641,1.26109707355499,0.23096990585327,10.42789936065674,1.90423929691315,-0.49698019027710,3.74111270904541
542,2533283948,-0.38138738274574,-0.36788025498390,55.41275405883789,0.58775442838669,0.41199141740799,9.86736392974854,-0.92332923412323,-0.72087430953979,1.52758181095123
543,2533292281,-0.37656563520432,-0.35776731371880,55.42360687255859,-1.12920498847961,-0.67430227994919,10.34825038909912,0.69379991292953,0.70504450798035,3.91012787818909
544,2533300614,-0.37727072834969,-0.36626413464546,55.41389465332031,-1.11368942260742,0.52754843235016,10.11403751373291,0.01844224892557,-1.49291265010834,1.87824058532715
545,2533308947,-0.38510206341743,-0.36538094282150,55.41093063354492,0.45776972174644,-0.55131769180298,9.81204605102539,-0.83393549919128,-0.39062991738319,2.24344849586487
546,2533317280,-0.37249952554703,-0.36224925518036,55.41569137573242,1.27075147628784,0.07186108082533,10.47181320190430,1.62560713291168,-0.11399615556002,3.61985468864441
547,2533325613,-0.38611182570457,-0.36665916442871,55.40806961059570,0.98823487758636,0.99452918767929,10.34938240051270,-1.53257656097412,-1.02172625064850,1.68294501304626
548,2533333946,-0.39701953530312,-0.36352056264877,55.39908218383789,0.45204362273216,-1.35031759738922,9.40087223052979,-1.21241140365601,-0.09137878566980,1.94663059711456
549,2533342279,-0.36790400743484,-0.35515856742859,55.41308975219727,-1.47219431400299,-0.45357456803322,10.68421554565430,3.61204218864441,0.49376559257507,4.28879642486572
550,2533350612,-0.37651264667511,-0.36218079924583,55.39836883544922,-1.44975113868713,1.59841358661652,10.28518962860107,-0.93205070495605,-1.31336987018585,1.19928395748138
551,2533358945,-0.39641278982162,-0.36540886759758,55.40066146850586,0.65525794029236,-1.09424996376038,9.79133415222168,-2.27853965759277,-0.88807100057602,2.87305855751038
552,2533367278,-0.38210564851761,-0.35876297950745,55.40159988403320,0.94340389966965,-0.90801107883453,10.48089599609375,1.82478392124176,0.31118735671043,3.13292860984802
553,2533375611,-0.37450742721558,-0.36474964022636,55.39667129516602,1.04977905750275,1.16095805168152,10.18111038208008,1.01642417907715,-1.21389710903168,2.00597906112671
554,2533383944,-0.38165906071663,-0.35695633292198,55.39751052856445,0.08672592788935,-0.58737850189209,9.63657951354980,-0.75158572196960,0.45826429128647,3.11453723907471
555,2533392277,-0.37037536501884,-0.35531809926033,55.40479278564453,-1.61211502552032,0.12192280590534,10.51614475250244,1.46795177459717,-0.30811363458633,3.47572350502014
556,2533400610,-0.38750910758972,-0.35874465107918,55.39241409301758,-1.04365658760071,0.37319442629814,10.09098052978516,-1.95755505561829,-0.88577866554260,1.47402238845825
557,2533408943,-0.39022561907768,-0.36070936918259,55.38879776000977,1.11926865577698,-1.08192598819733,9.95744037628174,-0.22085873782635,-0.73298972845078,2.16576027870178
558,2533417276,-0.36714154481888,-0.35761258006096,55.40112686157227,1.67653870582581,0.75511956214905,10.55466651916504,2.89107894897461,-0.12334536015987,4.53133726119995
559,2533425609,-0.38885992765427,-0.36191433668137,55.37863540649414,0.51216882467270,0.43611311912537,9.86463356018066,-2.51622724533081,-0.99807155132294,-0.10185501724482
560,2533433942,-0.38917201757431,-0.35451009869576,55.38288497924805,-0.78704810142517,-1.49776470661163,10.32615756988525,0.07066967338324,0.40900808572769,3.54060435295105
561,2533442275,-0.36328920722008,-0.35491472482681,55.39533615112305,-1.45955836772919,0.30034062266350,10.22600650787354,3.22216820716858,-0.55625152587891,4.09615135192871
562,2533450608,-0.38331031799316,-0.35776662826538,55.38454818725586,-0.39057636260986,1.29562866687775,9.84506607055664,-2.30078577995300,-0.82240897417068,1.74520027637482
563,2533458941,-0.39775463938713,-0.36115649342537,55.38448333740234,1.21957206726074,-1.22280955314636,10.31634616851807,-1.62480080127716,-0.90652632713318,2.59111046791077
564,2533467274,-0.38148650527000,-0.35832473635674,55.38046646118164,1.53702569007874,-0.56786620616913,10.35588073730469,2.05828332901001,-0.14076302945614,2.53629589080811
565,2533475607,-0.37122985720634,-0.35673743486404,55.37764358520508,0.41783267259598,0.82443583011627,9.85231876373291,1.33562862873077,-0.30633342266083,2.26478481292725
566,2533483940,-0.37910085916519,-0.35361835360527,55.37491607666016,-1.26460123062134,-0.16776213049889,10.30846214294434,-0.83939135074615,-0.09911428391933,2.71726083755493
567,2533492273,-0.37930777668953,-0.35334667563438,55.37596511840820,-1.51728355884552,-0.37358358502388,10.13277149200439,0.08404030650854,-0.46788248419762,2.72643065452576
568,2533500606,-0.38133090734482,-0.35821613669395,55.36925888061523,0.18259359896183,-0.03343429788947,9.97531318664551,-0.13909810781479,-1.06933033466339,2.18264031410217
569,2533508939,-0.37755113840103,-0.35845965147018,55.37699127197266,1.47797191143036,0.02624810487032,10.33195209503174,0.56680464744568,-0.53351897001266,3.52839946746826
570,2533517272,-0.38382881879807,-0.36067405343056,55.36773300170898,1.22487926483154,0.23401346802711,10.23893260955811,-0.65229213237762,-0.74086612462997,1.88352990150452
571,2533525605,-0.38136079907417,-0.35372093319893,55.37367248535156,-0.30224037170410,-0.72209811210632,9.90831184387207,0.40939232707024,0.33026993274689,3.31704330444336
572,2533533938,-0.37034857273102,-0.35289865732193,55.37349700927734,-1.63236463069916,0.37885186076164,10.40111923217773,1.43052947521210,-0.38133192062378,3.01374554634094
573,2533542271,-0.38655677437782,-0.35976904630661,55.36432647705078,-0.67770087718964,0.37382617592812,10.06099796295166,-1.84364843368530,-1.31591856479645,1.49507725238800
574,2533550604,-0.39085063338280,-0.36066871881485,55.35841369628906,1.14931333065033,-1.10419511795044,9.88208293914795,-0.41422060132027,-0.59482663869858,2.34667372703552
575,2533558937,-0.37517166137695,-0.35812178254128,55.36917114257812,1.62979841232300,0.43331521749496,10.63698101043701,1.99678325653076,-0.20159685611725,3.89359426498413
576,2533567270,-0.38761854171753,-0.36242023110390,55.35690307617188,0.87463080883026,0.51648640632629,10.01213169097900,-1.39373445510864,-0.98475205898285,1.57545471191406
577,2533575603,-0.38653507828712,-0.35759916901588,55.35582733154297,-0.85616540908813,-1.24177360534668,9.96680831909180,0.23685482144356,0.07986518740654,2.47738337516785
578,2533583936,-0.36949640512466,-0.35184186697006,55.36603164672852,-2.05902314186096,0.79941564798355,10.31942653656006,2.16353201866150,0.20299281179905,4.27785921096802
579,2533592269,-0.39193570613861,-0.36302167177200,55.34972763061523,-0.69796478748322,0.20174568891525,9.96776485443115,-2.59747552871704,-1.82638454437256,0.63600146770477
580,2533600602,-0.39307361841202,-0.36080300807953,55.35060882568359,1.20268797874451,-1.06551933288574,10.17250537872314,-0.02928987890482,-0.22803075611591,3.11784172058105
581,2533608935,-0.37669706344604,-0.36193507909775,55.35795593261719,2.11244368553162,0.33769804239273,10.44956016540527,2.07887697219849,-0.64026618003845,3.47969365119934
582,2533617268,-0.38470208644867,-0.36188682913780,55.34733963012695,0.93727660179138,0.56065630912781,9.86613559722900,-0.86111211776733,-0.46588444709778,1.76553797721863
583,2533625601,-0.38443747162819,-0.35514023900032,55.34621047973633,-1.48631203174591,-0.99631226062775,10.27731990814209,0.13939267396927,0.31164842844009,2.47049307823181
584,2533633934,-0.37394657731056,-0.35572502017021,55.34938812255859,-2.10281896591187,0.31543523073196,10.10799121856689,1.37092506885529,-0.55425357818604,3.41186714172363
585,2533642267,-0.38414314389229,-0.36131432652473,55.34109878540039,-0.34797528386116,0.15438842773438,10.22477054595947,-1.12091743946075,-1.16300165653229,1.60094094276428
586,2533650600,-0.38721334934235,-0.36078974604607,55.33867263793945,1.97306716442108,-0.30846276879311,10.32904911041260,-0.26435172557831,-0.42910251021385,2.72481679916382
587,2533658933,-0.38055038452148,-0.36467996239662,55.33965301513672,2.37441396713257,-0.16386796534061,9.85291385650635,0.90938216447830,-0.96661722660065,2.71554446220398
588,2533667266,-0.37966710329056,-0.35576429963112,55.33646774291992,-0.53370255231857,0.26057687401772,9.99976921081543,0.21139428019524,0.59824603796005,2.67584204673767
589,2533675599,-0.38456571102142,-0.35057616233826,55.34167480468750,-2.42537331581116,-0.11123793572187,10.49998283386230,-0.47601500153542,0.11855549365282,3.22878980636597
590,2533683932,-0.38676238059998,-0.36178609728813,55.32839202880859,-1.18810045719147,-0.62427276372910,9.78015327453613,-0.16542951762676,-1.82338750362396,1.42707133293152
591,2533692265,-0.37788951396942,-0.35819914937019,55.33701324462891,0.86197024583817,0.45006632804871,10.40467643737793,1.17963767051697,-0.07470390200615,3.63839912414551
592,2533700598,-0.39265397191048,-0.36773872375488,55.32251739501953,2.80875945091248,0.46730861067772,10.47449302673340,-1.67584967613220,-1.62495422363281,1.30186903476715
593,2533708931,-0.39743217825890,-0.36194092035294,55.32255935668945,1.80925047397614,-1.04673802852631,9.69264507293701,-0.46478313207626,0.19566714763641,2.61144804954529
594,2533717264,-0.37238746881485,-0.34611332416534,55.33087539672852,-1.98921954631805,-0.05150448158383,10.24373531341553,3.12078714370728,1.42223036289215,4.03621387481689
595,2533725597,-0.38687241077423,-0.36071750521660,55.31528091430664,-2.31854867935181,1.01745212078094,9.88915443420410,-1.64206445217133,-2.23936295509338,0.71655821800232
596,2533733930,-0.40052613615990,-0.35705903172493,55.32078933715820,-0.40112680196762,-1.32660686969757,10.09739303588867,-1.52948987483978,-0.05767044425011,3.70007824897766
597,2533742263,-0.38053277134895,-0.36058688163757,55.32638168334961,1.38955163955688,-0.23212689161301,10.77083015441895,2.51119399070740,-0.92614674568176,3.27037453651428
598,2533750596,-0.38701307773590,-0.36211612820625,55.31562042236328,1.88822948932648,1.57708239555359,9.72867012023926,-0.67525529861450,-0.66290926933289,1.74210119247437
599,2533758929,-0.39916265010834,-0.35452491044998,55.31328201293945,0.50545400381088,-1.35856854915619,9.94821262359619,-1.35147082805634,0.41382354497910,2.32638692855835
600,2533767262,-0.37551930546761,-0.35365197062492,55.31608581542969,-1.43839764595032,-0.27199965715408,10.56801319122314,2.94932556152344,-0.37480032444000,3.36591553688049
601,2533775595,-0.38262003660202,-0.35424998402596,55.31109237670898,-1.91122472286224,1.23224353790283,10.09740066528320,-0.74808937311172,-0.56709921360016,2.00086879730225
602,2533783928,-0.39607983827591,-0.35743889212608,55.30565261840820,0.28898832201958,-0.98914265632629,10.03883838653564,-1.51394224166870,-0.87181895971298,2.40015625953674
603,2533792261,-0.38262346386909,-0.36130124330521,55.31230545043945,1.69211673736572,0.00969596207142,10.42998695373535,1.72834587097168,-0.96846127510071,3.39644694328308
604,2533800594,-0.39281329512596,-0.35927924513817,55.30353164672852,1.74262928962708,0.68514871597290,9.96146392822266,-1.12127602100372,-0.23499780893326,1.97977554798126
605,2533808927,-0.39423048496246,-0.35410743951797,55.30212783813477,0.03200582787395,-1.30096518993378,10.07141876220703,-0.06304944306612,0.12343500554562,2.43714332580566
606,2533817260,-0.37642732262611,-0.35047060251236,55.30958938598633,-1.95986270904541,0.64937674999237,10.29138565063477,2.25149130821228,-0.04893599450588,3.89456748962402
607,2533825593,-0.39723482728004,-0.35869881510735,55.29367065429688,-1.42680811882019,0.20047277212143,9.93613243103027,-2.40093779563904,-1.47321557998657,0.68454045057297
608,2533833926,-0.39635792374611,-0.35663875937462,55.29776382446289,0.66648083925247,-1.15474355220795,10.20779323577881,0.21492905914783,-0.24916248023510,3.52065110206604
609,2533842259,-0.38385048508644,-0.36102762818336,55.30426406860352,2.17026233673096,0.81623744964600,10.38331317901611,1.61474692821503,-1.03160047531128,3.37628912925720
610,2533850592,-0.39886218309402,-0.36313757300377,55.29213333129883,1.55580186843872,0.23460792005062,9.99282073974609,-1.70428168773651,-0.72553604841232,1.56441509723663
611,2533858925,-0.39018398523331,-0.35082793235779,55.29519271850586,-1.16895830631256,-1.33980453014374,9.92716026306152,1.15192341804504,0.97631216049194,2.97821831703186
612,2533867258,-0.37660920619965,-0.35144665837288,55.29718399047852,-2.78902220726013,1.26087081432343,10.57074928283691,1.74161410331726,-0.55740404129028,3.26099920272827
613,2533875591,-0.40204918384552,-0.35992053151131,55.28510284423828,-0.82722210884094,-0.21544137597084,9.82751083374023,-2.95456361770630,-1.50612974166870,1.14167761802673
614,2533883924,-0.40013772249222,-0.36182093620300,55.28507614135742,2.01239299774170,-0.93967354297638,10.28222274780273,0.33664792776108,-0.72487008571625,3.00864839553833
615,2533892257,-0.38776251673698,-0.36395260691643,55.29090118408203,2.85803890228271,0.51096600294113,10.44626617431641,1.59684252738953,-0.76096045970917,3.29793500900269
616,2533900590,-0.39333894848824,-0.35873886942863,55.28211593627930,0.61093914508820,-0.05335783585906,9.62157440185547,-0.56857192516327,0.15652857720852,1.96676325798035
617,2533908923,-0.38454988598824,-0.34903350472450,55.29108810424805,-2.83917760848999,-0.34273293614388,10.45746040344238,1.16990447044373,0.65774792432785,3.68765544891357
618,2533917256,-0.39230018854141,-0.35350117087364,55.28208160400391,-2.89580965042114,0.54469865560532,10.11595726013184,-0.82860767841339,-1.01630878448486,1.92503786087036
619,2533925589,-0.40164953470230,-0.36515393853188,55.27278137207031,0.99209338426590,-0.92306429147720,9.88234806060791,-1.02107322216034,-1.88883209228516,1.47422730922699
620,2533933922,-0.38477727770805,-0.36228954792023,55.28181838989258,3.15257024765015,0.36881512403488,10.79359245300293,2.14204144477844,-0.16120319068432,4.11369752883911
621,2533942255,-0.39755728840828,-0.36035811901093,55.27395248413086,2.28340172767639,0.84508866071701,9.93115997314453,-1.43192541599274,-0.26022779941559,1.65969991683960
622,2533950588,-0.40289017558098,-0.35510432720184,55.27156829833984,-0.96119189262390,-1.42306315898895,9.93754768371582,-0.53716892004013,0.15844964981079,2.74587130546570
623,2533958921,-0.37594702839851,-0.34623509645462,55.28725051879883,-3.19968795776367,-0.04460093379021,10.28330898284912,3.35175061225891,0.55221730470657,4.48997068405151
624,2533967254,-0.39368894696236,-0.35959845781326,55.26686477661133,-1.46793258190155,1.58084022998810,10.01605319976807,-2.03360390663147,-2.07991456985474,0.57690942287445
625,2533975587,-0.41448846459389,-0.36299869418144,55.26823043823242,1.60397100448608,-1.07830595970154,9.94616413116455,-2.38779711723328,-0.90826791524887,2.76285386085510
626,2533983920,-0.40703099966049,-0.35968703031540,55.26454544067383,2.72018480300903,-0.82076716423035,10.46245098114014,1.00026154518127,-0.09035421907902,2.57376980781555
627,2533992253,-0.38639625906944,-0.35591542720795,55.26804733276367,1.26922190189362,0.13977758586407,10.05080032348633,2.58578252792358,-0.05031916499138,3.02337598800659
628,2534000586,-0.38442611694336,-0.34680855274200,55.26772689819336,-1.75792169570923,0.70605421066284,10.16300964355469,0.34622764587402,0.61612492799759,2.98846411705017
629,2534008919,-0.39458209276199,-0.35023978352547,55.26265716552734,-2.66126561164856,-0.35000753402710,10.27779960632324,-1.11433446407318,-0.90575778484344,1.98966252803802
630,2534017252,-0.39712262153625,-0.35652568936348,55.25791931152344,-0.28547647595406,-0.54684919118881,9.89514160156250,-0.20236527919769,-1.24637603759766,2.42971539497375
631,2534025585,-0.38859409093857,-0.35705298185349,55.26189804077148,2.59831213951111,0.09303367882967,10.24814033508301,1.13477456569672,-0.56556236743927,3.07845973968506
632,2534033918,-0.39363259077072,-0.36240431666374,55.25597381591797,2.39592146873474,0.91549539566040,10.50359153747559,-0.50002831220627,-1.12340199947357,2.27764368057251
633,2534042251,-0.40137648582458,-0.35344079136848,55.25275421142578,-0.38358193635941,-1.05116367340088,9.66333007812500,-0.82389473915100,0.58039295673370,2.22118973731995
634,2534050584,-0.38174220919609,-0.34796777367592,55.26065063476562,-2.93979072570801,-0.22670257091522,10.49857616424561,2.46987843513489,0.16969431936741,3.97643065452576
635,2534058917,-0.39154261350632,-0.35843577980995,55.25218582153320,-1.65905702114105,1.19240200519562,9.90305995941162,-1.07470929622650,-1.74700582027435,1.57540333271027
636,2534067250,-0.40901914238930,-0.36286661028862,55.24399566650391,1.47503781318665,-0.81379133462906,9.97790527343750,-1.99920392036438,-1.02319896221161,2.01286888122559
637,2534075583,-0.40226691961288,-0.36459234356880,55.24355697631836,3.05907130241394,-0.65390092134476,10.53417587280273,0.91775798797607,-0.70491653680801,2.54894948005676
638,2534083916,-0.38718751072884,-0.36047053337097,55.24421310424805,1.74183595180511,0.36194837093353,9.83300685882568,1.91919803619385,0.01296080462635,3.07281208038330
639,2534092249,-0.39171069860458,-0.34598889946938,55.24788284301758,-2.35801935195923,0.42313301563263,10.22864818572998,-0.43156138062477,1.23470854759216,3.05201292037964
640,2534100582,-0.39739444851875,-0.35193863511086,55.24471664428711,-3.31036281585693,-0.54874122142792,10.54404258728027,-0.57792115211487,-1.19427657127380,2.63050508499146
641,2534108915,-0.39708358049393,-0.36154204607010,55.23613739013672,0.06106554716825,-0.35212111473083,9.71945095062256,0.13849616050720,-1.64536881446838,1.56216096878052
642,2534117248,-0.38782811164856,-0.35802602767944,55.24408340454102,2.50365090370178,0.50522243976593,10.43262577056885,1.22564101219177,-0.08108185976744,3.91708230972290
643,2534125581,-0.40435826778412,-0.36126461625099,55.23334503173828,2.60859727859497,0.71580773591995,10.31138896942139,-1.88486206531525,-0.87750530242920,1.30998873710632
644,2534133914,-0.41107478737831,-0.35697659850121,55.22779846191406,0.26805874705315,-1.39581775665283,9.57567882537842,-0.70609480142593,0.03949715197086,2.32423567771912
645,2534142247,-0.37926444411278,-0.34548738598824,55.24087524414062,-3.07204437255859,-0.43751931190491,10.61458587646484,3.93473124504089,0.86919337511063,4.18049907684326
646,2534150580,-0.39177364110947,-0.35507771372795,55.22753524780273,-2.31074333190918,2.01923489570618,10.19068050384521,-1.40041983127594,-1.62825846672058,1.35863029956818
647,2534158913,-0.42232736945152,-0.36014553904533,55.22515106201172,1.15794467926025,-0.99617379903793,9.76717090606689,-3.56077599525452,-1.10580492019653,2.31037878990173
648,2534167246,-0.41814368963242,-0.35855177044868,55.22621154785156,2.56235766410828,-0.87499362230301,10.70654296875000,0.60810762643814,-0.30288833379745,3.08846211433411
649,2534175579,-0.39741891622543,-0.35943010449409,55.22057342529297,2.20728325843811,-0.45610851049423,9.66062736511230,2.59123873710632,-0.60010313987732,1.92480754852295
650,2534183912,-0.38085067272186,-0.34290504455566,55.22928619384766,-0.97557854652405,0.87273526191711,10.13461971282959,2.10438871383667,1.49909889698029,4.02012920379639
651,2534192245,-0.39551651477814,-0.34503519535065,55.22545242309570,-2.88074517250061,0.46696102619171,10.50441837310791,-1.65484607219696,-0.75232845544815,2.13743090629578
652,2534200578,-0.40645158290863,-0.35552081465721,55.21582031250000,-1.14294648170471,-1.26975345611572,9.71559429168701,-1.21474230289459,-1.74083292484283,1.77158284187317
653,2534208911,-0.38511973619461,-0.35068324208260,55.22773742675781,1.18883109092712,-0.14543953537941,10.31263732910156,2.67668724060059,0.07146371155977,4.03490829467773
654,2534217244,-0.39324349164963,-0.35276564955711,55.22108078002930,2.47599792480469,1.95325946807861,10.80678653717041,-0.87217748165131,-0.73670381307602,2.17723560333252
655,2534225577,-0.41955322027206,-0.35792189836502,55.20964813232422,1.73940074443817,-0.90871155261993,9.57010650634766,-3.05625224113464,-1.10746991634369,1.22415566444397
656,2534233910,-0.40692484378815,-0.34216380119324,55.21303176879883,-1.89127063751221,-1.67719936370850,10.27150917053223,1.62214946746826,1.41021728515625,3.40420866012573
657,2534242243,-0.37606763839722,-0.34062018990517,55.22737884521484,-3.00775337219238,1.05465042591095,10.32651519775391,3.82069611549377,-0.32567220926285,4.32416915893555
658,2534250576,-0.40806159377098,-0.35408425331116,55.20214462280273,0.01520528644323,0.83504277467728,9.61892223358154,-3.75042366981506,-2.09041643142700,-0.08161976933479
659,2534258909,-0.41964176297188,-0.34979909658432,55.21019363403320,2.08129882812500,-1.02875745296478,10.49409008026123,-1.27606272697449,0.00832462683320,3.57036805152893
660,2534267242,-0.41027891635895,-0.35327672958374,55.20722579956055,2.47621631622314,-0.65244269371033,10.34735393524170,1.22756218910217,-0.90319627523422,2.61936283111572
661,2534275575,-0.39229518175125,-0.34632155299187,55.20681381225586,0.14944216609001,0.00229730829597,9.61917591094971,2.26670622825623,0.33552086353302,2.55758142471313
662,2534283908,-0.38441395759583,-0.33350625634193,55.21416091918945,-2.57394313812256,1.07534015178680,10.50661182403564,1.05889248847961,1.05133628845215,3.84415864944458
663,2534292241,-0.41133138537407,-0.35092899203300,55.20213699340820,-2.16502213478088,0.02298596501350,10.41037464141846,-3.13122510910034,-2.57959675788879,1.14285600185394
664,2534300574,-0.42140436172485,-0.35299175977707,55.19581222534180,0.90990483760834,-1.27977359294891,9.54065418243408,-1.10895550251007,-0.73857361078262,2.19688200950623
665,2534308907,-0.39591699838638,-0.34674105048180,55.20339202880859,2.83322691917419,-0.50829458236694,10.72140693664551,3.17321944236755,0.24456471204758,3.51645016670227
666,2534317240,-0.39174908399582,-0.35090294480324,55.20231628417969,1.51215851306915,2.16657757759094,10.08858680725098,0.60826122760773,-0.98308718204498,2.81016325950623
667,2534325573,-0.41926810145378,-0.34546107053757,55.19445800781250,-1.03086817264557,-1.18865799903870,9.65651035308838,-3.19951248168945,0.16108793020248,1.66126239299774
668,2534333906,-0.39712169766426,-0.33980780839920,55.19847869873047,-2.58268737792969,-1.46359586715698,10.79744815826416,2.76669621467590,0.19023694097996,3.44557595252991
669,2534342239,-0.38419589400291,-0.35205841064453,55.19141769409180,-1.72852718830109,1.87679398059845,9.72229099273682,1.65409040451050,-1.96201193332672,1.74356091022491
670,2534350572,-0.41820052266121,-0.35899880528450,55.18620300292969,0.07899713516235,-0.03210259601474,10.64413738250732,-3.98072147369385,-1.32767546176910,2.32103395462036
671,2534358905,-0.41899478435516,-0.35546675324440,55.19103622436523,-0.40028002858162,-1.68739783763885,9.66420459747314,0.01559906825423,-0.07987799495459,3.18407988548279
672,2534367238,-0.39201474189758,-0.35130426287651,55.19346237182617,-0.93967032432556,0.13249146938324,9.89409446716309,3.34939408302307,-0.00331704365090,3.22045207023621
673,2534375571,-0.39980331063271,-0.35330912470818,55.17983627319336,-1.28283381462097,0.79139769077301,10.41456794738770,-0.83577954769135,-0.72778993844986,0.96283906698227
674,2534383904,-0.39883181452751,-0.34730461239815,55.17665100097656,-1.62737464904785,-0.92950260639191,10.35675716400146,0.22041046619415,0.21375077962875,2.56949186325073
675,2534392237,-0.39628741145134,-0.35299414396286,55.17808532714844,-1.12694084644318,0.27835169434547,9.94704532623291,0.41407972574234,-1.18254518508911,2.76833558082581
676,2534400570,-0.40325930714607,-0.35893318057060,55.17222595214844,0.13381484150887,-0.57491636276245,10.48759269714355,-0.73365575075150,-1.22550034523010,2.23940157890320
677,2534408903,-0.39201557636261,-0.35892754793167,55.18258285522461,1.81478321552277,0.32130661606789,10.15788936614990,1.46505737304688,-0.50817358493805,3.84400486946106
678,2534417236,-0.40501108765602,-0.35930797457695,55.17737579345703,1.29040503501892,0.68637603521347,10.04497528076172,-1.45515751838684,-0.55258864164352,2.31685876846313
679,2534425569,-0.41087877750397,-0.35517233610153,55.17432403564453,-0.14404228329659,-1.50155270099640,9.60590648651123,-0.59843814373016,-0.00098614802118,2.23865842819214
680,2534433902,-0.38119536638260,-0.35405242443085,55.18101882934570,-2.03613400459290,0.16468191146851,10.74112987518311,3.67748665809631,-0.37856554985046,3.75627660751343
681,2534442235,-0.39789971709251,-0.35286727547646,55.17020416259766,-0.64837747812271,1.65333306789398,10.09900474548340,-1.90368831157684,-0.34941661357880,1.30186915397644
682,2534450568,-0.41913717985153,-0.36405757069588,55.16458511352539,1.37018048763275,-1.23582160472870,9.90572738647461,-2.44929718971252,-1.85448324680328,2.28186964988708
683,2534458901,-0.40464970469475,-0.36448681354523,55.16736602783203,1.65056657791138,-1.06772220134735,10.27605915069580,1.84921967983246,-0.55304974317551,2.93357300758362
684,2534467234,-0.38413646817207,-0.34808588027954,55.17677688598633,0.31588092446327,1.01820981502533,9.98938751220703,2.57953286170959,1.45248079299927,4.08672571182251
685,2534475567,-0.40221279859543,-0.35378152132034,55.16791152954102,-0.64313042163849,0.61756461858749,10.18144607543945,-2.06767082214355,-1.17542445659637,1.53196179866791
686,2534483900,-0.40424808859825,-0.35612645745277,55.16199874877930,-1.28236258029938,-1.20978653430939,10.14807510375977,-0.14414408802986,-0.78701013326645,2.28804278373718
687,2534492233,-0.39084798097610,-0.35217586159706,55.16480255126953,-0.27112480998039,0.30184182524681,10.14406108856201,1.71820306777954,-0.02747127041221,2.94281959533691
688,2534500566,-0.39907810091972,-0.35963845252991,55.15821838378906,0.89270031452179,0.31845057010651,10.39194202423096,-0.88559943437576,-1.40287888050079,1.80362653732300
