sep=,
DeviceTag:,thirdfloor
FirmwareVersion:,2.2.1
AppVersion:,2023.6.0
StartTime: ,2025-04-11_11:49:50_000 PDT
© Movella Technologies B. V. 2005-2025

PacketCounter,SampleTimeFine,Euler_X,Euler_Y,Euler_Z,Acc_X,Acc_Y,Acc_Z,Gyr_X,Gyr_Y,Gyr_Z
0,1836019462,2.44336009025574,-2.36419200897217,59.63320922851562,0.00000000000000,0.00000000000000,0.00000000000000,0.00000000000000,0.00000000000000,0.00000000000000
1,1836027795,2.44376564025879,-2.37019538879395,59.65414810180664,0.38306578993797,0.43954762816429,10.13505935668945,0.15236628055573,-0.61317914724350,2.53922891616821
2,1836036128,2.47089171409607,-2.34487342834473,59.67975616455078,0.39511466026306,0.45601248741150,10.12768840789795,0.03605203703046,-0.55564963817596,2.58354139328003
3,1836044461,2.47149896621704,-2.35065269470215,59.70133972167969,0.40158304572105,0.44500756263733,10.15877819061279,0.17864647507668,-0.58044421672821,2.61466264724731
4,1836052794,2.49356341362000,-2.32922697067261,59.71106338500977,0.39346230030060,0.45061221718788,10.13676261901855,0.14422093331814,-0.57219636440277,2.58351588249207
5,1836061127,2.49318909645081,-2.33533334732056,59.73245620727539,0.38349950313568,0.44517818093300,10.14406776428223,0.06053924933076,-0.62122201919556,2.59501695632935
6,1836069460,2.50672006607056,-2.31463003158569,59.74284744262695,0.36788147687912,0.42692431807518,10.12023735046387,0.14947187900543,-0.43779852986336,2.70479941368103
7,1836077793,2.50730848312378,-2.32003355026245,59.76419830322266,0.39269721508026,0.44523042440414,10.15313625335693,0.17541909217834,-0.53620845079422,2.58840823173523
8,1836086126,2.51046824455261,-2.30244803428650,59.77539062500000,0.38825953006744,0.46178001165390,10.11097049713135,0.07355127483606,-0.63269716501236,2.55897712707520
9,1836094459,2.50999021530151,-2.30778574943542,59.79722213745117,0.36908125877380,0.44352701306343,10.14759731292725,0.04762966930866,-0.52442580461502,2.64258217811584
10,1836102792,2.51394987106323,-2.29266881942749,59.80723953247070,0.36808386445045,0.42517226934433,10.12376308441162,0.08359205722809,-0.56551110744476,2.63927793502808
11,1836111125,2.51426434516907,-2.29853487014771,59.82898712158203,0.34719702601433,0.43813404440880,10.12375354766846,0.14250479638577,-0.58864074945450,2.63599967956543
12,1836119458,2.51459789276123,-2.28184533119202,59.81689071655273,0.35934996604919,0.45283514261246,10.16946029663086,0.18371810019016,-0.51991772651672,2.61952924728394
13,1836127791,2.51462817192078,-2.28771996498108,59.83807373046875,0.36742261052132,0.42356273531914,10.13829517364502,0.10474941879511,-0.59179127216339,2.56878757476807
14,1836136124,2.51330757141113,-2.27378177642822,59.83051681518555,0.37940883636475,0.42534351348877,10.11442565917969,0.12434431910515,-0.63282531499863,2.64747452735901
15,1836144457,2.51309418678284,-2.27886939048767,59.85225677490234,0.37511938810349,0.44736286997795,10.11806297302246,0.07729095220566,-0.49494388699532,2.63108158111572
16,1836152790,2.51149368286133,-2.26826429367065,59.84335327148438,0.40358462929726,0.43984782695770,10.17840671539307,0.14258162677288,-0.54604423046112,2.52775382995605
17,1836161123,2.51161599159241,-2.27411794662476,59.86460876464844,0.41171744465828,0.42150962352753,10.16554641723633,0.11622459441423,-0.59020322561264,2.57698440551758
18,1836169456,2.50989794731140,-2.27028131484985,59.87569427490234,0.37424680590630,0.41461220383644,10.15825557708740,0.24711333215237,-0.66781431436539,2.63914990425110
19,1836177789,2.50948834419250,-2.27463102340698,59.89667510986328,0.37716594338417,0.42934274673462,10.12340068817139,0.04975565522909,-0.41118532419205,2.53766632080078
20,1836186122,2.50582408905029,-2.27085232734680,59.89573287963867,0.40018510818481,0.44560179114342,10.14896678924561,0.12944152951241,-0.57055705785751,2.60977029800415
21,1836194455,2.50611042976379,-2.27689385414124,59.91708374023438,0.38280072808266,0.43301257491112,10.15628337860107,0.13576826453209,-0.61323040723801,2.59009861946106
22,1836202788,2.50279927253723,-2.27499437332153,59.91768646240234,0.37462666630745,0.43128511309624,10.13429069519043,0.07859728485346,-0.56704795360565,2.57375693321228
23,1836211121,2.50290012359619,-2.28135776519775,59.93804550170898,0.38130819797516,0.43672722578049,10.16169643402100,0.10918067395687,-0.65577560663223,2.47375869750977
24,1836219454,2.50014019012451,-2.27801203727722,59.93939208984375,0.40971753001213,0.44011929631233,10.14512252807617,0.11909339576960,-0.34433215856552,2.49496722221375
25,1836227787,2.50081944465637,-2.28331899642944,59.96110534667969,0.42332157492638,0.44734558463097,10.13040447235107,0.18382057547569,-0.52171075344086,2.62936544418335
26,1836236120,2.49913930892944,-2.28438305854797,59.96218490600586,0.40414571762085,0.44950574636459,10.12308692932129,0.15730983018875,-0.58057224750519,2.66217756271362
27,1836244453,2.49897265434265,-2.28982090950012,59.98289871215820,0.40684849023819,0.43120956420898,10.13952445983887,0.07862289249897,-0.54404640197754,2.50984930992126
28,1836252786,2.49815869331360,-2.29211950302124,59.98267364501953,0.43176412582397,0.44195261597633,10.15406417846680,0.21458326280117,-0.59240603446960,2.64737224578857
29,1836261119,2.49768185615540,-2.29694747924805,60.00450897216797,0.41442000865936,0.44407135248184,10.13759040832520,0.04816757142544,-0.46512895822525,2.64432406425476
30,1836269452,2.49601030349731,-2.29980015754700,60.00601196289062,0.40235725045204,0.43682876229286,10.12844085693359,0.06269083917141,-0.48982098698616,2.58525729179382
31,1836277785,2.49686861038208,-2.30518651008606,60.02703094482422,0.39781978726387,0.43693703413010,10.13940811157227,0.20328737795353,-0.53669506311417,2.54903912544250
32,1836286118,2.49652934074402,-2.30865168571472,60.02730178833008,0.41358339786530,0.44968697428703,10.13747692108154,0.20994709432125,-0.53997373580933,2.62278246879578
33,1836294451,2.49639153480530,-2.31367897987366,60.04874801635742,0.39087033271790,0.45927658677101,10.14116573333740,0.08730612695217,-0.48994910717010,2.59834647178650
34,1836302784,2.49579906463623,-2.31797862052917,60.05241775512695,0.37686133384705,0.44117191433907,10.13386821746826,0.11110175400972,-0.61796903610229,2.69019889831543
35,1836311117,2.49593973159790,-2.32414054870605,60.07357788085938,0.39985913038254,0.43901601433754,10.10993862152100,0.11901655793190,-0.62790733575821,2.56886458396912
36,1836319450,2.49623107910156,-2.32767271995544,60.07169342041016,0.39754053950310,0.45016789436340,10.15019512176514,0.20318491756916,-0.55805736780167,2.57526803016663
37,1836327783,2.49646425247192,-2.33291983604431,60.09328079223633,0.39104098081589,0.44488272070885,10.13370323181152,0.13310438394547,-0.51651108264923,2.61960649490356
38,1836336116,2.49640941619873,-2.33723211288452,60.08556365966797,0.39568576216698,0.44303989410400,10.13181114196777,0.13676720857620,-0.66246098279953,2.57047843933105
39,1836344449,2.49750614166260,-2.34235072135925,60.10711288452148,0.37981933355331,0.41960895061493,10.12086296081543,0.23653465509415,-0.50093758106232,2.61450886726379
40,1836352782,2.49718594551086,-2.34483885765076,60.10947036743164,0.39583376049995,0.44514837861061,10.14089393615723,0.12885241210461,-0.45903274416924,2.70979404449463
41,1836361115,2.49758028984070,-2.34975290298462,60.13018035888672,0.37642630934715,0.43457096815109,10.14459705352783,0.14962555468082,-0.48059991002083,2.51141166687012
42,1836369448,2.49785780906677,-2.35286545753479,60.13822555541992,0.36103296279907,0.44776567816734,10.12996006011963,0.18983991444111,-0.56786763668060,2.51305127143860
43,1836377781,2.49729943275452,-2.35842943191528,60.15950012207031,0.37446141242981,0.42927187681198,10.12073707580566,0.03761450946331,-0.55659735202789,2.58049321174622
44,1836386114,2.49719619750977,-2.36145520210266,60.15744400024414,0.36664235591888,0.43861320614815,10.16649818420410,0.14878028631210,-0.60677564144135,2.66066575050354
45,1836394447,2.49710965156555,-2.36748528480530,60.17847442626953,0.37876355648041,0.44575718045235,10.14443874359131,0.09440126270056,-0.61287176609039,2.55749177932739
46,1836402780,2.49670457839966,-2.36998128890991,60.18506622314453,0.37032839655876,0.43310263752937,10.12064933776855,0.10293080657721,-0.58344107866287,2.57549858093262
47,1836411113,2.49578189849854,-2.37509465217590,60.20656204223633,0.36403402686119,0.43321231007576,10.13711261749268,-0.00276633724570,-0.50206464529037,2.60518527030945
48,1836419446,2.49578809738159,-2.37688136100769,60.20674514770508,0.38323131203651,0.42914530634880,10.14066886901855,0.15734823048115,-0.53812944889069,2.51308917999268
49,1836427779,2.49662423133850,-2.38248682022095,60.22831344604492,0.39529448747635,0.44001066684723,10.12409400939941,0.20819251239300,-0.55992722511292,2.62448596954346
50,1836436112,2.49621701240540,-2.38413071632385,60.22640228271484,0.39110153913498,0.44940865039825,10.14969730377197,0.11513599008322,-0.51142662763596,2.57220721244812
51,1836444445,2.49544095993042,-2.38927054405212,60.24712371826172,0.40258440375328,0.42900061607361,10.14781093597412,0.01174412760884,-0.50874996185303,2.51996684074402
52,1836452778,2.49547386169434,-2.39132928848267,60.25370788574219,0.40166470408440,0.42898273468018,10.14046001434326,0.16204847395420,-0.54968154430389,2.48354339599609
53,1836461111,2.49578833580017,-2.39770984649658,60.27465820312500,0.39748501777649,0.44382399320602,10.13858509063721,0.14299148321152,-0.65767115354538,2.55090904235840
54,1836469444,2.49559903144836,-2.40115714073181,60.28781890869141,0.37829065322876,0.43518349528313,10.13681125640869,0.13930302858353,-0.69532406330109,2.54932093620300
55,1836477777,2.49647784233093,-2.40624618530273,60.30901336669922,0.40867209434509,0.43282741308212,10.14945888519287,0.21368674933910,-0.50103998184204,2.57688164710999
56,1836486110,2.49664664268494,-2.40868067741394,60.31558990478516,0.41902276873589,0.43827313184738,10.17866325378418,0.18843112885952,-0.56633073091507,2.60813117027283
57,1836494443,2.49633693695068,-2.41422533988953,60.33738708496094,0.42366147041321,0.44188091158867,10.15845203399658,0.07232180237770,-0.55180746316910,2.65436482429504
58,1836502776,2.49599647521973,-2.41633534431458,60.33971023559570,0.40608334541321,0.43132156133652,10.16584205627441,0.12713626027107,-0.49020525813103,2.64760279655457
59,1836511109,2.49638247489929,-2.42238998413086,60.35998153686523,0.41046199202538,0.42757108807564,10.12550163269043,0.14972800016403,-0.62173438072205,2.47550058364868
60,1836519442,2.49676561355591,-2.42469930648804,60.36426162719727,0.42465570569038,0.44019255042076,10.13818454742432,0.21506994962692,-0.50447237491608,2.48833346366882
61,1836527775,2.49734425544739,-2.43005466461182,60.38581848144531,0.42361029982567,0.43489766120911,10.14548969268799,0.18072123825550,-0.53018903732300,2.63110685348511
62,1836536108,2.49642872810364,-2.43330097198486,60.38953399658203,0.39894327521324,0.43738624453545,10.13093566894531,0.06012941896915,-0.58610492944717,2.54786086082458
63,1836544441,2.49638772010803,-2.43790507316589,60.41075515747070,0.39603427052498,0.42649048566818,10.14741039276123,0.10469818860292,-0.44238349795341,2.58863878250122
64,1836552774,2.49617075920105,-2.44080400466919,60.41687774658203,0.38630205392838,0.44509223103523,10.13459777832031,0.15112400054932,-0.54130566120148,2.65747690200806
65,1836561107,2.49549770355225,-2.44690918922424,60.43856811523438,0.37988331913948,0.43981188535690,10.14192390441895,0.03205621242523,-0.62009501457214,2.65620899200439
66,1836569440,2.49495720863342,-2.45001435279846,60.44137573242188,0.39343130588531,0.42840698361397,10.13451194763184,0.10638872534037,-0.58008557558060,2.65103483200073
67,1836577773,2.49617218971252,-2.45551013946533,60.46291732788086,0.39781969785690,0.41743424534798,10.13812065124512,0.25760233402252,-0.54770916700363,2.63913679122925
68,1836586106,2.49614787101746,-2.45796132087708,60.46944046020508,0.39596715569496,0.44336482882500,10.16186237335205,0.17426644265652,-0.50726431608200,2.55080652236938
69,1836594439,2.49617147445679,-2.46272516250610,60.49007415771484,0.40522336959839,0.41754633188248,10.14716625213623,0.11084560304880,-0.46543624997139,2.52639579772949
70,1836602772,2.49493217468262,-2.46495723724365,60.49534988403320,0.38805985450745,0.43447089195251,10.12707042694092,0.03910012915730,-0.47417068481445,2.70036792755127
71,1836611105,2.49549627304077,-2.47022080421448,60.51581954956055,0.37480103969574,0.44226244091988,10.16557502746582,0.17553433775902,-0.52539920806885,2.51147580146790
72,1836619438,2.49540615081787,-2.47279691696167,60.51418685913086,0.37962979078293,0.45504993200302,10.14351654052734,0.16732500493526,-0.53508138656616,2.56071949005127
73,1836627771,2.49586844444275,-2.47862911224365,60.53529739379883,0.36205902695656,0.44836181402206,10.13810157775879,0.16667184233665,-0.59080523252487,2.59851336479187
74,1836636104,2.49496364593506,-2.48011589050293,60.54102325439453,0.35949599742889,0.45217508077621,10.14357948303223,0.05754237622023,-0.42196887731552,2.56261444091797
75,1836644437,2.49453973770142,-2.48569250106812,60.56182479858398,0.36576965451241,0.44649595022202,10.15450477600098,0.05869502574205,-0.56302654743195,2.55782485008240
76,1836652770,2.49442791938782,-2.48813462257385,60.56647109985352,0.35595801472664,0.44869351387024,10.17652034759521,0.14587308466434,-0.55773723125458,2.61984992027283
77,1836661103,2.49514508247375,-2.49324131011963,60.58702850341797,0.36701443791389,0.42644548416138,10.13798713684082,0.19552627205849,-0.50772535800934,2.52949571609497
78,1836669436,2.49524331092834,-2.49415469169617,60.59015655517578,0.38076171278954,0.42439335584641,10.16351795196533,0.16786290705204,-0.39740490913391,2.57211756706238
79,1836677769,2.49533557891846,-2.49872708320618,60.61153793334961,0.39378973841667,0.41485661268234,10.12495040893555,0.12477975338697,-0.43933537602425,2.62808465957642
80,1836686102,2.49478292465210,-2.50161433219910,60.61642837524414,0.40260386466980,0.42748865485191,10.14865779876709,0.10011323541403,-0.63735902309418,2.56760954856873
81,1836694435,2.49506330490112,-2.50673913955688,60.63729476928711,0.41158521175385,0.44739904999733,10.14486122131348,0.14483569562435,-0.50857067108154,2.57068324089050
82,1836702768,2.49524092674255,-2.50873994827271,60.64034652709961,0.39913219213486,0.43324851989746,10.13394451141357,0.18727847933769,-0.52073740959167,2.58364391326904
83,1836711101,2.49502682685852,-2.51410055160522,60.66173171997070,0.39798936247826,0.42242449522018,10.15042018890381,0.08886859565973,-0.53380066156387,2.63484668731689
84,1836719434,2.49436044692993,-2.51681065559387,60.66491317749023,0.40525600314140,0.44419094920158,10.15762901306152,0.09096895158291,-0.60108917951584,2.61847925186157
85,1836727767,2.49496483802795,-2.52265429496765,60.68676376342773,0.39698180556297,0.43541938066483,10.17963695526123,0.19142799079418,-0.59122776985168,2.69519400596619
86,1836736100,2.49414873123169,-2.52549958229065,60.69092941284180,0.38893496990204,0.44850039482117,10.12104225158691,0.06755755096674,-0.61545884609222,2.56123161315918
87,1836744433,2.49381089210510,-2.53058004379272,60.71189880371094,0.36893650889397,0.41809323430061,10.14867687225342,0.07449900358915,-0.50411379337311,2.58899712562561
88,1836752766,2.49407172203064,-2.53363227844238,60.71316146850586,0.39758065342903,0.42267841100693,10.15574550628662,0.20367157459259,-0.64232814311981,2.70341587066650
89,1836761099,2.49409031867981,-2.53926634788513,60.73427581787109,0.39751577377319,0.44658952951431,10.13186454772949,0.11774864792824,-0.56875127553940,2.61027002334595
90,1836769432,2.49357008934021,-2.54095458984375,60.74291610717773,0.41096821427345,0.43336987495422,10.15006256103516,0.10610696673393,-0.48331496119499,2.60367417335510
91,1836777765,2.49361896514893,-2.54623723030090,60.76385498046875,0.42442846298218,0.42741087079048,10.14261531829834,0.11998989433050,-0.52783256769180,2.58559060096741
92,1836786098,2.49321150779724,-2.54921913146973,60.76314544677734,0.41587635874748,0.41860091686249,10.13534545898438,0.12142428755760,-0.62790733575821,2.57913589477539
93,1836794431,2.49436306953430,-2.55511331558228,60.78376007080078,0.40884804725647,0.44649747014046,10.13896942138672,0.25131410360336,-0.60408616065979,2.55564785003662
94,1836802764,2.49388504028320,-2.55757260322571,60.78784561157227,0.37482589483261,0.43879449367523,10.14471149444580,0.11108893156052,-0.56046509742737,2.54308366775513
95,1836811097,2.49386405944824,-2.56287431716919,60.80931091308594,0.39619666337967,0.44720333814621,10.13899707794189,0.11705704778433,-0.52773004770279,2.65289187431335
96,1836819430,2.49396991729736,-2.56439423561096,60.80877685546875,0.39244690537453,0.42358982563019,10.12439060211182,0.17873613536358,-0.45353850722313,2.56075787544250
97,1836827763,2.49399662017822,-2.56798243522644,60.83006668090820,0.39060541987419,0.44581246376038,10.15364360809326,0.12080954760313,-0.32448112964630,2.62811017036438
98,1836836096,2.49380135536194,-2.56997513771057,60.83289718627930,0.37481436133385,0.44285359978676,10.16107845306396,0.14509184658527,-0.50862181186676,2.62001609802246
99,1836844429,2.49449419975281,-2.57575845718384,60.85382461547852,0.38680022954941,0.44071698188782,10.17559528350830,0.19917631149292,-0.59001111984253,2.59689927101135
100,1836852762,2.49436783790588,-2.57702541351318,60.85800933837891,0.40600067377090,0.44917452335358,10.12778282165527,0.15178996324539,-0.42835968732834,2.65271282196045
101,1836861095,2.49452877044678,-2.58142542839050,60.87921142578125,0.39963084459305,0.44411230087280,10.16992759704590,0.13862423598766,-0.42317280173302,2.62489581108093
102,1836869428,2.49499416351318,-2.58410382270813,60.88468933105469,0.38548508286476,0.44290539622307,10.13339328765869,0.21891205012798,-0.59691417217255,2.65426206588745
103,1836877761,2.49507403373718,-2.58927130699158,60.90509796142578,0.37700706720352,0.43606936931610,10.12429046630859,0.12320447713137,-0.51971280574799,2.53652644157410
104,1836886094,2.49468350410461,-2.59210419654846,60.90916061401367,0.37485203146935,0.44362175464630,10.15173530578613,0.11135788261890,-0.62598627805710,2.57606196403503
105,1836894427,2.49463367462158,-2.59729647636414,60.92980957031250,0.36655884981155,0.44217091798782,10.13896846771240,0.11017963290215,-0.52104473114014,2.56448411941528
106,1836902760,2.49426269531250,-2.59884166717529,60.93272018432617,0.34974402189255,0.45396056771278,10.15187358856201,0.10941121727228,-0.48167568445206,2.56612396240234
107,1836911093,2.49473667144775,-2.60442233085632,60.95389175415039,0.35516116023064,0.43545597791672,10.12803840637207,0.17678943276405,-0.56663811206818,2.63314318656921
108,1836919426,2.49413490295410,-2.60611820220947,60.95761489868164,0.37422752380371,0.46236580610275,10.17906188964844,0.08288766443729,-0.51218223571777,2.64661669731140
109,1836927759,2.49402594566345,-2.61109232902527,60.97876739501953,0.36505633592606,0.44442102313042,10.16083621978760,0.10778471082449,-0.49468776583672,2.62845611572266
110,1836936092,2.49347209930420,-2.61408829689026,60.98363113403320,0.39701837301254,0.44304907321930,10.14221286773682,0.07868693768978,-0.68276029825211,2.53206968307495
111,1836944425,2.49332308769226,-2.62015461921692,61.00513458251953,0.38875514268875,0.43431407213211,10.16241455078125,0.10358396917582,-0.62410366535187,2.67947959899902
112,1836952758,2.49301576614380,-2.62260580062866,61.01162719726562,0.38801169395447,0.44165909290314,10.12757968902588,0.11357352137566,-0.61288464069366,2.65645241737366
113,1836961091,2.49388599395752,-2.62841057777405,61.03302001953125,0.39047899842262,0.43431067466736,10.11655521392822,0.22715984284878,-0.59404534101486,2.66412401199341
114,1836969424,2.49394035339355,-2.63090586662292,61.03565216064453,0.39179885387421,0.43269288539886,10.14946556091309,0.15041960775852,-0.62690842151642,2.53992056846619
115,1836977757,2.49386787414551,-2.63675165176392,61.05666732788086,0.40767025947571,0.43756461143494,10.14378070831299,0.11204948276281,-0.60137099027634,2.62536931037903
116,1836986090,2.49386334419250,-2.63859796524048,61.06318283081055,0.39225912094116,0.43654265999794,10.15671443939209,0.15322436392307,-0.54154896736145,2.72184562683105
117,1836994423,2.49400568008423,-2.64365100860596,61.08361053466797,0.39985635876656,0.42344149947166,10.14382362365723,0.13674160838127,-0.51018434762955,2.55298376083374
118,1837002756,2.49301505088806,-2.64498949050903,61.08680725097656,0.39177274703979,0.43113479018211,10.12920856475830,0.03473290428519,-0.48144519329071,2.67976117134094
119,1837011089,2.49252104759216,-2.65082430839539,61.10721588134766,0.39802601933479,0.41989019513130,10.16027641296387,0.05907923728228,-0.60516190528870,2.55843949317932
120,1837019422,2.49248528480530,-2.65393853187561,61.11087036132812,0.40580165386200,0.45246520638466,10.12530803680420,0.15054765343666,-0.70072859525681,2.60564637184143
121,1837027755,2.49239563941956,-2.65966081619263,61.13145065307617,0.42727926373482,0.45341163873672,10.13603210449219,0.10875804722309,-0.59154796600342,2.57789349555969
122,1837036088,2.49230432510376,-2.66163587570190,61.13541030883789,0.41463866829872,0.43937557935715,10.12151336669922,0.13905970752239,-0.56109261512756,2.59244275093079
123,1837044421,2.49161601066589,-2.66745710372925,61.15692901611328,0.40011581778526,0.41455173492432,10.15647315979004,0.04359542578459,-0.59802836179733,2.69630813598633
124,1837052754,2.49107003211975,-2.66925525665283,61.16123199462891,0.42626458406448,0.44437882304192,10.13962650299072,0.08930402994156,-0.53520941734314,2.67959475517273
125,1837061087,2.49140524864197,-2.67490673065186,61.18230819702148,0.42113676667213,0.43727737665176,10.11403751373291,0.16505813598633,-0.58136636018753,2.64320993423462
126,1837069420,2.49015092849731,-2.67647719383240,61.18868255615234,0.37623640894890,0.43046063184738,10.14196300506592,0.00293283024803,-0.50360149145126,2.63904738426208
127,1837077753,2.49041056632996,-2.68181443214417,61.20938110351562,0.37319108843803,0.42327430844307,10.14564895629883,0.15251997113228,-0.54671025276184,2.59898662567139
128,1837086086,2.48936247825623,-2.68327498435974,61.21159744262695,0.37108367681503,0.47473195195198,10.13270568847656,0.03094199486077,-0.49937510490417,2.63729286193848
129,1837094419,2.48903918266296,-2.68838644027710,61.23226547241211,0.38024950027466,0.45411816239357,10.14362621307373,0.08270837366581,-0.52036601305008,2.59935832023621
130,1837102752,2.48889923095703,-2.68915009498596,61.23462677001953,0.38208636641502,0.43213105201721,10.16376876831055,0.12908293306828,-0.42814192175865,2.55636453628540
131,1837111085,2.48961997032166,-2.69478678703308,61.25509643554688,0.37967666983604,0.44153887033463,10.15459442138672,0.20720635354519,-0.58428627252579,2.58072376251221
132,1837119418,2.49003124237061,-2.69542622566223,61.26072692871094,0.39535138010979,0.44096645712852,10.16538333892822,0.19670452177525,-0.41999658942223,2.58548808097839
133,1837127751,2.48986649513245,-2.70015382766724,61.28060150146484,0.38377153873444,0.42142701148987,10.12889766693115,0.09960094839334,-0.47990834712982,2.50577640533447
134,1837136084,2.48929333686829,-2.70141577720642,61.28603744506836,0.37825945019722,0.43285199999809,10.16370582580566,0.08185029029846,-0.49568662047386,2.62890410423279
135,1837144417,2.49039340019226,-2.70618104934692,61.30698776245117,0.38545188307762,0.45269972085953,10.14157676696777,0.25610396265984,-0.48057425022125,2.63776659965515
136,1837152750,2.49022269248962,-2.70750665664673,61.31132507324219,0.37367251515388,0.45356649160385,10.15266704559326,0.12895487248898,-0.51003068685532,2.61883807182312
137,1837161083,2.49049568176270,-2.71329450607300,61.33118057250977,0.37766411900520,0.44243943691254,10.14530277252197,0.15196925401688,-0.60918337106705,2.51559948921204
138,1837169416,2.49085688591003,-2.71495580673218,61.33415603637695,0.38060224056244,0.44970342516899,10.11774253845215,0.18626670539379,-0.56252700090408,2.55632615089417
139,1837177749,2.49012994766235,-2.72058153152466,61.35475540161133,0.37960794568062,0.43535196781158,10.17269515991211,0.03831889480352,-0.58632266521454,2.60806751251221
140,1837186082,2.49046301841736,-2.72173810005188,61.35729217529297,0.36017173528671,0.43999764323235,10.12709999084473,0.18116949498653,-0.50827604532242,2.55635190010071
141,1837194415,2.49016761779785,-2.72730970382690,61.37852478027344,0.35695421695709,0.45872545242310,10.15637302398682,0.09310775250196,-0.57784438133240,2.68649792671204
142,1837202748,2.48867034912109,-2.72792601585388,61.38324356079102,0.38654011487961,0.45146405696869,10.12672042846680,-0.03674362227321,-0.45300057530403,2.61001372337341
143,1837211081,2.48785781860352,-2.73370671272278,61.40392684936523,0.37943533062935,0.43169820308685,10.16162967681885,0.02793232165277,-0.60731351375580,2.62132239341736
144,1837219414,2.48800563812256,-2.73559451103210,61.40839385986328,0.40946543216705,0.45935198664665,10.15202522277832,0.15690000355244,-0.61430621147156,2.55826020240784
145,1837227747,2.48717570304871,-2.74132537841797,61.42854309082031,0.41729918122292,0.44798403978348,10.15742206573486,0.02434633113444,-0.60562294721603,2.56233286857605
146,1837236080,2.48690366744995,-2.74276185035706,61.43355560302734,0.40843337774277,0.40804862976074,10.13562774658203,0.10841224342585,-0.55539339780807,2.66507148742676
147,1837244413,2.48780608177185,-2.74815154075623,61.45311737060547,0.40849223732948,0.42286354303360,10.13738250732422,0.22836372256279,-0.56725287437439,2.49547958374023
148,1837252746,2.48832130432129,-2.74897718429565,61.45813751220703,0.39677715301514,0.45319053530693,10.15940093994141,0.20116141438484,-0.48941123485565,2.50867104530334
149,1837261079,2.48865604400635,-2.75417613983154,61.47831344604492,0.39551728963852,0.44974473118782,10.15023136138916,0.16391828656197,-0.54235577583313,2.56965827941895
150,1837269412,2.48765897750854,-2.75569224357605,61.48316574096680,0.39198112487793,0.43351894617081,10.15578556060791,0.01652118191123,-0.57749861478806,2.49357151985168
151,1837277745,2.48844552040100,-2.76119947433472,61.50349044799805,0.40027749538422,0.43489775061607,10.14650344848633,0.22037206590176,-0.58008563518524,2.59073877334595
152,1837286078,2.48848748207092,-2.76251173019409,61.50763702392578,0.40672138333321,0.46226939558983,10.16096210479736,0.14959993958473,-0.54837518930435,2.66494345664978
153,1837294411,2.48794746398926,-2.76784157752991,61.52747726440430,0.41720253229141,0.43423479795456,10.17003154754639,0.05820835381746,-0.56225806474686,2.53761506080627
154,1837302744,2.48875260353088,-2.76850962638855,61.53212356567383,0.42862939834595,0.42809143662453,10.16071796417236,0.24040238559246,-0.47399145364761,2.66099882125854
155,1837311077,2.48887014389038,-2.77285480499268,61.55264663696289,0.41161492466927,0.43663808703423,10.15723037719727,0.14265848696232,-0.44164067506790,2.61730098724365
156,1837319410,2.48904156684875,-2.77420306205750,61.55628967285156,0.39813593029976,0.44125768542290,10.16101932525635,0.16215090453625,-0.55703270435333,2.62065649032593
157,1837327743,2.48934388160706,-2.78012585639954,61.57619857788086,0.42101919651031,0.44179955124855,10.14420604705811,0.16097265481949,-0.63582217693329,2.55518651008606
158,1837336076,2.48933959007263,-2.78102326393127,61.57942962646484,0.41112965345383,0.43893599510193,10.16262054443359,0.13470527529716,-0.51053017377853,2.45845437049866
159,1837344409,2.48934078216553,-2.78696513175964,61.59998703002930,0.42134720087051,0.44204965233803,10.15696144104004,0.12868592143059,-0.63637292385101,2.63744664192200
160,1837352742,2.48938703536987,-2.78727245330811,61.60373687744141,0.40280926227570,0.43033289909363,10.12241840362549,0.14992010593414,-0.43361061811447,2.65834760665894
161,1837361075,2.48917555809021,-2.79266953468323,61.62385940551758,0.38187190890312,0.43357956409454,10.12082862854004,0.10239290446043,-0.57327222824097,2.58669209480286
162,1837369408,2.48872137069702,-2.79395961761475,61.62628936767578,0.39579084515572,0.45313203334808,10.17182826995850,0.08822824060917,-0.55969667434692,2.60646629333496
163,1837377741,2.48859500885010,-2.79907011985779,61.64669799804688,0.36999294161797,0.44548216462135,10.12638664245605,0.11362474411726,-0.53750193119049,2.62433195114136
164,1837386074,2.48822331428528,-2.79954433441162,61.64672088623047,0.37585207819939,0.43059286475182,10.15198040008545,0.09005965292454,-0.47467023134232,2.48007297515869
165,1837394407,2.48777484893799,-2.80505752563477,61.66727066040039,0.39348834753036,0.43681696057320,10.14070701599121,0.07771359384060,-0.58882009983063,2.64761567115784
166,1837402740,2.48806619644165,-2.80663871765137,61.67079544067383,0.39351159334183,0.45153748989105,10.12965965270996,0.17695592343807,-0.60844057798386,2.62570261955261
167,1837411073,2.48858809471130,-2.81267642974854,61.69098663330078,0.38573822379112,0.42476755380630,10.14628124237061,0.19182501733303,-0.65323984622955,2.60932230949402
168,1837419406,2.48852705955505,-2.81336784362793,61.69340515136719,0.38399800658226,0.43610185384750,10.15724468231201,0.13775335252285,-0.50873702764511,2.64884448051453
169,1837427739,2.48864245414734,-2.81893801689148,61.71357345581055,0.37566104531288,0.45704448223114,10.18106842041016,0.14436183869839,-0.59923225641251,2.60955262184143
170,1837436072,2.48808598518372,-2.81971025466919,61.71770477294922,0.37559384107590,0.44603818655014,10.15544319152832,0.07471672445536,-0.52798622846603,2.63780498504639
171,1837444405,2.48797726631165,-2.82508111000061,61.73706436157227,0.38516655564308,0.43449628353119,10.16629695892334,0.11312527954578,-0.58029055595398,2.51461362838745
172,1837452738,2.48810529708862,-2.82584977149963,61.74093627929688,0.39423295855522,0.45585408806801,10.11848163604736,0.15805262327194,-0.53572165966034,2.62741827964783
173,1837461071,2.48822879791260,-2.83124065399170,61.76174163818359,0.39774373173714,0.45774856209755,10.16051864624023,0.14895957708359,-0.57632029056549,2.69322156906128
174,1837469404,2.48777031898499,-2.83164453506470,61.76433563232422,0.36508116126060,0.42690971493721,10.13173866271973,0.07998044043779,-0.50203889608383,2.55910515785217
175,1837477737,2.48809099197388,-2.83738803863525,61.78469085693359,0.39315611124039,0.43993175029755,10.17157459259033,0.17162817716599,-0.62309193611145,2.64393973350525
176,1837486070,2.48780369758606,-2.83774518966675,61.78664398193359,0.41724929213524,0.46213632822037,10.13633537292480,0.10304607450962,-0.50282025337219,2.57210469245911
177,1837494403,2.48743820190430,-2.84345841407776,61.80752182006836,0.40312734246254,0.42111548781395,10.17875957489014,0.09187825769186,-0.61864787340164,2.71180486679077
178,1837502736,2.48743939399719,-2.84417176246643,61.80993270874023,0.37837335467339,0.43004056811333,10.12595558166504,0.13913652300835,-0.55000162124634,2.56703281402588
179,1837511069,2.48785352706909,-2.84933495521545,61.83052062988281,0.39149701595306,0.44041669368744,10.15684223175049,0.18401266634464,-0.55630278587341,2.67827582359314
180,1837519402,2.48780155181885,-2.85150384902954,61.83231735229492,0.40321305394173,0.44148293137550,10.12366199493408,0.12919819355011,-0.73503893613815,2.53957438468933
181,1837527735,2.48710823059082,-2.85663962364197,61.85206985473633,0.38794177770615,0.41692292690277,10.12393474578857,0.04718142375350,-0.55655890703201,2.58416891098022
182,1837536068,2.48681068420410,-2.85717535018921,61.85458374023438,0.38000747561455,0.44328811764717,10.14044189453125,0.10503118485212,-0.54386711120605,2.58044219017029
183,1837544401,2.48762583732605,-2.86245608329773,61.87483596801758,0.42454954981804,0.43478244543076,10.14892768859863,0.23247477412224,-0.57287520170212,2.64846062660217
184,1837552734,2.48530292510986,-2.86319088935852,61.87754058837891,0.40857747197151,0.43042865395546,10.13817214965820,-0.13492298126221,-0.56964778900146,2.64469528198242
185,1837561067,2.48602080345154,-2.86825132369995,61.89732742309570,0.40003761649132,0.42364475131035,10.14562416076660,0.21806681156158,-0.55121839046478,2.59604120254517
186,1837569400,2.48614454269409,-2.86826086044312,61.89974594116211,0.41681483387947,0.44277745485306,10.13063430786133,0.15966632962227,-0.49000027775764,2.60787487030029
187,1837577733,2.48650670051575,-2.87337613105774,61.91966629028320,0.42088866233826,0.42988887429237,10.15805625915527,0.17527821660042,-0.55947893857956,2.61941432952881
188,1837586066,2.48589611053467,-2.87367343902588,61.92097091674805,0.41104421019554,0.43434983491898,10.14900302886963,0.06917124986649,-0.52952313423157,2.54637551307678
189,1837594399,2.48689913749695,-2.87815117835999,61.94066238403320,0.40968817472458,0.42905735969543,10.14718341827393,0.25159582495689,-0.48523610830307,2.59245514869690
190,1837602732,2.48768448829651,-2.87796545028687,61.94284820556641,0.40588507056236,0.46452000737190,10.15261363983154,0.24260522425175,-0.47168609499931,2.63845801353455
191,1837611065,2.48683476448059,-2.88323450088501,61.96192550659180,0.37103065848351,0.43046811223030,10.13675117492676,0.02758653089404,-0.58536207675934,2.52717733383179
192,1837619398,2.48655962944031,-2.88343548774719,61.96416854858398,0.34545680880547,0.42132955789566,10.12618064880371,0.10878366231918,-0.52925413846970,2.57238650321960
193,1837627731,2.48702311515808,-2.88957047462463,61.98394775390625,0.39620384573936,0.44708064198494,10.13075923919678,0.19026255607605,-0.68642312288284,2.62125849723816
194,1837636064,2.48674225807190,-2.88939428329468,61.98528671264648,0.40741011500359,0.42999786138535,10.15624332427979,0.11395773291588,-0.49324056506157,2.63793301582336
195,1837644397,2.48749113082886,-2.89399170875549,62.00475692749023,0.40356698632240,0.43781048059464,10.16725444793701,0.22131980955601,-0.50554817914963,2.58297801017761
196,1837652730,2.48719096183777,-2.89409494400024,62.00568771362305,0.38636621832848,0.42624470591545,10.11991882324219,0.10421152412891,-0.53907722234726,2.45767307281494
197,1837661063,2.48657059669495,-2.89835548400879,62.02623367309570,0.37290325760841,0.43868550658226,10.19882774353027,0.06327996402979,-0.46159410476685,2.71378970146179
198,1837669396,2.48715209960938,-2.89900636672974,62.02790069580078,0.41181907057762,0.44470784068108,10.13222503662109,0.21729832887650,-0.61048966646194,2.58492445945740
199,1837677729,2.48600530624390,-2.90454101562500,62.04773330688477,0.38233479857445,0.44544297456741,10.17112922668457,-0.00233089528047,-0.61832761764526,2.64090442657471
200,1837686062,2.48652553558350,-2.90496563911438,62.04838943481445,0.40462496876717,0.43997746706009,10.14512920379639,0.20622020959854,-0.59212434291840,2.54561972618103
201,1837694395,2.48701524734497,-2.90961313247681,62.06834030151367,0.36989217996597,0.43543475866318,10.11821746826172,0.19534698128700,-0.51438504457474,2.65385270118713
202,1837702728,2.48625779151917,-2.90917921066284,62.06978988647461,0.34543877840042,0.42854034900665,10.16990661621094,0.05011425167322,-0.50086069107056,2.48441433906555
203,1837711061,2.48771476745605,-2.91526627540588,62.08836746215820,0.36752364039421,0.44342726469040,10.15298652648926,0.30352869629860,-0.69451719522476,2.50076889991760
204,1837719394,2.48618292808533,-2.91530799865723,62.09028625488281,0.39785966277122,0.44302797317505,10.14511489868164,-0.03720467910171,-0.56780356168747,2.55591654777527
205,1837727727,2.48540496826172,-2.91922521591187,62.10947036743164,0.35214594006538,0.43911784887314,10.12025356292725,0.03874152898788,-0.43457114696503,2.56976103782654
206,1837736060,2.48672819137573,-2.91926956176758,62.11067581176758,0.42154860496521,0.44478785991669,10.12636470794678,0.30366957187653,-0.57806205749512,2.55961775779724
207,1837744393,2.48519563674927,-2.92295312881470,62.12997817993164,0.40551936626434,0.45377001166344,10.16870212554932,-0.04862862452865,-0.40804758667946,2.58690977096558
208,1837752726,2.48616528511047,-2.92237973213196,62.13162994384766,0.39574751257896,0.44519656896591,10.12492275238037,0.26049676537514,-0.50912135839462,2.56319117546082
209,1837761059,2.48506259918213,-2.92582559585571,62.15129852294922,0.40386348962784,0.41723045706749,10.14683532714844,0.00386774982326,-0.37887296080589,2.63567948341370
210,1837769392,2.48397445678711,-2.92620944976807,62.15150451660156,0.39817804098129,0.42501363158226,10.15604209899902,0.01447204407305,-0.63045597076416,2.57540893554688
211,1837777725,2.48543548583984,-2.93089866638184,62.17005538940430,0.41645872592926,0.47158524394035,10.18851566314697,0.30657678842545,-0.53583699464798,2.51365303993225
212,1837786058,2.48361015319824,-2.93025469779968,62.17117691040039,0.38601639866829,0.44979515671730,10.07188701629639,-0.07023423165083,-0.51031237840652,2.64812755584717
213,1837794391,2.48410344123840,-2.93552327156067,62.19015121459961,0.39327993988991,0.42782458662987,10.22016334533691,0.19274713099003,-0.60330492258072,2.57223296165466
214,1837802724,2.48413968086243,-2.93557882308960,62.19051742553711,0.40143162012100,0.44346180558205,10.13019466400146,0.14610362052917,-0.60968291759491,2.52015924453735
215,1837811057,2.48438167572021,-2.94090700149536,62.20975112915039,0.44603866338730,0.46779665350914,10.19523429870605,0.16480198502541,-0.61189848184586,2.61029529571533
216,1837819390,2.48376750946045,-2.94043684005737,62.21003341674805,0.41372922062874,0.43354067206383,10.13179397583008,0.06871019303799,-0.54729938507080,2.56999158859253
217,1837827723,2.48287534713745,-2.94518923759460,62.22892379760742,0.38753923773766,0.41374856233597,10.14512825012207,0.02612652070820,-0.54551923274994,2.57038879394531
218,1837836056,2.48379588127136,-2.94501686096191,62.23067474365234,0.42216643691063,0.42014026641846,10.14811992645264,0.25990763306618,-0.58632266521454,2.66851663589478
219,1837844389,2.48289155960083,-2.94966173171997,62.24980545043945,0.43712493777275,0.43372800946236,10.14411926269531,0.02855987288058,-0.53404402732849,2.60486555099487
220,1837852722,2.48235297203064,-2.94685888290405,62.24866485595703,0.40924233198166,0.45107892155647,10.20315647125244,0.07779042422771,-0.28036057949066,2.50543069839478
221,1837861055,2.48227214813232,-2.95236325263977,62.26694869995117,0.39420318603516,0.42824918031693,10.14671897888184,0.12320446223021,-0.64323747158051,2.51729011535645
222,1837869388,2.48365807533264,-2.95232677459717,62.26694869995117,0.38362368941307,0.44586354494095,10.13033485412598,0.31167399883270,-0.61841726303101,2.55988669395447
223,1837877721,2.48111891746521,-2.95655179023743,62.28531646728516,0.37784805893898,0.42227357625961,10.07005882263184,-0.17215327918530,-0.49105048179626,2.52300214767456
224,1837886054,2.48135375976562,-2.95678639411926,62.28478240966797,0.43051725625992,0.44212251901627,10.18989658355713,0.17132081091404,-0.66345995664597,2.49560761451721
225,1837894387,2.47939896583557,-2.96233081817627,62.30397415161133,0.37484747171402,0.41363927721977,10.13605308532715,-0.09742374718189,-0.64659291505814,2.63593530654907
226,1837902720,2.47958803176880,-2.96088218688965,62.30535507202148,0.38834759593010,0.45280283689499,10.12833309173584,0.17476592957973,-0.46316942572594,2.63962388038635
227,1837911053,2.47952294349670,-2.96490693092346,62.32352447509766,0.35707783699036,0.45410808920860,10.17283725738525,0.12558659911156,-0.47278755903244,2.51047682762146
228,1837919386,2.47904491424561,-2.96543478965759,62.32340240478516,0.37867480516434,0.42815050482750,10.11939620971680,0.08963702619076,-0.71222949028015,2.60159945487976
229,1837927719,2.47811627388000,-2.97019648551941,62.34137725830078,0.39057099819183,0.43297070264816,10.17957592010498,0.01973576657474,-0.56335943937302,2.49693965911865
230,1837936052,2.47743272781372,-2.96940088272095,62.34135055541992,0.36948749423027,0.44376805424690,10.12864112854004,0.06841561943293,-0.56362843513489,2.61301064491272
231,1837944385,2.47704768180847,-2.97395253181458,62.35945892333984,0.37500876188278,0.44716310501099,10.15597057342529,0.08665295690298,-0.54001212120056,2.52090167999268
232,1837952718,2.47707009315491,-2.97314190864563,62.36059951782227,0.38864547014236,0.43884876370430,10.18685531616211,0.15399278700352,-0.57058274745941,2.67297363281250
233,1837961051,2.47766613960266,-2.97748851776123,62.37900543212891,0.36467635631561,0.45929682254791,10.13045406341553,0.20792356133461,-0.51579385995865,2.56077027320862
234,1837969384,2.47795009613037,-2.97518825531006,62.37929153442383,0.34447601437569,0.42650493979454,10.14741802215576,0.18474267423153,-0.40124699473381,2.68712568283081
235,1837977717,2.47743439674377,-2.97996664047241,62.39675521850586,0.36384746432304,0.44341316819191,10.16711425781250,0.06794175505638,-0.57537251710892,2.45395898818970
236,1837986050,2.47681879997253,-2.98423981666565,62.41683578491211,0.37404116988182,0.43670165538788,10.10832881927490,0.07271881401539,-0.49621176719666,2.74756193161011
237,1837994383,2.47563004493713,-2.18232202529907,59.99491882324219,0.37897166609764,0.44583484530449,10.17227745056152,0.06783930957317,-0.63425970077515,2.54934668540955
238,1838002716,2.47557401657104,-2.18187904357910,59.99161529541016,0.38398849964142,0.41407275199890,10.15030670166016,0.12965926527977,-0.49242088198662,2.66989994049072
239,1838011049,2.47554731369019,-2.18077826499939,59.99023437500000,0.38840290904045,0.43577393889427,10.13363265991211,0.11564826965332,-0.42339047789574,2.42374682426453
240,1838019382,2.47545886039734,-2.18039822578430,59.98478317260742,0.37957349419594,0.44065383076668,10.18322277069092,0.12294832617044,-0.50550973415375,2.54861617088318
241,1838027715,2.47546076774597,-2.18103289604187,59.98340606689453,0.40111410617828,0.44019371271133,10.10585975646973,0.11920865625143,-0.63199287652969,2.43079090118408
242,1838036048,2.47484350204468,-2.18225884437561,59.97962188720703,0.40944811701775,0.43413159251213,10.13132667541504,0.06288295239210,-0.69282662868500,2.66616010665894
243,1838044381,2.47422266006470,-2.18274307250977,59.97928619384766,0.40214332938194,0.44040516018867,10.13692855834961,0.04929459467530,-0.60874789953232,2.55779910087585
244,1838052714,2.47411251068115,-2.18238449096680,59.97499084472656,0.38582983613014,0.43816685676575,10.10977077484131,0.12029726803303,-0.50529199838638,2.60449385643005
245,1838061047,2.47328925132751,-2.18092417716980,59.97517395019531,0.40215340256691,0.45355257391930,10.16798591613770,0.02817566134036,-0.37129113078117,2.61006522178650
246,1838069380,2.47301292419434,-2.18008303642273,59.97116470336914,0.37517809867859,0.41738533973694,10.14850616455078,0.10222640633583,-0.44529062509537,2.64889597892761
247,1838077713,2.47286057472229,-2.18011736869812,59.97159576416016,0.41399666666985,0.43390697240829,10.12748718261719,0.11034612357616,-0.55071884393692,2.64743614196777
248,1838086046,2.47200131416321,-2.18056273460388,59.96644592285156,0.42109575867653,0.43702220916748,10.14014148712158,0.03039129078388,-0.59955239295959,2.59914064407349
249,1838094379,2.47291755676270,-2.18099927902222,59.96758651733398,0.43531021475792,0.42821919918060,10.10687637329102,0.24029992520809,-0.59617137908936,2.73161745071411
250,1838102712,2.47229313850403,-2.17909979820251,59.96419143676758,0.41188848018646,0.40717467665672,10.18618202209473,0.05622324347496,-0.31861546635628,2.52113223075867
251,1838111045,2.47268295288086,-2.17944717407227,59.96418380737305,0.39275208115578,0.43651565909386,10.15348529815674,0.17183308303356,-0.59158635139465,2.59445285797119
252,1838119378,2.47322988510132,-2.18049359321594,59.95874023437500,0.42922583222389,0.43697509169579,10.17102622985840,0.19608978927135,-0.67511439323425,2.47626900672913
253,1838127711,2.47211217880249,-2.17996263504028,59.95912933349609,0.40674197673798,0.45008420944214,10.12928676605225,-0.00790199171752,-0.48266187310219,2.63882994651794
254,1838136044,2.47217798233032,-2.17993569374084,59.95402908325195,0.38976314663887,0.42805993556976,10.16817188262939,0.14090391993523,-0.54101109504700,2.54387784004211
255,1838144377,2.47249364852905,-2.17938780784607,59.95446014404297,0.39504289627075,0.44223821163177,10.13501930236816,0.16462269425392,-0.48118907213211,2.64364528656006
256,1838152710,2.47301959991455,-2.17931652069092,59.94861221313477,0.39995530247688,0.45329627394676,10.18430519104004,0.19069799780846,-0.54044759273529,2.43345499038696
257,1838161043,2.47247767448425,-2.17902374267578,59.94968414306641,0.37578424811363,0.43525993824005,10.12809276580811,0.06557244062424,-0.50896757841110,2.72192192077637
258,1838169376,2.47240304946899,-2.17871785163879,59.94506835937500,0.37182506918907,0.41926100850105,10.14469814300537,0.12285868078470,-0.50728994607925,2.54245615005493
259,1838177709,2.47290158271790,-2.17860317230225,59.94497680664062,0.35854601860046,0.46125724911690,10.14663505554199,0.18584409356117,-0.53659260272980,2.58292651176453
260,1838186042,2.47250986099243,-2.17791652679443,59.94008255004883,0.40550464391708,0.45685523748398,10.16761589050293,0.08170940726995,-0.46598693728447,2.49031829833984
261,1838194375,2.47106695175171,-2.17866349220276,59.94149398803711,0.37391167879105,0.41206547617912,10.15013694763184,-0.04176400974393,-0.62984120845795,2.76779747009277
262,1838202708,2.47147321701050,-2.17726135253906,59.93706893920898,0.37766152620316,0.42807453870773,10.11518573760986,0.17976069450378,-0.38064032793045,2.50225448608398
263,1838211041,2.47118163108826,-2.17708158493042,59.93747711181641,0.36686438322067,0.44446149468422,10.18676471710205,0.09195509552956,-0.52361887693405,2.64305591583252
264,1838219374,2.47088527679443,-2.17696952819824,59.93255615234375,0.35830840468407,0.43227824568748,10.14302444458008,0.09528494626284,-0.53386467695236,2.54459500312805
265,1838227707,2.47140240669250,-2.17627215385437,59.93225479125977,0.34949675202370,0.42422384023666,10.15788078308105,0.18583127856255,-0.46621745824814,2.55332946777344
266,1838236040,2.47103619575500,-2.17608571052551,59.92949295043945,0.39549019932747,0.45457822084427,10.14393424987793,0.09469582885504,-0.51859867572784,2.72520112991333
267,1838244373,2.47048187255859,-2.17520427703857,59.92931747436523,0.36661890149117,0.39737731218338,10.23085021972656,0.05904081091285,-0.44495773315430,2.56785249710083
268,1838252706,2.46921491622925,-2.17451977729797,59.92589569091797,0.44447702169418,0.36700233817101,10.19078636169434,-0.02086279541254,-0.46547472476959,2.56549644470215
269,1838261039,2.46698260307312,-2.17183017730713,59.92562866210938,0.23816861212254,0.46220421791077,9.95134353637695,-0.14338849484921,-0.22773617506027,2.54820656776428
270,1838269372,2.47677063941956,-2.17528247833252,59.92397689819336,0.49241736531258,0.58681571483612,10.41595077514648,1.31529104709625,-0.95607697963715,2.77712106704712
271,1838277705,2.46689796447754,-2.17550992965698,59.92238235473633,0.39179739356041,0.34173724055290,10.12969970703125,-1.06619238853455,-0.58369714021683,2.40659809112549
272,1838286038,2.47295022010803,-2.17516374588013,59.91983795166016,0.29065203666687,0.38264265656471,10.06401252746582,0.86556899547577,-0.49983623623848,2.71683788299561
273,1838294371,2.47337341308594,-2.17628073692322,59.91864013671875,0.39773306250572,0.50419855117798,9.95122718811035,0.16991204023361,-0.68897169828415,2.45741724967957
274,1838302704,2.47054266929626,-2.17559552192688,59.91666030883789,0.53670173883438,0.47872969508171,10.30537319183350,-0.19530853629112,-0.45196318626404,2.89426779747009
275,1838311037,2.46660304069519,-2.17446041107178,59.91500854492188,0.33322584629059,0.34584823250771,10.11995601654053,-0.35529506206512,-0.42181524634361,2.39039731025696
276,1838319370,2.47135877609253,-2.17381024360657,59.91305541992188,0.44124859571457,0.41557872295380,10.14106845855713,0.71033394336700,-0.46096652746201,2.73816180229187
277,1838327703,2.47218346595764,-2.17405343055725,59.91099166870117,0.52862071990967,0.52388375997543,10.27600193023682,0.21490341424942,-0.58832055330276,2.34838986396790
278,1838336036,2.47080039978027,-2.17680287361145,59.90953826904297,0.36520832777023,0.42044201493263,10.06943798065186,-0.02337298914790,-0.85993385314941,2.88536667823792
279,1838344369,2.46860861778259,-2.17673921585083,59.90737152099609,0.38962230086327,0.37371000647545,10.10385799407959,-0.14614200592041,-0.55269110202789,2.33599281311035
280,1838352702,2.47137641906738,-2.17452836036682,59.90332794189453,0.42575880885124,0.45540952682495,10.22359085083008,0.46858683228493,-0.27290686964989,2.66493058204651
281,1838361035,2.46977472305298,-2.17429566383362,59.90156555175781,0.41395419836044,0.53359031677246,10.10631084442139,-0.07383303344250,-0.53009939193726,2.38278961181641
282,1838369368,2.46891975402832,-2.17358803749084,59.89924240112305,0.37660813331604,0.40536275506020,10.17359256744385,0.03042971342802,-0.45289811491966,2.66710805892944
283,1838377701,2.46944046020508,-2.17490029335022,59.89904022216797,0.41490715742111,0.40869703888893,10.17818832397461,0.18795725703239,-0.70796471834183,2.57735562324524
284,1838386034,2.46826338768005,-2.17544865608215,59.89694213867188,0.41016629338264,0.41944146156311,10.02986621856689,-0.00797883328050,-0.60530281066895,2.61216497421265
285,1838394367,2.46925973892212,-2.17422604560852,59.89658737182617,0.41725987195969,0.44725352525711,10.16511726379395,0.24359136819839,-0.40412861108780,2.54641366004944
286,1838402700,2.47129535675049,-2.17310142517090,59.89377212524414,0.40834197402000,0.39920482039452,10.21677303314209,0.37294328212738,-0.40797069668770,2.53511786460876
287,1838411033,2.47029471397400,-2.17343497276306,59.89356231689453,0.39535057544708,0.46819710731506,10.08490753173828,0.00548144662753,-0.58960127830505,2.57271981239319
288,1838419366,2.47041606903076,-2.17366671562195,59.88997650146484,0.34871366620064,0.39985552430153,10.10457706451416,0.14653904736042,-0.56777793169022,2.59728360176086
289,1838427699,2.46919655799866,-2.17378377914429,59.89112854003906,0.37253865599632,0.44020292162895,10.18260478973389,-0.01547099929303,-0.55680227279663,2.73379445075989
290,1838436032,2.47101664543152,-2.17440915107727,59.88648605346680,0.41156181693077,0.47445178031921,10.14307022094727,0.34750831127167,-0.62031275033951,2.48184013366699
291,1838444365,2.46960496902466,-2.17346143722534,59.88779067993164,0.40591698884964,0.47908955812454,10.15597724914551,-0.03770415484905,-0.42903846502304,2.74696040153503
292,1838452698,2.46783518791199,-2.17212128639221,59.88389587402344,0.31745514273643,0.40185475349426,10.09610366821289,-0.08569242805243,-0.38266387581825,2.49618411064148
293,1838461031,2.46991515159607,-2.17161083221436,59.88496780395508,0.34574836492538,0.40828785300255,10.14119815826416,0.38098612427711,-0.48217514157295,2.72087216377258
294,1838469364,2.47040343284607,-2.17242670059204,59.88047409057617,0.42194882035255,0.49793726205826,10.16280651092529,0.18406388163567,-0.64761739969254,2.40676474571228
295,1838477697,2.46895241737366,-2.17176866531372,59.88213348388672,0.41152837872505,0.44937539100647,10.15040493011475,-0.04227629676461,-0.46140205860138,2.78992819786072
296,1838486030,2.46872830390930,-2.17155742645264,59.87675094604492,0.33737951517105,0.35462850332260,10.15806102752686,0.09966499358416,-0.52290183305740,2.45345973968506
297,1838494363,2.46944999694824,-2.17278981208801,59.87840270996094,0.40646609663963,0.42058324813843,10.15062427520752,0.21933470666409,-0.68644869327545,2.80063509941101
298,1838502696,2.46987032890320,-2.17286157608032,59.87255859375000,0.44718769192696,0.50835740566254,10.14741516113281,0.17576488852501,-0.56022179126740,2.39854264259338
299,1838511029,2.46819496154785,-2.17056250572205,59.87387084960938,0.33824211359024,0.40656539797783,10.13581848144531,-0.06933774054050,-0.26610630750656,2.74058246612549
300,1838519362,2.46947145462036,-2.17003750801086,59.86977767944336,0.34338811039925,0.40982377529144,10.15033054351807,0.27895185351372,-0.48564589023590,2.43979430198669
301,1838527695,2.47134423255920,-2.17224574089050,59.87057876586914,0.39808684587479,0.46509915590286,10.20369148254395,0.35391187667847,-0.80786013603210,2.70255804061890
302,1838536028,2.47134041786194,-2.17459702491760,59.86562347412109,0.43730843067169,0.48988729715347,10.12200641632080,0.12727713584900,-0.82806974649429,2.52807378768921
303,1838544361,2.46908044815063,-2.17348217964172,59.86695861816406,0.33820223808289,0.37778329849243,10.10107517242432,-0.13797108829021,-0.40809881687164,2.74856114387512
304,1838552694,2.47127032279968,-2.17191195487976,59.86328887939453,0.35777163505554,0.41473424434662,10.16637611389160,0.39324253797531,-0.35575610399246,2.56456112861633
305,1838561027,2.47139334678650,-2.17139101028442,59.86341094970703,0.38867145776749,0.47040179371834,10.15254402160645,0.13984091579914,-0.48536419868469,2.60585141181946
306,1838569360,2.47065687179565,-2.17143106460571,59.86015319824219,0.40221738815308,0.46174782514572,10.18336868286133,0.04737352579832,-0.54371333122253,2.71225285530090
307,1838577693,2.47078943252563,-2.17313051223755,59.85984802246094,0.40616220235825,0.39312073588371,10.17804527282715,0.14004583656788,-0.75321221351624,2.56561160087585
308,1838586026,2.46956729888916,-2.17376613616943,59.85789871215820,0.44080007076263,0.44384512305260,10.09451389312744,-0.00881129782647,-0.61259001493454,2.73786711692810
309,1838594359,2.47019290924072,-2.17383265495300,59.85666275024414,0.41617804765701,0.41364550590515,10.09342098236084,0.19411750137806,-0.56302654743195,2.44455862045288
310,1838602692,2.47020864486694,-2.17329621315002,59.85561752319336,0.43675857782364,0.43960335850716,10.16971206665039,0.13946951925755,-0.47021332383156,2.75542569160461
311,1838611025,2.47086238861084,-2.17414569854736,59.85443878173828,0.43598446249962,0.45644772052765,10.16414451599121,0.20017525553703,-0.65701794624329,2.45796751976013
312,1838619358,2.47008061408997,-2.17362594604492,59.85239410400391,0.38743352890015,0.44344955682755,10.09030437469482,0.04205857217312,-0.47105857729912,2.71400737762451
313,1838627691,2.46888875961304,-2.17340874671936,59.85232162475586,0.34857791662216,0.37304955720901,10.16668987274170,-0.01858312822878,-0.52367025613785,2.58521914482117
314,1838636024,2.47067666053772,-2.17459511756897,59.84986114501953,0.39897343516350,0.41866502165794,10.15237331390381,0.34930130839348,-0.68019878864288,2.67791724205017
315,1838644357,2.47128963470459,-2.17496466636658,59.84826278686523,0.43893557786942,0.48419976234436,10.13089084625244,0.19291362166405,-0.60093557834625,2.40542030334473
316,1838652690,2.47042322158813,-2.17522406578064,59.84578323364258,0.42098388075829,0.43894731998444,10.18464756011963,0.03122375346720,-0.56565195322037,2.69484829902649
317,1838661023,2.46959781646729,-2.17494106292725,59.84531784057617,0.38917648792267,0.37733837962151,10.05932426452637,0.02392369508743,-0.51806068420410,2.53880620002747
318,1838669356,2.47226428985596,-2.17502474784851,59.84313201904297,0.39680030941963,0.43840485811234,10.17609119415283,0.45342323184013,-0.54731214046478,2.61224222183228
319,1838677689,2.47228860855103,-2.17346906661987,59.84218215942383,0.44042846560478,0.52006584405899,10.15627098083496,0.12422904372215,-0.36829426884651,2.47469377517700
320,1838686022,2.47009992599487,-2.17381286621094,59.83958053588867,0.39577656984329,0.39795750379562,10.12130641937256,-0.13134980201721,-0.57719117403030,2.62813591957092
321,1838694355,2.47065138816833,-2.17495155334473,59.83980560302734,0.36127042770386,0.37823402881622,10.12411594390869,0.19387412071228,-0.68425858020782,2.62755918502808
322,1838702688,2.47211074829102,-2.17620062828064,59.83639907836914,0.39672869443893,0.45738300681114,10.14297866821289,0.30378484725952,-0.69136667251587,2.52272057533264
323,1838711021,2.47213792800903,-2.17491412162781,59.83721923828125,0.41114041209221,0.50396680831909,10.15336990356445,0.13227191567421,-0.39119341969490,2.68670248985291
324,1838719354,2.47079992294312,-2.17496132850647,59.83490371704102,0.30875504016876,0.38755905628204,10.14922428131104,-0.02670283429325,-0.54067796468735,2.66954112052917
325,1838727687,2.47134876251221,-2.17507171630859,59.83578491210938,0.33178773522377,0.40672618150711,10.12472724914551,0.19617941975594,-0.55609786510468,2.70117497444153
326,1838736020,2.47201991081238,-2.17572283744812,59.83053207397461,0.39141941070557,0.47526195645332,10.12832450866699,0.20360754430294,-0.62986683845520,2.36626863479614
327,1838744353,2.47041773796082,-2.17585420608521,59.83139419555664,0.40943509340286,0.44913995265961,10.12978172302246,-0.06360013782978,-0.55959415435791,2.69813942909241
328,1838752686,2.47005414962769,-2.17561340332031,59.82801818847656,0.39340221881866,0.41427850723267,10.13951206207275,0.08667857199907,-0.51365506649017,2.53834509849548
329,1838761019,2.47196364402771,-2.17446041107178,59.82868576049805,0.38962382078171,0.44297653436661,10.17794227600098,0.35790774226189,-0.40717670321465,2.66751790046692
330,1838769352,2.47135162353516,-2.17419576644897,59.82431793212891,0.39627012610435,0.46441969275475,10.15384006500244,0.05286778509617,-0.51337337493896,2.46657419204712
331,1838777685,2.47064781188965,-2.17348670959473,59.82571792602539,0.37633720040321,0.42836168408394,10.17100334167480,0.04720703139901,-0.45627921819687,2.75893473625183
332,1838786018,2.47089552879333,-2.17505192756653,59.82211685180664,0.39371427893639,0.40563651919365,10.13033008575439,0.15855211019516,-0.73006963729858,2.55791425704956
333,1838794351,2.47019171714783,-2.17415308952332,59.82309341430664,0.36399191617966,0.43736118078232,10.14014720916748,0.04620807990432,-0.43660742044449,2.70801401138306
334,1838802684,2.46816349029541,-2.17423558235168,59.82027435302734,0.36290526390076,0.41552668809891,10.16958045959473,-0.11432913690805,-0.55169212818146,2.55614709854126
335,1838811017,2.46873259544373,-2.17279148101807,59.82061386108398,0.35086604952812,0.42057701945305,10.14606666564941,0.19535978138447,-0.37418559193611,2.62707304954529
336,1838819350,2.46882915496826,-2.17093777656555,59.81732177734375,0.43115162849426,0.46754562854767,10.13266181945801,0.14162111282349,-0.32175320386887,2.53232574462891
337,1838827683,2.46805191040039,-2.16964149475098,59.81754684448242,0.38699588179588,0.42926785349846,10.16149806976318,0.03473290801048,-0.39180815219879,2.61618709564209
338,1838836016,2.46734404563904,-2.16931462287903,59.81483459472656,0.37144356966019,0.40534350275993,10.14920616149902,0.04531157761812,-0.50266653299332,2.59341549873352
339,1838844349,2.46872782707214,-2.17003917694092,59.81434249877930,0.41390234231949,0.42587086558342,10.14978218078613,0.29043981432915,-0.63865256309509,2.53960037231445
340,1838852682,2.46756315231323,-2.16998815536499,59.81187820434570,0.45948192477226,0.44584935903549,10.13008499145508,-0.00723602203652,-0.53360861539841,2.62059259414673
341,1838861015,2.46771025657654,-2.16939854621887,59.81052780151367,0.40208205580711,0.47110509872437,10.03447055816650,0.13629335165024,-0.48445481061935,2.42953586578369
342,1838869348,2.46738362312317,-2.17050099372864,59.80797195434570,0.40215164422989,0.38409531116486,10.22168254852295,0.09659127891064,-0.66836506128311,2.68867516517639
343,1838877681,2.46915125846863,-2.17039299011230,59.80682373046875,0.42658644914627,0.45604774355888,10.11808013916016,0.33178117871284,-0.54152339696884,2.45668697357178
344,1838886014,2.46710538864136,-2.16959810256958,59.80593109130859,0.43110054731369,0.46913996338844,10.18933200836182,-0.10941121727228,-0.43770888447762,2.73521637916565
345,1838894347,2.46554970741272,-2.17044472694397,59.80400848388672,0.37053918838501,0.39869341254234,10.10158061981201,-0.06832597404718,-0.66009169816971,2.36900949478149
346,1838902680,2.46604585647583,-2.17017149925232,59.80155944824219,0.38940727710724,0.39847597479820,10.14867305755615,0.18905864655972,-0.50899320840836,2.55555772781372
347,1838911013,2.46740722656250,-2.17075777053833,59.80050659179688,0.40528628230095,0.49644571542740,10.14777088165283,0.28378012776375,-0.62397563457489,2.47082614898682
348,1838919346,2.46680355072021,-2.17030549049377,59.79886627197266,0.42187711596489,0.43761363625526,10.19700908660889,0.06587980687618,-0.47710356116295,2.75937008857727
349,1838927679,2.46514177322388,-2.17057299613953,59.79803466796875,0.36355710029602,0.37491041421890,10.16045856475830,-0.07808499783278,-0.58501631021500,2.49556922912598
350,1838936012,2.46601533889771,-2.17158722877502,59.79603958129883,0.37532311677933,0.41758799552917,10.14161109924316,0.23810991644859,-0.65822184085846,2.66229224205017
351,1838944345,2.46635007858276,-2.17312788963318,59.79559707641602,0.44090026617050,0.49063771963120,10.17421531677246,0.16395670175552,-0.73580729961395,2.54856491088867
352,1838952678,2.46389889717102,-2.17164611816406,59.79351043701172,0.38453614711761,0.40900930762291,10.10290718078613,-0.15879546105862,-0.35710087418556,2.67358827590942
353,1838961011,2.46675634384155,-2.17112398147583,59.79251480102539,0.37851983308792,0.41822034120560,10.21109580993652,0.46355363726616,-0.49176770448685,2.47293925285339
354,1838969344,2.46576023101807,-2.17229771614075,59.78844451904297,0.38525876402855,0.42969414591789,10.09725761413574,0.00631390931085,-0.68602609634399,2.44396948814392
355,1838977677,2.46711015701294,-2.17311906814575,59.78933334350586,0.39519706368446,0.48614192008972,10.13884735107422,0.29238653182983,-0.64221292734146,2.70599031448364
356,1838986010,2.46546244621277,-2.17339515686035,59.78601837158203,0.34807625412941,0.40764555335045,10.12039661407471,-0.06846684962511,-0.57378453016281,2.54332709312439
357,1838994343,2.46564626693726,-2.17231512069702,59.78601074218750,0.35183164477348,0.43160116672516,10.16964244842529,0.14652623236179,-0.41904890537262,2.58909988403320
358,1839002676,2.46602249145508,-2.17230105400085,59.78295135498047,0.36874043941498,0.44236966967583,10.16176223754883,0.17504769563675,-0.54124164581299,2.52502584457397
359,1839011009,2.46530818939209,-2.17205667495728,59.78281021118164,0.37246561050415,0.45828521251678,10.11760520935059,0.03921539336443,-0.52021229267120,2.57786798477173
360,1839019342,2.46469163894653,-2.17316961288452,59.77934646606445,0.37177976965904,0.41250821948051,10.14897251129150,0.05117724835873,-0.68081361055374,2.46321868896484
361,1839027675,2.46408748626709,-2.17373323440552,59.77978897094727,0.39345031976700,0.43923658132553,10.15737342834473,0.05527552589774,-0.61311513185501,2.65199589729309
362,1839036008,2.46379613876343,-2.17532634735107,59.77798080444336,0.42064684629440,0.45936989784241,10.12898540496826,0.09528494626284,-0.73281049728394,2.58281135559082
363,1839044341,2.46204733848572,-2.17383027076721,59.77871704101562,0.39010244607925,0.43042552471161,10.13550853729248,-0.08000607043505,-0.36534866690636,2.67620086669922
364,1839052674,2.46164155006409,-2.17397642135620,59.77638244628906,0.35376244783401,0.43570962548256,10.16587829589844,0.07825148105621,-0.56095170974731,2.51516413688660
365,1839061007,2.46125459671021,-2.17504596710205,59.77655410766602,0.36309212446213,0.44194495677948,10.16740036010742,0.07989080250263,-0.67745810747147,2.61910700798035
366,1839069340,2.46012926101685,-2.17536115646362,59.77347946166992,0.38274359703064,0.44646704196930,10.14479923248291,-0.00695426436141,-0.58130222558975,2.51654720306396
367,1839077673,2.45976567268372,-2.17523765563965,59.77442169189453,0.39012965559959,0.41755920648575,10.12455654144287,0.08657611161470,-0.52974075078964,2.70570850372314
368,1839086006,2.45933699607849,-2.17600107192993,59.77203750610352,0.40979135036469,0.43917685747147,10.15134143829346,0.07976271957159,-0.63145494461060,2.61744165420532
369,1839094339,2.45841336250305,-2.17555499076843,59.77220916748047,0.41712099313736,0.45671910047531,10.15470027923584,0.01531731337309,-0.49544334411621,2.61306190490723
370,1839102672,2.45806789398193,-2.17549324035645,59.77027511596680,0.40959423780441,0.45038369297981,10.14945507049561,0.09082807600498,-0.53020185232162,2.66137051582336
371,1839111005,2.45785474777222,-2.17560982704163,59.77154541015625,0.39161622524261,0.43278318643570,10.15738868713379,0.10674732178450,-0.55572646856308,2.74834322929382
372,1839119338,2.45761871337891,-2.17566847801208,59.76960754394531,0.41717901825905,0.46077665686607,10.16380977630615,0.10458292067051,-0.54436653852463,2.65801477432251
373,1839127671,2.45700216293335,-2.17513036727905,59.76995468139648,0.41860553622246,0.41433891654015,10.15480041503906,0.05266286432743,-0.48322531580925,2.63229799270630
374,1839136004,2.45672035217285,-2.17597007751465,59.76727676391602,0.40844976902008,0.42343613505363,10.17154693603516,0.09467021375895,-0.64098340272903,2.56815981864929
375,1839144337,2.45840597152710,-2.17609858512878,59.76673126220703,0.41935509443283,0.44774541258812,10.13629245758057,0.32619729638100,-0.56731688976288,2.52991843223572
376,1839152670,2.45738601684570,-2.17516183853149,59.76561737060547,0.44021764397621,0.44500708580017,10.13747024536133,0.01308887265623,-0.42075222730637,2.75773096084595
377,1839161003,2.45640301704407,-2.17476201057434,59.76495361328125,0.37750181555748,0.44159629940987,10.19253826141357,0.00504600396380,-0.50320440530777,2.51162934303284
378,1839169336,2.45720100402832,-2.17473196983337,59.76345062255859,0.36086979508400,0.41028419137001,10.13089847564697,0.22650666534901,-0.53524786233902,2.63332247734070
379,1839177669,2.45806980133057,-2.17505192756653,59.76198577880859,0.38768708705902,0.46570795774460,10.10415554046631,0.22384278476238,-0.59495466947556,2.41829133033752
380,1839186002,2.45829749107361,-2.17506241798401,59.75891876220703,0.40275144577026,0.45534563064575,10.19350719451904,0.15909002721310,-0.53852653503418,2.64431118965149
381,1839194335,2.45811128616333,-2.17492794990540,59.75753021240234,0.37615141272545,0.39637932181358,10.17809295654297,0.09648881852627,-0.53965342044830,2.42833161354065
382,1839202668,2.46731328964233,-2.17769455909729,59.75366973876953,0.38736602663994,0.45997714996338,10.14811420440674,1.22735738754272,-0.87865793704987,2.42367029190063
383,1839211001,2.46687984466553,-2.17588639259338,59.75585556030273,0.48829552531242,0.53991490602493,10.85170364379883,0.08287487179041,-0.31999865174294,2.84703516960144
384,1839219334,2.46459770202637,-2.17476105690002,59.75184249877930,-0.18829391896725,0.44850173592567,9.60549926757812,-0.15372382104397,-0.41452795267105,2.34477806091309
385,1839227667,2.47031116485596,-2.17568111419678,59.75402832031250,-0.21290263533592,0.34418919682503,10.24435424804688,0.82011663913727,-0.64877015352249,2.86154556274414
386,1839236000,2.46722912788391,-2.17626523971558,59.75024795532227,-0.11045882105827,0.61387765407562,9.77453136444092,-0.24524348974228,-0.62761270999908,2.43745040893555
387,1839244333,2.45965313911438,-2.17385983467102,59.75363922119141,0.04766106978059,0.50793242454529,10.33441066741943,-0.76887536048889,-0.24337367713451,2.98846411705017
388,1839252666,2.45590209960938,-2.17260003089905,59.75163650512695,0.18597321212292,0.27579963207245,10.15527820587158,-0.32767009735107,-0.41434869170189,2.47092843055725
389,1839260999,2.45861244201660,-2.17721176147461,59.75254440307617,0.52985894680023,0.44345512986183,9.99157714843750,0.45416596531868,-1.09792852401733,2.72745513916016
390,1839269332,2.45782780647278,-2.17854833602905,59.74706649780273,0.76042705774307,0.47290891408920,10.07568931579590,0.02195139974356,-0.73524385690689,2.27267432212830
391,1839277665,2.45749926567078,-2.17609477043152,59.74976348876953,0.74072587490082,0.34783270955086,10.25273704528809,0.09843550622463,-0.24060732126236,2.90439796447754
392,1839285998,2.45841741561890,-2.17332339286804,59.74440383911133,0.48915308713913,0.34782615303993,9.95478820800781,0.22371472418308,-0.23768727481365,2.18066787719727
393,1839294331,2.46505761146545,-2.16968727111816,59.74707412719727,0.33027821779251,0.57916432619095,10.44240665435791,0.93436890840530,-0.09784638136625,2.89570236206055
394,1839302664,2.46243500709534,-2.16934347152710,59.74319458007812,-0.08841585367918,0.64122468233109,10.06525707244873,-0.19690942764282,-0.52443867921829,2.31995820999146
395,1839310997,2.45555877685547,-2.16957855224609,59.74679183959961,-0.45253598690033,0.30368408560753,10.09873676300049,-0.68306761980057,-0.55755782127380,3.02983093261719
396,1839319330,2.45664095878601,-2.16932225227356,59.74385833740234,-0.28652641177177,0.52596223354340,10.03015422821045,0.25117319822311,-0.54152339696884,2.45599532127380
397,1839327663,2.45410656929016,-2.16703772544861,59.74457931518555,0.00168271386065,0.58772617578506,10.20749855041504,-0.17534226179123,-0.27001246809959,2.67069411277771
398,1839335996,2.44842982292175,-2.16561222076416,59.74245071411133,0.32435590028763,0.34672954678535,10.35946655273438,-0.56140005588531,-0.41245323419571,2.44387984275818
399,1839344329,2.45529508590698,-2.17304563522339,59.74251174926758,0.79707264900208,0.33066576719284,10.21047687530518,0.95018571615219,-1.43960964679718,2.64041805267334
400,1839352662,2.45540547370911,-2.17870426177979,59.74098968505859,1.28978264331818,0.46681174635887,10.01418209075928,0.13613966107368,-1.25267696380615,2.56408739089966
401,1839360995,2.45139932632446,-2.17537999153137,59.74108505249023,1.20305359363556,0.26551374793053,10.08011054992676,-0.35446256399155,-0.14947187900543,2.58788323402405
402,1839369328,2.45500993728638,-2.17310333251953,59.74018096923828,0.91714537143707,0.26640039682388,10.04912757873535,0.56405115127563,-0.27900305390358,2.65079164505005
403,1839377661,2.45964646339417,-2.17073512077332,59.74022293090820,0.62151473760605,0.53546768426895,10.26820468902588,0.68244004249573,-0.26535066962242,2.58639764785767
404,1839385994,2.45840716362000,-2.17046833038330,59.73912429809570,0.14352379739285,0.56071305274963,10.13533115386963,-0.02060665190220,-0.51521754264832,2.60527515411377
405,1839394327,2.45623707771301,-2.17105960845947,59.73932647705078,-0.29904329776764,0.40296688675880,10.07920551300049,-0.13356541097164,-0.61826348304749,2.62233400344849
406,1839402660,2.45663881301880,-2.16965603828430,59.73773574829102,-0.31455475091934,0.49482738971710,10.10132503509521,0.17394627630711,-0.38916984200478,2.53926706314087
407,1839410993,2.45882129669189,-2.16895914077759,59.73669815063477,0.01987995952368,0.59222555160522,10.37200069427490,0.38347071409225,-0.47151964902878,2.46872568130493
408,1839419326,2.45446252822876,-2.17249655723572,59.73716354370117,0.49550130963326,0.53965139389038,10.14582538604736,-0.39088606834412,-0.98221629858017,2.80565547943115
409,1839427659,2.45029830932617,-2.17825841903687,59.73731231689453,0.89612728357315,0.28850156068802,10.10248851776123,-0.37249499559402,-1.23917818069458,2.64349150657654
410,1839435992,2.45304179191589,-2.18210959434509,59.73619842529297,1.27375972270966,0.24842913448811,10.00752162933350,0.45508813858032,-1.02120125293732,2.62748265266418
411,1839444325,2.45652818679810,-2.17871928215027,59.73609161376953,1.48442900180817,0.42076656222343,10.13512325286865,0.54286807775497,-0.14191566407681,2.56529140472412
412,1839452658,2.45261263847351,-2.17501544952393,59.73691177368164,1.28267204761505,0.35110083222389,10.19166374206543,-0.33540561795235,-0.09194228798151,2.72448372840881
413,1839460991,2.45548558235168,-2.17661070823669,59.73629379272461,0.73946493864059,0.27114853262901,10.11498165130615,0.46687063574791,-0.74309462308884,2.52935457229614
414,1839469324,2.45943045616150,-2.17745733261108,59.73553085327148,0.19792947173119,0.47607246041298,10.05527973175049,0.60372757911682,-0.63030230998993,2.60732412338257
415,1839477657,2.45826339721680,-2.17262411117554,59.73566055297852,-0.29231807589531,0.55984801054001,10.17770862579346,-0.01351150963455,0.03206902369857,2.58719158172607
416,1839485990,2.45758080482483,-2.16751241683960,59.73548889160156,-0.59129536151886,0.50310051441193,10.27419662475586,0.05122846737504,0.07991641014814,2.68959712982178
417,1839494323,2.46014070510864,-2.16961717605591,59.73510742187500,-0.40945398807526,0.54982650279999,10.20006656646729,0.43103632330894,-0.80281406641006,2.55991220474243
418,1839502656,2.45729279518127,-2.17576551437378,59.73360443115234,0.06941329687834,0.53786253929138,10.13999462127686,-0.21299518644810,-1.29048359394073,2.66964364051819
419,1839510989,2.45368242263794,-2.18112325668335,59.73309326171875,0.52804493904114,0.37052568793297,10.07754325866699,-0.31061097979546,-1.19261157512665,2.55914354324341
420,1839519322,2.45613360404968,-2.18005895614624,59.73138427734375,0.84351497888565,0.36920690536499,10.03556537628174,0.42022716999054,-0.43046006560326,2.57356476783752
421,1839527655,2.45677351951599,-2.17678928375244,59.73144531250000,0.95773822069168,0.48272773623466,10.21795654296875,0.20232683420181,-0.15628524124622,2.58447647094727
422,1839535988,2.45091390609741,-2.17610549926758,59.73084640502930,0.86322444677353,0.29266604781151,10.12864208221436,-0.57479625940323,-0.46191433072090,2.63509011268616
423,1839544321,2.45606565475464,-2.17928409576416,59.73007202148438,0.73363572359085,0.27229809761047,10.09469604492188,0.74050748348236,-0.93383091688156,2.51910877227783
424,1839552654,2.46103501319885,-2.17973971366882,59.72787475585938,0.55015879869461,0.54653400182724,10.11615467071533,0.72388386726379,-0.59679889678955,2.54938483238220
425,1839560987,2.45454597473145,-2.17478036880493,59.72908401489258,0.06156634539366,0.51186728477478,10.14421558380127,-0.64838594198227,0.05312392115593,2.71354651451111
426,1839569320,2.45268821716309,-2.17103552818298,59.72739410400391,-0.37639012932777,0.29824402928352,10.24471282958984,-0.09534899145365,-0.09281317889690,2.55991220474243
427,1839577653,2.45868706703186,-2.17336249351501,59.72595977783203,-0.28297734260559,0.56169438362122,10.22559833526611,0.83878928422928,-0.83572834730148,2.43491435050964
428,1839585986,2.45623326301575,-2.17684674263000,59.72405624389648,0.00263823266141,0.67652267217636,10.16385269165039,-0.16855446994305,-0.97163766622543,2.56959438323975
429,1839594319,2.45087242126465,-2.17662167549133,59.72500610351562,0.09447558969259,0.36690846085548,10.06691169738770,-0.51380878686905,-0.51672881841660,2.70873117446899
430,1839602652,2.45328354835510,-2.17678570747375,59.72377395629883,0.35207748413086,0.31357881426811,10.11680507659912,0.41720467805862,-0.57879209518433,2.61559772491455
431,1839610985,2.45589733123779,-2.17803812026978,59.72305679321289,0.84678983688354,0.50604975223541,10.20476341247559,0.43651777505875,-0.70253443717957,2.51378083229065
432,1839619318,2.44951033592224,-2.18057274818420,59.72334671020508,1.13783311843872,0.42751422524452,10.19298934936523,-0.63327354192734,-0.84999555349350,2.81103420257568
433,1839627651,2.44459486007690,-2.18178915977478,59.72314834594727,1.14028656482697,0.19598618149757,10.00522136688232,-0.46496242284775,-0.69536250829697,2.57722783088684
434,1839635984,2.44960927963257,-2.18047976493835,59.72135925292969,1.05592536926270,0.30041471123695,10.14690780639648,0.72767478227615,-0.38809409737587,2.52394986152649
435,1839644317,2.45267558097839,-2.17794036865234,59.71993637084961,0.80962592363358,0.50249552726746,10.19494628906250,0.48695224523544,-0.25174948573112,2.41252803802490
436,1839652650,2.44966912269592,-2.17369747161865,59.72029876708984,0.27871978282928,0.44853779673576,10.19023227691650,-0.22796671092510,-0.02174648456275,2.67594480514526
437,1839660983,2.45001697540283,-2.17358040809631,59.72061157226562,-0.11107221990824,0.38151073455811,10.13661575317383,0.16960467398167,-0.53221261501312,2.63313055038452
438,1839669316,2.45410609245300,-2.17636036872864,59.71981430053711,-0.07588197290897,0.50983738899231,10.12378501892090,0.62197768688202,-0.87108886241913,2.64957475662231
439,1839677649,2.45250797271729,-2.17627501487732,59.71996307373047,0.10496809333563,0.57700103521347,10.15185070037842,-0.06639209389687,-0.53713053464890,2.61274170875549
440,1839685982,2.44929218292236,-2.17513298988342,59.71937179565430,0.29818004369736,0.40851822495461,10.14209365844727,-0.25600150227547,-0.40599843859673,2.61895346641541
441,1839694315,2.45058655738831,-2.17766380310059,59.71831130981445,0.66394174098969,0.39040464162827,10.08325099945068,0.27609586715698,-0.85778236389160,2.48132801055908
442,1839702648,2.45111131668091,-2.18022179603577,59.71749877929688,1.02711451053619,0.42814335227013,10.14689064025879,0.18905866146088,-0.85340231657028,2.56188464164734
443,1839710981,2.44792008399963,-2.18092012405396,59.71849060058594,1.06741166114807,0.34070539474487,10.09447669982910,-0.25295338034630,-0.62617838382721,2.71703004837036
444,1839719314,2.44856142997742,-2.17920398712158,59.71807098388672,0.91145795583725,0.27158781886101,10.03810787200928,0.20819249749184,-0.32316198945045,2.68293762207031
445,1839727647,2.45263218879700,-2.17789745330811,59.71895980834961,0.80272305011749,0.41657802462578,10.18608379364014,0.61919850111008,-0.38770982623100,2.69233775138855
446,1839735980,2.45193409919739,-2.17682290077209,59.71809387207031,0.55019873380661,0.45081430673599,10.16574192047119,0.04497859999537,-0.39854472875595,2.56452298164368
447,1839744313,2.45129156112671,-2.17469930648804,59.71898269653320,0.14933598041534,0.37661206722260,10.16052341461182,0.05335445702076,-0.28850591182709,2.69067311286926
448,1839752646,2.45550727844238,-2.17366600036621,59.71741104125977,-0.09504932165146,0.46215492486954,10.17634868621826,0.63213372230530,-0.40628024935722,2.49316167831421
449,1839760979,2.45390915870667,-2.17220497131348,59.71778488159180,-0.21778842806816,0.55531436204910,10.07043743133545,-0.06345926225185,-0.37241813540459,2.63396286964417
450,1839769312,2.45372176170349,-2.17008996009827,59.71585845947266,-0.25357836484909,0.51059949398041,10.15080070495605,0.10296922177076,-0.28522729873657,2.50394511222839
451,1839777645,2.45151472091675,-2.17159605026245,59.71653747558594,0.01876674406230,0.48716843128204,10.26559162139893,-0.13571703433990,-0.72474205493927,2.68447446823120
452,1839785978,2.45430612564087,-2.17474174499512,59.71475219726562,0.46480438113213,0.50090825557709,10.25465869903564,0.45962178707123,-0.92489159107208,2.52479529380798
453,1839794311,2.45158815383911,-2.17622590065002,59.71499252319336,0.76774442195892,0.45037978887558,10.09163379669189,-0.19931715726852,-0.72594583034515,2.62983918190002
454,1839802644,2.45022058486938,-2.17570233345032,59.71300506591797,0.85151743888855,0.31414207816124,10.05069351196289,-0.03730713203549,-0.47692421078682,2.56833910942078
455,1839810977,2.45210576057434,-2.17401981353760,59.71506118774414,0.83799439668655,0.39199626445770,10.15340423583984,0.35988000035286,-0.33758282661438,2.83372855186462
456,1839819310,2.44972538948059,-2.17214512825012,59.71798324584961,0.68088853359222,0.51220649480820,10.29421138763428,-0.13822720944881,-0.28663608431816,3.07311892509460
457,1839827643,2.44261288642883,-2.17041301727295,59.71630477905273,0.14704062044621,0.19223257899284,10.09019947052002,-0.73401433229446,-0.34931412339211,2.38486480712891
458,1839835976,2.44857382774353,-2.17232489585876,59.71775817871094,0.10549837350845,0.39146485924721,10.09997177124023,0.85418355464935,-0.75139367580414,2.86262154579163
459,1839844309,2.44915866851807,-2.17145562171936,59.71704864501953,0.23360486328602,0.62558883428574,10.20952415466309,0.19278553128242,-0.44796735048294,2.50495672225952
460,1839852642,2.44395208358765,-2.17068719863892,59.71389770507812,0.23672945797443,0.42725017666817,10.16274547576904,-0.50522804260254,-0.45471674203873,2.35000371932983
461,1839860975,2.45058345794678,-2.17283010482788,59.71429443359375,0.45024710893631,0.40441066026688,10.12369251251221,0.92306029796600,-0.80314713716507,2.65258479118347
462,1839869308,2.44752955436707,-2.17524480819702,59.71163940429688,0.75924992561340,0.53574049472809,10.11877441406250,-0.24419330060482,-0.83434522151947,2.43406939506531
463,1839877641,2.44417047500610,-2.17472839355469,59.71191024780273,0.80626732110977,0.46748068928719,10.12464046478271,-0.27558353543282,-0.48513367772102,2.62425541877747
464,1839885974,2.44119668006897,-2.17440652847290,59.71252059936523,0.82252287864685,0.24558411538601,10.05177307128906,-0.22303594648838,-0.48417305946350,2.78956937789917
465,1839894307,2.44402217864990,-2.17436742782593,59.70871353149414,1.04003000259399,0.48682999610901,10.15230178833008,0.44755756855011,-0.56283444166183,2.14035129547119
466,1839902640,2.43985199928284,-2.17392086982727,59.71480178833008,1.13907551765442,0.45447811484337,10.19446659088135,-0.33837687969208,-0.43501940369606,3.42867040634155
467,1839910973,2.43042778968811,-2.17178535461426,59.70730209350586,0.84449541568756,0.21582485735416,10.05649852752686,-1.03984844684601,-0.33007788658142,1.68672311306000
468,1839919306,2.44130396842957,-2.17363262176514,59.71292114257812,0.80810016393661,0.27637949585915,10.16566753387451,1.46690165996552,-0.70191973447800,3.43873643875122
469,1839927639,2.44092035293579,-2.17257928848267,59.70838165283203,0.95834791660309,0.58280849456787,10.13644409179688,0.05957871302962,-0.44481685757637,2.04688477516174
470,1839935972,2.43374133110046,-2.17085981369019,59.70792388916016,0.68252176046371,0.35410264134407,10.22684478759766,-0.72995454072952,-0.30081358551979,2.61928629875183
471,1839944305,2.44023728370667,-2.17431211471558,59.71223831176758,0.93016415834427,0.22185055911541,10.08968734741211,0.92427688837051,-0.94147694110870,3.13063597679138
472,1839952638,2.43784165382385,-2.17721652984619,59.70318984985352,1.12519085407257,0.53954797983170,10.17222499847412,-0.18927638232708,-0.88800704479218,1.71277260780334
473,1839960971,2.43579244613647,-2.17877388000488,59.71027374267578,1.38691961765289,0.39026281237602,10.10231971740723,-0.08810016512871,-0.69912779331207,3.45021200180054
474,1839969304,2.44186401367188,-2.17899680137634,59.70119476318359,1.60780596733093,0.26937016844749,10.33611392974854,0.82365131378174,-0.55855685472488,1.64276897907257
475,1839977637,2.42618989944458,-2.17746973037720,59.70568847656250,0.96612042188644,0.28663906455040,8.88198184967041,-1.73468577861786,-0.34342288970947,3.12806177139282
476,1839985970,2.43307733535767,-2.17514395713806,59.70739746093750,1.53990530967712,0.55029004812241,10.58110332489014,0.97530031204224,-0.18383337557316,2.97187900543213
477,1839994303,2.42704868316650,-2.17498016357422,59.70243835449219,1.14340674877167,0.17880228161812,10.50466918945312,-0.62143987417221,-0.55430483818054,1.99975478649139
478,1840002636,2.43849825859070,-2.17313933372498,59.70613479614258,0.84578853845596,0.34640496969223,10.72064781188965,1.53055310249329,-0.22090998291969,3.16230773925781
479,1840010969,2.44021964073181,-2.17139196395874,59.69976043701172,0.79277104139328,0.76742297410965,10.10491752624512,0.30401536822319,-0.37103497982025,1.82329809665680
480,1840019302,2.43280005455017,-2.16802954673767,59.70559310913086,0.16285876929760,0.22880658507347,9.87543201446533,-0.72479325532913,-0.02306561917067,3.43384456634521
481,1840027635,2.43027305603027,-2.16754770278931,59.69849777221680,0.18982540071011,0.11380386352539,9.45712852478027,-0.21088200807571,-0.52675682306290,1.74162721633911
482,1840035968,2.45109868049622,-2.17055869102478,59.70256042480469,0.89728391170502,0.60747265815735,10.48636722564697,2.65905213356018,-0.80134141445160,3.22207903862000
483,1840044301,2.44366574287415,-2.16660785675049,59.69554138183594,1.09203135967255,0.67677098512650,10.19610309600830,-0.79835730791092,-0.10994909703732,1.73328959941864
484,1840052634,2.43324804306030,-2.17021608352661,59.70351028442383,0.72757333517075,0.09461472928524,10.30479812622070,-1.07289052009583,-0.84151715040207,3.80494260787964
485,1840060967,2.43981552124023,-2.17712044715881,59.69660568237305,1.02005565166473,0.23388016223907,9.86742115020752,0.88392168283463,-1.41158771514893,1.80329334735870
486,1840069300,2.44211983680725,-2.17455196380615,59.70389175415039,1.48285663127899,0.78351199626923,10.79937458038330,0.45419156551361,-0.09919112175703,3.66695952415466
487,1840077633,2.43312311172485,-2.16622114181519,59.69351959228516,0.66121214628220,0.42389911413193,9.90629959106445,-1.00119638442993,0.39840379357338,1.30886173248291
488,1840085966,2.42686605453491,-2.15783596038818,59.70522689819336,0.19400620460510,0.06696552783251,9.69548130035400,-0.55678939819336,0.62744629383087,4.17289161682129
489,1840094299,2.44201779365540,-2.16417598724365,59.69191360473633,0.23737478256226,0.48685878515244,10.20677661895752,1.88405501842499,-1.37572777271271,1.03284275531769
490,1840102632,2.43759727478027,-2.16478323936462,59.69993972778320,0.19655838608742,0.68305969238281,9.64665031433105,-0.34554880857468,-0.46839463710785,3.85901474952698
491,1840110965,2.43112468719482,-2.16283297538757,59.69481658935547,0.10838247090578,0.31315901875496,10.40698051452637,-0.67512714862823,-0.34004178643227,1.97270596027374
492,1840119298,2.43419075012207,-2.15978431701660,59.69789505004883,0.16025842726231,0.37983718514442,10.25435543060303,0.52496367692947,-0.06422768533230,3.14537668228149
493,1840127631,2.43609142303467,-2.16076970100403,59.68659973144531,0.50423258543015,0.22601518034935,10.30556583404541,0.30196619033813,-0.72481870651245,1.24710583686829
494,1840135964,2.44185900688171,-2.16381478309631,59.69266510009766,1.30667936801910,0.92340391874313,11.11504077911377,0.87115293741226,-0.77301192283630,3.70818519592285
495,1840144297,2.42596435546875,-2.16388463973999,59.68471908569336,0.81443274021149,0.42878675460815,9.87436103820801,-1.81759893894196,-0.59677320718765,1.64420342445374
496,1840152630,2.42663764953613,-2.16204810142517,59.68697357177734,0.26256009936333,-0.13675674796104,10.00349998474121,0.23306393623352,-0.20513160526752,3.10905599594116
497,1840160963,2.44508314132690,-2.16088247299194,59.67749404907227,0.25148350000381,0.52618503570557,9.80476665496826,2.29769921302795,-0.45750865340233,1.45363354682922
498,1840169296,2.43905019760132,-2.15211057662964,59.68315505981445,-0.26173257827759,0.90594232082367,9.79956531524658,-0.55015528202057,0.64422351121902,3.56076216697693
499,1840177629,2.43344259262085,-2.14435052871704,59.67921066284180,-1.04956531524658,0.41010442376137,10.00022697448730,-0.56519091129303,0.36090454459190,2.08161759376526
500,1840185962,2.43465662002563,-2.14697575569153,59.68207931518555,-1.45166099071503,0.03565460070968,10.67237281799316,0.30150514841080,-0.75296878814697,3.23051834106445
501,1840194295,2.46272873878479,-2.15551304817200,59.67250823974609,-0.99818092584610,1.04360187053680,10.28294658660889,3.45197868347168,-1.62029218673706,1.49023592472076
502,1840202628,2.44302606582642,-2.15270566940308,59.67722702026367,-1.20282864570618,0.86603516340256,9.95315837860107,-2.19848251342773,-0.11294597387314,3.46870517730713
503,1840210961,2.43432641029358,-2.14778923988342,59.67663574218750,-1.39272975921631,0.11110788583755,10.30735015869141,-0.92167705297470,0.03848538547754,2.49886083602905
504,1840219294,2.45186877250671,-2.15471959114075,59.67436599731445,-1.04861557483673,0.39352706074715,10.09612560272217,2.23719859123230,-1.33715271949768,2.67089843750000
505,1840227627,2.46702933311462,-2.15653181076050,59.67562866210938,-0.01644370146096,1.44793105125427,10.33301925659180,1.95203542709351,-0.75911635160446,2.75645041465759
506,1840235960,2.42618680000305,-2.14705514907837,59.69114685058594,-0.05787671729922,0.43330577015877,10.30888080596924,-4.69397497177124,0.71112793684006,4.75113296508789
507,1840244293,2.41241955757141,-2.15168309211731,59.68726730346680,0.09991975128651,-0.60908806324005,10.18824958801270,-1.54368031024933,-1.12442636489868,2.15256905555725
508,1840252626,2.44749808311462,-2.16967439651489,59.68585968017578,1.80033183097839,0.21150572597980,10.22322654724121,4.34573650360107,-2.67390823364258,2.83964538574219
509,1840260959,2.42511391639709,-2.17605924606323,59.67599868774414,3.09273838996887,0.87023496627808,10.12426376342773,-2.60431456565857,-1.36435496807098,1.44610297679901
510,1840269292,2.42112660408020,-2.17713809013367,59.66945648193359,1.97890722751617,-0.32899570465088,9.89699172973633,-0.36534863710403,-0.64874458312988,2.15026378631592
511,1840277625,2.46856880187988,-2.17167353630066,59.65941619873047,1.13856184482574,0.49216464161873,9.96626281738281,5.77301359176636,0.05509622395039,1.36449599266052
512,1840285958,2.45815753936768,-2.14700222015381,59.65548706054688,-0.93277996778488,1.64786350727081,10.33685970306396,-1.11991846561432,2.46636939048767,2.33586502075195
513,1840294291,2.42019271850586,-2.12463641166687,59.66248321533203,-4.01081609725952,0.76280683279037,9.79633140563965,-4.39956521987915,2.16755342483521,3.31814527511597
514,1840302624,2.42932581901550,-2.12886762619019,59.65736770629883,-5.16748762130737,-0.14411160349846,9.82353401184082,1.21022129058838,-1.03972005844116,2.33604383468628
515,1840310957,2.46697282791138,-2.14315938949585,59.65650558471680,-3.00982546806335,1.45929384231567,10.58808040618896,4.63991641998291,-2.26559185981750,2.56557321548462
516,1840319290,2.43169927597046,-2.14084267616272,59.65609741210938,-1.19468867778778,1.28419685363770,10.49276542663574,-4.10051918029785,-0.28620067238808,2.86587452888489
517,1840327623,2.40060687065125,-2.14309477806091,59.65951919555664,0.08960965275764,-0.55166929960251,10.31689071655273,-3.59133362770081,-0.80045771598816,3.01610207557678
518,1840335956,2.43008065223694,-2.16537404060364,59.64686965942383,2.27469062805176,-0.40956121683121,9.78011703491211,3.61871504783630,-3.30410814285278,1.58246028423309
519,1840344289,2.44503998756409,-2.18169140815735,59.64795303344727,4.22484874725342,0.90045607089996,10.24114418029785,1.92603695392609,-2.49998784065247,2.80698704719543
520,1840352622,2.41045808792114,-2.17152452468872,59.64719009399414,3.57752943038940,-0.01934101991355,10.16233062744141,-4.01471138000488,0.67987865209579,2.81254553794861
521,1840360955,2.41927266120911,-2.16581153869629,59.65368270874023,1.86835074424744,-0.63665354251862,9.71483993530273,1.21180963516235,0.16892589628696,3.34375929832458
522,1840369288,2.45927953720093,-2.16487765312195,59.64653396606445,0.82904005050659,0.51226228475571,9.87422275543213,4.91473150253296,-0.43496817350388,2.05508136749268
523,1840377621,2.45846843719482,-2.14968776702881,59.65270614624023,-0.71881055831909,1.35251772403717,10.13820743560791,0.05612079054117,1.30327785015106,3.25705504417419
524,1840385954,2.44438982009888,-2.13646149635315,59.65174484252930,-3.43712067604065,0.72042989730835,10.29185199737549,-1.55333685874939,1.06813919544220,2.74615335464478
525,1840394287,2.44377636909485,-2.13119459152222,59.65058898925781,-5.37174081802368,0.64698159694672,9.59206771850586,0.04779616743326,0.07553638517857,2.42933106422424
526,1840402620,2.48054027557373,-2.13429999351501,59.64173889160156,-4.91994190216064,1.56424856185913,10.87160396575928,4.50982141494751,-0.98500829935074,1.89565813541412
527,1840410953,2.45935559272766,-2.13544559478760,59.64139175415039,-3.48343610763550,1.44392871856689,11.08359718322754,-2.41909813880920,-0.68831861019135,2.55993795394897
528,1840419286,2.44096040725708,-2.14739298820496,59.64055633544922,-1.38650286197662,0.38406011462212,10.58400726318359,-2.08583116531372,-2.05698943138123,2.87278985977173
529,1840427619,2.44431972503662,-2.17086625099182,59.64091110229492,1.42050492763519,-0.07166119664907,9.55847072601318,0.53054767847061,-3.36172771453857,2.75824332237244
530,1840435952,2.44831609725952,-2.18255186080933,59.63827514648438,3.83137822151184,0.09343835711479,10.02547550201416,0.59325134754181,-2.04213356971741,2.60258579254150
531,1840444285,2.43723702430725,-2.17512965202332,59.63889694213867,3.55581641197205,-0.05909310281277,8.71622276306152,-1.19945061206818,0.34494695067406,2.63283610343933
532,1840452618,2.44384193420410,-2.15786528587341,59.63913726806641,1.75884783267975,-0.38737636804581,10.73275279998779,0.92473793029785,1.48479330539703,2.83297300338745
533,1840460951,2.46900820732117,-2.15231251716614,59.63288116455078,-0.50601887702942,0.47742563486099,11.19399547576904,3.11758542060852,0.08496242016554,1.81423079967499
534,1840469284,2.47639942169189,-2.14572834968567,59.63242721557617,-2.82044935226440,1.24136495590210,10.85253715515137,1.02357053756714,0.20452968776226,2.83859539031982
535,1840477617,2.44625139236450,-2.13574004173279,59.63551712036133,-4.87309932708740,0.57272142171860,9.19723510742188,-3.47855424880981,0.66481751203537,2.91341447830200
536,1840485950,2.45754933357239,-2.14170479774475,59.63830184936523,-3.78165555000305,0.61191630363464,11.05502700805664,1.49779236316681,-1.33154320716858,3.23494958877563
537,1840494283,2.46995854377747,-2.16429662704468,59.63187408447266,-1.17277419567108,1.29957485198975,10.33517265319824,1.58572614192963,-3.29180073738098,1.94209682941437
538,1840502616,2.44566440582275,-2.18037152290344,59.63232040405273,1.14407300949097,1.03277683258057,9.83683490753174,-2.78686738014221,-2.58489894866943,3.03623461723328
539,1840510949,2.41703677177429,-2.19401168823242,59.62932205200195,2.83366322517395,-0.24896511435509,9.42612171173096,-3.32331919670105,-2.19852113723755,2.30439782142639
540,1840519282,2.42501425743103,-2.19804263114929,59.62309265136719,4.74869203567505,0.09060423076153,9.53734970092773,1.05420506000519,-1.15908253192902,2.12026929855347
541,1840527615,2.41670775413513,-2.20032978057861,59.62033081054688,5.73124742507935,0.53133857250214,10.16563320159912,-0.88385754823685,-0.83618950843811,2.27664446830750
542,1840535948,2.39906549453735,-2.19495391845703,59.61950683593750,5.31125640869141,-0.33169719576836,10.31060791015625,-1.99705219268799,0.04892319068313,2.66633939743042
543,1840544281,2.38680076599121,-2.18714475631714,59.61677932739258,4.17158985137939,-0.42657098174095,9.74388122558594,-1.35807955265045,0.37312257289886,2.23056435585022
544,1840552614,2.40647673606873,-2.17855620384216,59.61266326904297,3.02164530754089,0.17063289880753,10.27284240722656,2.47420692443848,0.46320781111717,2.23025703430176
545,1840560947,2.40397572517395,-2.16433501243591,59.60953521728516,1.17586612701416,0.59962534904480,10.09804058074951,-0.18889217078686,1.14034569263458,2.14711308479309
546,1840569280,2.38866186141968,-2.14915537834167,59.60818862915039,-0.96085441112518,0.18943220376968,10.19218254089355,-1.71145367622375,1.28583467006683,2.54405713081360
547,1840577613,2.39734816551208,-2.14916753768921,59.60771179199219,-1.72804999351501,0.30893024802208,10.28948116302490,1.16634416580200,-0.55261427164078,2.53729462623596
548,1840585946,2.40766119956970,-2.15732622146606,59.60579299926758,-0.62814742326736,0.88382142782211,10.22231674194336,1.36385560035706,-1.53246116638184,2.60663270950317
549,1840594279,2.39988946914673,-2.16944932937622,59.60129547119141,1.27043545246124,0.67961472272873,10.21249485015869,-0.82681471109390,-2.02415227890015,2.11609435081482
550,1840602612,2.39034414291382,-2.17685818672180,59.60976028442383,2.57507944107056,-0.10795199871063,9.61858558654785,-0.97658121585846,-1.39245402812958,3.83460474014282
551,1840610945,2.41279458999634,-2.18915987014771,59.60504150390625,4.32108163833618,0.05050131306052,9.67829608917236,2.79875183105469,-2.04765295982361,2.09044170379639
552,1840619278,2.43655180931091,-2.19292569160461,59.61214828491211,4.51166009902954,0.40679463744164,10.53789997100830,3.01981592178345,-0.92763233184814,3.68647766113281
553,1840627611,2.42023301124573,-2.18881249427795,59.61515426635742,3.26259160041809,0.00884130410850,9.83333492279053,-1.81857252120972,-0.04125173017383,2.93452072143555
554,1840635944,2.43396449089050,-2.17922425270081,59.62154006958008,1.61508619785309,0.10599441081285,10.43159961700439,1.81497335433960,0.70492929220200,3.50953435897827
555,1840644277,2.45604157447815,-2.16591787338257,59.61673355102539,-0.20939023792744,0.63544857501984,9.87696170806885,2.75373530387878,1.02159810066223,1.94880795478821
556,1840652610,2.46046280860901,-2.15322852134705,59.62085723876953,-1.96892511844635,0.74894195795059,10.45360565185547,0.68702501058578,1.06591069698334,3.19821882247925
557,1840660943,2.45745468139648,-2.14904212951660,59.61636352539062,-3.06148123741150,0.59957277774811,9.97524738311768,-0.25600150227547,-0.06973475962877,2.03589630126953
558,1840669276,2.47645115852356,-2.15346240997314,59.61243057250977,-2.82721233367920,0.68068778514862,10.46307086944580,2.39628863334656,-1.05862379074097,2.28240776062012
559,1840677609,2.48150777816772,-2.15756607055664,59.60943984985352,-1.94141316413879,1.05954444408417,10.25278472900391,0.71891480684280,-1.05616462230682,2.25697302818298
560,1840685942,2.48203921318054,-2.15560245513916,59.61025238037109,-1.35955917835236,0.81561684608459,10.11449432373047,0.19973981380463,-0.29309087991714,2.90278458595276
561,1840694275,2.47124361991882,-2.15283465385437,59.61162567138672,-1.21461236476898,0.32066449522972,10.20983314514160,-1.16351389884949,-0.20889689028263,2.74474453926086
562,1840702608,2.47764039039612,-2.15599012374878,59.61048507690430,-0.92810052633286,0.48216140270233,10.31528568267822,0.89419287443161,-0.93480426073074,2.66972041130066
563,1840710941,2.47717833518982,-2.15571904182434,59.60712432861328,-1.15311121940613,0.88434714078903,10.30685615539551,0.05417410656810,-0.53365981578827,2.19006848335266
564,1840719274,2.47168803215027,-2.14985513687134,59.60684967041016,-2.17870044708252,0.51390659809113,10.44170475006104,-0.53335249423981,0.13593474030495,2.70768094062805
565,1840727607,2.45785856246948,-2.14323592185974,59.60753250122070,-2.98628807067871,0.14180147647858,10.31170082092285,-1.53043782711029,0.24809950590134,2.64046931266785
566,1840735940,2.47207856178284,-2.14709091186523,59.60445404052734,-2.62577414512634,0.67732030153275,10.28350257873535,1.82196617126465,-1.07194304466248,2.43038105964661
567,1840744273,2.46218919754028,-2.15224432945251,59.60719299316406,-1.92414736747742,0.91378098726273,10.17370796203613,-1.04819846153259,-1.15267896652222,2.95050358772278
568,1840752606,2.44762063026428,-2.15498352050781,59.61093521118164,-1.29092848300934,0.29904076457024,10.36112117767334,-1.60635805130005,-0.92906653881073,3.23418092727661
569,1840760939,2.43763375282288,-2.16450905799866,59.60863876342773,-0.18451514840126,0.15673665702343,9.80368423461914,-1.08329010009766,-1.70284712314606,2.36865091323853
570,1840769272,2.44376945495605,-2.17941308021545,59.60511398315430,1.87939107418060,0.90020167827606,9.99623203277588,0.84675538539886,-2.43569588661194,2.40433120727539
571,1840777605,2.42127156257629,-2.18156003952026,59.60424041748047,3.02281475067139,0.64200848340988,10.15673923492432,-2.57800817489624,-0.81144595146179,2.49946212768555
572,1840785938,2.40773344039917,-2.18460941314697,59.59837341308594,3.09919476509094,-0.11393865942955,9.89434242248535,-1.53102684020996,-1.00916242599487,1.98492407798767
573,1840794271,2.41436028480530,-2.18463087081909,59.59585952758789,3.47970294952393,0.23815619945526,9.81964874267578,0.90848571062088,-0.56360280513763,2.29600882530212
574,1840802604,2.40768003463745,-2.17728209495544,59.58945846557617,3.29621982574463,0.81262624263763,10.22890377044678,-0.70632535219193,0.26451820135117,1.87411689758301
575,1840810937,2.38524150848389,-2.17023301124573,59.58911132812500,2.09157919883728,0.15559655427933,10.06823444366455,-2.56856989860535,0.29537060856819,2.51750802993774
576,1840819270,2.38713216781616,-2.16652584075928,59.58446884155273,1.11338675022125,-0.05829548090696,9.87284183502197,0.33064135909081,-0.14046846330166,2.12760806083679
577,1840827603,2.38766360282898,-2.16869878768921,59.59655761718750,1.52248930931091,0.42862471938133,10.92041301727295,0.24389874935150,-0.74897301197052,4.05437517166138
578,1840835936,2.37343001365662,-2.18203020095825,59.58098983764648,2.55408263206482,0.25078085064888,9.78734397888184,-1.65284824371338,-2.22886133193970,0.86683696508408
579,1840844269,2.35809397697449,-2.19005393981934,59.58252716064453,4.38435792922974,-0.50138336420059,9.70673656463623,-1.70881533622742,-1.50454187393188,2.81823205947876
580,1840852602,2.36107969284058,-2.20879817008972,59.58695983886719,6.51246213912964,-0.41154375672340,10.75887012481689,0.51005625724792,-2.75103282928467,3.27493381500244
581,1840860935,2.38002800941467,-2.20632171630859,59.58507537841797,7.43844842910767,0.49138331413269,10.33405113220215,2.38932156562805,-0.26102188229561,2.35502409934998
582,1840869268,2.38023996353149,-2.19862174987793,59.57449340820312,5.41280651092529,-0.34981694817543,9.59804248809814,0.11262580752373,0.40795794129372,1.38129889965057
583,1840877601,2.39437627792358,-2.18946027755737,59.58994674682617,3.84932303428650,-0.32462212443352,9.45492744445801,1.89281535148621,0.62665230035782,4.40047454833984
584,1840885934,2.41439414024353,-2.17244148254395,59.59192657470703,1.86142206192017,1.07278478145599,10.22415256500244,2.55202317237854,1.62458276748657,2.79971265792847
585,1840894267,2.40730357170105,-2.14980030059814,59.59535980224609,-0.49634426832199,0.80488795042038,9.90260124206543,-0.70973187685013,2.18389463424683,2.89174413681030
586,1840902600,2.41659402847290,-2.13681244850159,59.59835815429688,-2.59993624687195,0.46040451526642,10.13665771484375,1.26821196079254,1.15335774421692,3.07680726051331
587,1840910933,2.44602584838867,-2.13849973678589,59.59794235229492,-2.68686270713806,1.00915181636810,10.01318931579590,3.65599679946899,-0.75373733043671,2.55399537086487
588,1840919266,2.45233845710754,-2.14869499206543,59.59622192382812,-2.54304385185242,0.80678957700729,10.27355480194092,0.88604760169983,-1.68017852306366,2.58040356636047
589,1840927599,2.44265365600586,-2.15503454208374,59.59940338134766,-1.89353394508362,0.38077387213707,9.70662689208984,-1.02239227294922,-1.29328846931458,3.00912237167358
590,1840935932,2.46565628051758,-2.15903496742249,59.59287643432617,-1.23637247085571,-0.09774969518185,10.64065361022949,2.86820507049561,-0.98257482051849,2.05833435058594
591,1840944265,2.47388267517090,-2.16029906272888,59.59298324584961,-0.25316748023033,0.77324801683426,10.04661083221436,1.11455225944519,-0.69917893409729,2.61462426185608
592,1840952598,2.47896480560303,-2.16033816337585,59.59568786621094,0.02645306661725,0.35667279362679,10.33622932434082,0.75925713777542,-0.47308212518692,3.12017250061035
593,1840960931,2.47060918807983,-2.15897321701050,59.59547042846680,-0.01823936216533,0.14709837734699,9.87208938598633,-0.87786394357681,-0.38645479083061,2.56260180473328
594,1840969264,2.49119043350220,-2.15667223930359,59.59022521972656,-1.00229406356812,0.30105632543564,9.98619365692139,2.58468127250671,-0.23873749375343,2.14014625549316
595,1840977597,2.51310586929321,-2.14945888519287,59.58521270751953,-2.39951968193054,1.24003517627716,10.69629669189453,2.73285984992981,0.28967139124870,1.95715832710266
596,1840985930,2.49603629112244,-2.13829064369202,59.58932876586914,-4.87527132034302,1.22374689579010,10.59445095062256,-1.89490258693695,0.85490071773529,3.21499586105347
597,1840994263,2.48943209648132,-2.12564229965210,59.58594131469727,-7.05087900161743,1.03239285945892,10.94639301300049,-0.68186372518539,0.94967335462570,2.12313818931580
598,1841002596,2.49395227432251,-2.12132883071899,59.58818435668945,-7.48533916473389,1.14373362064362,10.86143875122070,0.68407940864563,-0.03113410063088,3.07045531272888
599,1841010929,2.49033784866333,-2.13216185569763,59.57887268066406,-5.68816566467285,1.49626481533051,10.57293605804443,-0.34918609261513,-1.89561998844147,1.53736639022827
600,1841019262,2.46321654319763,-2.14346385002136,59.59133911132812,-3.07137179374695,0.87042647600174,10.20365810394287,-3.07593655586243,-1.91407489776611,4.34843873977661
601,1841027595,2.42692756652832,-2.15976643562317,59.58649444580078,-0.49156525731087,0.13795159757137,9.28667354583740,-4.25130939483643,-2.52762556076050,2.09562873840332
602,1841035928,2.45430088043213,-2.16842174530029,59.58222198486328,1.30941379070282,-0.06171593070030,10.19583129882812,3.38712406158447,-1.70133602619171,2.31107020378113
603,1841044261,2.44189739227295,-2.16277360916138,59.57043075561523,1.47090768814087,0.73668372631073,9.40281772613525,-1.41691541671753,0.06869737803936,1.15451037883759
604,1841052594,2.42286968231201,-2.14547395706177,59.58015823364258,0.26901894807816,0.22109422087669,11.02423000335693,-2.11846399307251,1.48910915851593,3.81329369544983
605,1841060927,2.43527531623840,-2.14584732055664,59.57058715820312,-1.27216053009033,0.08287508040667,9.75234222412109,1.57181763648987,-0.64129084348679,1.45117461681366
606,1841069260,2.44951891899109,-2.15215063095093,59.57543182373047,-1.69340252876282,0.74647730588913,9.83396244049072,1.85357403755188,-1.37037432193756,3.35656619071960
607,1841077593,2.40511178970337,-2.14854931831360,59.57302093505859,-1.19764280319214,0.79781639575958,9.94742298126221,-5.21427726745605,-0.12974891066551,2.28747940063477
608,1841085926,2.40070915222168,-2.15276646614075,59.57761001586914,-0.49760538339615,-0.00796677544713,10.40109443664551,-0.38819655776024,-1.13871920108795,3.27050256729126
609,1841094259,2.40154123306274,-2.16549706459045,59.56352615356445,1.68425261974335,0.26696273684502,10.49993896484375,0.16208688914776,-2.14528179168701,0.97252118587494
610,1841102592,2.40360522270203,-2.19058227539062,59.56991195678711,3.41428971290588,0.77168494462967,10.32516765594482,0.39855748414993,-3.62896060943604,3.59426617622375
611,1841110925,2.39121794700623,-2.20202350616455,59.55700302124023,4.55801773071289,0.28598815202713,9.47331905364990,-1.41927206516266,-1.98506474494934,1.10663747787476
612,1841119258,2.38409662246704,-2.20932841300964,59.56270599365234,4.74036121368408,-0.62335723638535,9.02477455139160,-0.70729863643646,-1.47050034999847,3.42426466941833
613,1841127591,2.40052199363708,-2.21460723876953,59.56135559082031,5.87107086181641,0.09507281333208,9.99995040893555,2.09019851684570,-1.18823158740997,2.45996594429016
614,1841135924,2.38991045951843,-2.20647716522217,59.56762313842773,6.05553102493286,0.57409495115280,10.75282764434814,-1.11999535560608,0.42383876442909,3.33789372444153
615,1841144257,2.38379812240601,-2.19795560836792,59.56597900390625,4.54625892639160,0.07643402367830,9.95140838623047,-0.61652183532715,0.46384817361832,2.35435819625854
616,1841152590,2.41327691078186,-2.19377231597900,59.56879043579102,3.17104864120483,0.03285898268223,10.49048709869385,3.67313265800476,-0.02782986871898,2.88377857208252
617,1841160923,2.41830611228943,-2.18040752410889,59.56230163574219,1.66047680377960,0.57153248786926,9.99416065216064,0.69893556833267,1.02154695987701,1.75057923793793
618,1841169256,2.39281225204468,-2.16032552719116,59.56689834594727,0.04591069370508,0.33923181891441,10.02334022521973,-2.91253089904785,1.90490520000458,3.06266856193542
619,1841177589,2.39755702018738,-2.14579224586487,59.56551361083984,-0.99245089292526,0.60342800617218,9.96042442321777,0.68871551752090,1.18534994125366,2.35476803779602
620,1841185922,2.40958762168884,-2.15537905693054,59.57232284545898,-1.08690798282623,0.42895123362541,10.43152332305908,1.59576666355133,-1.65115749835968,3.39206695556641
621,1841194255,2.42767786979675,-2.16852927207947,59.57171630859375,0.11830611526966,0.43388608098030,10.55827713012695,2.29385662078857,-2.12781262397766,2.58970093727112
622,1841202588,2.43238449096680,-2.18177175521851,59.57770538330078,1.09641647338867,0.07684851437807,10.09253215789795,0.71607154607773,-2.09991860389709,3.35397887229919
623,1841210921,2.42577791213989,-2.18217086791992,59.57726287841797,2.55119085311890,-0.17374405264854,9.88041591644287,-0.66969698667526,-0.59851503372192,2.54339098930359
624,1841219254,2.44880914688110,-2.17350196838379,59.57817077636719,2.42071199417114,0.23647877573967,9.84835720062256,2.89730286598206,0.51289939880371,2.65596556663513
625,1841227587,2.46426725387573,-2.16993641853333,59.57842254638672,1.53092873096466,0.68775928020477,9.94980812072754,1.98158109188080,-0.11961847543716,2.60661959648132
626,1841235920,2.45511007308960,-2.17001318931580,59.57721328735352,-0.53075861930847,0.29508990049362,10.08587646484375,-0.97512102127075,-0.52976638078690,2.50146079063416
627,1841244253,2.47046494483948,-2.16813707351685,59.57831192016602,-2.25584244728088,0.65624910593033,10.60997867584229,1.97390997409821,-0.31850025057793,2.71700453758240
628,1841252586,2.48766922950745,-2.15069746971130,59.57185745239258,-3.53590130805969,1.38148295879364,10.14602470397949,2.16176462173462,1.52609634399414,1.71571850776672
629,1841260919,2.46807980537415,-2.13462495803833,59.57786941528320,-4.19680452346802,1.18408310413361,10.73171234130859,-2.19776558876038,1.40944886207581,3.23254203796387
630,1841269252,2.46488451957703,-2.13891291618347,59.57922363281250,-3.80279850959778,0.73010116815567,10.63195610046387,-0.25653937458992,-1.07304441928864,2.77742838859558
631,1841277585,2.48149180412292,-2.15421485900879,59.57299423217773,-3.05796456336975,0.72366708517075,9.96424198150635,2.09076189994812,-2.41628050804138,1.92724061012268
632,1841285918,2.47498416900635,-2.15461373329163,59.57345581054688,-2.00211453437805,0.83781975507736,10.47523593902588,-0.65773516893387,-0.63798660039902,2.72089791297913
633,1841294251,2.45394873619080,-2.14530253410339,59.57207870483398,-1.33300137519836,0.64273023605347,10.18387317657471,-2.40444684028625,0.56054192781448,2.38299465179443
634,1841302584,2.44330739974976,-2.14400887489319,59.57490539550781,-0.76327824592590,0.04407370090485,10.27717971801758,-1.14772260189056,-0.44087225198746,2.91880631446838
635,1841310917,2.45507574081421,-2.15682959556580,59.56871795654297,0.21490186452866,0.32425260543823,9.57681083679199,1.50949823856354,-2.11819505691528,1.91971027851105
636,1841319250,2.45364046096802,-2.17051148414612,59.56967163085938,1.08837628364563,0.47560465335846,9.51457023620605,-0.04928179457784,-2.25120973587036,2.77610945701599
637,1841327583,2.44056892395020,-2.16625761985779,59.57393646240234,0.92930585145950,0.01931791007519,10.23832321166992,-1.42481744289398,-0.01562468335032,3.08429932594299
638,1841335916,2.43554019927979,-2.15325951576233,59.57354736328125,0.02196180261672,-0.00199482287280,10.33115291595459,-0.48647835850716,0.94524204730988,2.44710707664490
639,1841344249,2.43180990219116,-2.14269375801086,59.57081985473633,-0.83751177787781,0.96950376033783,9.87927913665771,-0.33351019024849,0.70387917757034,2.21496558189392
640,1841352582,2.42910671234131,-2.14583706855774,59.57333374023438,-1.63427877426147,0.95658266544342,10.46144771575928,-0.19690941274166,-0.98293340206146,2.82719683647156
641,1841360915,2.41637372970581,-2.16322708129883,59.57267761230469,-1.76430535316467,0.33015084266663,10.01703453063965,-1.40441572666168,-2.63722872734070,2.60788774490356
642,1841369248,2.41088557243347,-2.18234968185425,59.57086181640625,-0.14077591896057,0.46753960847855,9.85742473602295,-0.55143606662750,-2.93432831764221,2.43737387657166
643,1841377581,2.40420198440552,-2.18951630592346,59.56468582153320,2.78591346740723,0.65522426366806,10.12482738494873,-0.70412260293961,-1.43825221061707,1.89138078689575
644,1841385914,2.39213657379150,-2.19429612159729,59.55725479125977,5.27496814727783,0.35615488886833,10.24019145965576,-1.37014400959015,-1.23912703990936,1.57893836498260
645,1841394247,2.37389302253723,-2.20436954498291,59.55784225463867,6.66376686096191,-0.56917291879654,9.85378932952881,-2.06139516830444,-1.75448536872864,2.71669673919678
646,1841402580,2.38658380508423,-2.21024322509766,59.55799484252930,7.17674350738525,-0.05109614878893,10.22662067413330,1.63931107521057,-1.28774285316467,2.52461624145508
647,1841410913,2.38492822647095,-2.20208621025085,59.55810165405273,5.65985202789307,0.22105020284653,10.40490245819092,-0.07270601391792,0.42896163463593,2.56736612319946
648,1841419246,2.38783025741577,-2.18097281455994,59.55815124511719,2.59314775466919,-0.08358544856310,10.37912464141846,0.46989312767982,1.99358153343201,2.40282034873962
649,1841427579,2.40065646171570,-2.15666031837463,59.55626678466797,0.11667697131634,0.32478043437004,9.84491348266602,1.65583205223083,2.35656094551086,2.24600982666016
650,1841435912,2.41627645492554,-2.15127158164978,59.56661987304688,-1.07189643383026,0.80183720588684,10.29024219512939,2.04376006126404,0.16654375195503,3.70691752433777
651,1841444245,2.40447092056274,-2.15498256683350,59.56860733032227,-0.71757519245148,0.47678980231285,10.12273979187012,-1.28246641159058,-0.98344576358795,2.85130000114441
652,1841452578,2.40659022331238,-2.16645455360413,59.56998062133789,-0.06626904755831,0.41885021328926,9.93484592437744,0.38126790523529,-1.91014313697815,2.69571900367737
653,1841460911,2.42148184776306,-2.17925262451172,59.57415390014648,1.17255353927612,-0.17513428628445,10.16333961486816,1.93110859394073,-2.06272721290588,3.15846586227417
654,1841469244,2.42452144622803,-2.17473602294922,59.57324600219727,2.50415921211243,0.63847857713699,10.08672428131104,0.48441639542580,-0.00236931676045,2.40340924263000
655,1841477577,2.42250084877014,-2.17725443840027,59.57792282104492,2.73107028007507,0.18181760609150,10.40667915344238,-0.09591250121593,-0.82627677917480,3.16712307929993
656,1841485910,2.43545436859131,-2.19047689437866,59.58222579956055,2.64839482307434,-0.09902464598417,9.57391071319580,1.69512414932251,-2.09103059768677,3.01305317878723
657,1841494243,2.44332599639893,-2.19273924827576,59.58429718017578,2.67307305335999,0.38782691955566,9.80081367492676,1.08002436161041,-0.80827003717422,2.85514211654663
658,1841502576,2.44757986068726,-2.18070912361145,59.58750152587891,1.76212942600250,0.59293425083160,10.05418205261230,0.65229213237762,0.95295208692551,2.87115097045898
659,1841510909,2.46549940109253,-2.16387677192688,59.58580780029297,-0.18324179947376,0.43020218610764,10.09706497192383,2.26806378364563,1.46019077301025,2.30643391609192
660,1841519242,2.47310757637024,-2.15285015106201,59.58308792114258,-2.31919908523560,0.70000898838043,10.14168167114258,1.02300691604614,0.80080348253250,2.05905175209045
661,1841527575,2.48008441925049,-2.14966678619385,59.58355712890625,-3.70604205131531,1.19008517265320,10.66206455230713,0.96588724851608,-0.16537831723690,2.63678073883057
662,1841535908,2.46741843223572,-2.14683914184570,59.58350372314453,-4.60410785675049,0.97925287485123,10.63246631622314,-1.40113699436188,-0.19129990041256,2.44810605049133
663,1841544241,2.46722888946533,-2.14353847503662,59.58193206787109,-4.40681219100952,0.66574400663376,10.40017890930176,0.09707794338465,-0.16148494184017,2.39029479026794
664,1841552574,2.47578763961792,-2.15017437934875,59.58013534545898,-2.54699611663818,0.72195619344711,10.50624656677246,1.13650369644165,-1.37157833576202,2.30251455307007
665,1841560907,2.46338176727295,-2.16550397872925,59.58268356323242,0.12189172953367,0.73665714263916,10.20924758911133,-1.35139417648315,-2.37237739562988,2.97967815399170
666,1841569240,2.44607400894165,-2.17728471755981,59.58498001098633,1.62416231632233,0.03961662575603,9.86036872863770,-1.95227837562561,-1.97799503803253,2.80493783950806
667,1841577573,2.44737577438354,-2.17978477478027,59.58525848388672,2.05109453201294,-0.19076994061470,9.78127384185791,0.28360080718994,-0.84704995155334,2.64090442657471
668,1841585906,2.44920778274536,-2.16953063011169,59.59281539916992,1.83606636524200,0.60897105932236,10.62148284912109,0.37166258692741,0.69972974061966,3.31048631668091
669,1841594239,2.42497611045837,-2.15749073028564,59.59300613403320,0.28551724553108,0.23370631039143,10.38676738739014,-2.78118085861206,0.89649820327759,2.55576276779175
670,1841602572,2.42463731765747,-2.16030550003052,59.59316253662109,-0.63955694437027,-0.11468632519245,9.76189899444580,0.07843078672886,-0.90014821290970,2.47810053825378
671,1841610905,2.44481873512268,-2.17174291610718,59.58543777465820,-0.18560928106308,0.93461197614670,10.22942256927490,2.51311516761780,-1.96055197715759,1.72619473934174
672,1841619238,2.42907643318176,-2.17038750648499,59.58724594116211,0.29775169491768,1.21786940097809,10.08070564270020,-1.76298940181732,-0.39611136913300,2.66393160820007
673,1841627571,2.40391540527344,-2.16503572463989,59.58287429809570,-0.10915813595057,-0.02583845332265,9.92002964019775,-2.91352963447571,0.07051599025726,2.04422068595886
674,1841635904,2.41718697547913,-2.17337441444397,59.58196640014648,1.09295344352722,0.29717364907265,10.12241649627686,1.70519077777863,-1.57510900497437,2.37682151794434
675,1841644237,2.41156482696533,-2.18277835845947,59.57699584960938,2.57553601264954,0.93087738752365,10.02326679229736,-0.57197874784470,-1.70033705234528,2.04591155052185
676,1841652570,2.40120363235474,-2.18366765975952,59.57933044433594,3.36390209197998,0.59496694803238,10.39904975891113,-1.11464190483093,-0.65384179353714,2.78393459320068
677,1841660903,2.37638688087463,-2.18592524528503,59.56843566894531,3.20750045776367,-0.51837754249573,9.69856739044189,-2.90151667594910,-0.87294602394104,1.30133116245270
678,1841669236,2.39703440666199,-2.19040799140930,59.57618331909180,3.99959635734558,-0.09349557757378,10.07436466217041,2.63252878189087,-1.03759431838989,3.44572949409485
679,1841677569,2.40789651870728,-2.19136643409729,59.56704330444336,4.46611022949219,0.62332254648209,10.41179084777832,1.38821458816528,-0.70878428220749,1.50537419319153
680,1841685902,2.37819337844849,-2.17531490325928,59.57576751708984,3.21906304359436,-0.25717228651047,9.82286834716797,-3.40583491325378,1.45324921607971,3.39775395393372
681,1841694235,2.39341497421265,-2.17560052871704,59.57811355590820,1.93715512752533,-0.37757435441017,10.27972030639648,1.96269071102142,-0.57162004709244,2.87640166282654
682,1841702568,2.41906952857971,-2.17233395576477,59.58798980712891,1.28380191326141,0.50834113359451,9.96201133728027,3.24947333335876,-0.05838765203953,3.64206266403198
683,1841710901,2.40559029579163,-2.15915465354919,59.58723449707031,-0.06014490500093,0.73497599363327,10.00802803039551,-1.49596095085144,1.02795052528381,2.43637466430664
684,1841719234,2.40917325019836,-2.15991759300232,59.59992218017578,-0.89088839292526,0.21630649268627,10.21586513519287,0.61206495761871,-0.52496373653412,4.01839923858643
685,1841727567,2.42670369148254,-2.17322468757629,59.59432220458984,-0.24062924087048,0.32794460654259,10.19044971466064,2.20482182502747,-2.17250943183899,1.98979032039642
686,1841735900,2.44203543663025,-2.18499922752380,59.59864807128906,1.22843515872955,0.91683453321457,10.07636737823486,1.98518002033234,-1.89249491691589,3.07101845741272
687,1841744233,2.43790292739868,-2.18961429595947,59.59749984741211,2.09868168830872,0.53124564886093,10.10070037841797,-0.37454411387444,-1.10841751098633,2.48160934448242
688,1841752566,2.43859243392944,-2.18656015396118,59.60335922241211,1.92559206485748,-0.08076903223991,9.73542118072510,0.23554852604866,-0.09737252444029,3.22613883018494
689,1841760899,2.46593546867371,-2.18377947807312,59.59698867797852,1.75217187404633,0.58461171388626,10.13978481292725,3.37728762626648,-0.24836838245392,1.81825184822083
690,1841769232,2.46509146690369,-2.17448425292969,59.60236358642578,0.72865688800812,0.96278965473175,10.23377704620361,0.05058811232448,0.65849071741104,3.16543269157410
691,1841777565,2.44999361038208,-2.16322660446167,59.60024642944336,-1.36225795745850,0.30151498317719,9.99147415161133,-1.69495785236359,0.79073703289032,2.28340649604797
692,1841785898,2.46825146675110,-2.15396118164062,59.60079956054688,-2.88055181503296,0.28883871436119,10.33684253692627,2.31673073768616,0.62068414688110,2.50438070297241
693,1841794231,2.48444056510925,-2.15012073516846,59.59152221679688,-3.29251694679260,1.12696325778961,10.46335315704346,2.02734112739563,-0.13669036328793,1.46682476997375
694,1841802564,2.46835303306580,-2.13898348808289,59.59628295898438,-3.78018498420715,1.00280654430389,10.50578784942627,-1.78363430500031,0.84877884387970,3.10746741294861
