sep=,
DeviceTag:,left leg
FirmwareVersion:,2.2.1
AppVersion:,2023.6.0
StartTime: ,2025-03-06_12:24:10_000 PST
© Movella Technologies B. V. 2005-2025

PacketCounter,SampleTimeFine,Euler_X,Euler_Y,Euler_Z,Acc_X,Acc_Y,Acc_Z,Gyr_X,Gyr_Y,Gyr_Z
0,874374696,1.55410301685333,-0.50843274593353,50.80058288574219,0.00000000000000,0.00000000000000,0.00000000000000,0.00000000000000,0.00000000000000,0.00000000000000
1,874383029,1.55464637279510,-0.50843453407288,50.80029678344727,0.08510484546423,0.27900788187981,10.01469326019287,1.36786413192749,1.79843962192535,0.72996729612350
2,874391362,1.55428063869476,-0.50771188735962,50.80047607421875,0.06951493024826,0.25276225805283,9.99547672271729,1.25785112380981,1.88350427150726,0.77089887857437
3,874399695,1.55394649505615,-0.50749450922012,50.80012130737305,0.08937622606754,0.31180125474930,10.00261116027832,1.26197493076324,1.82454037666321,0.72107911109924
4,874408028,1.55384111404419,-0.50665736198425,50.80038452148438,0.07332622259855,0.24901047348976,10.02282333374023,1.28940761089325,1.89853990077972,0.79958671331406
5,874416361,1.55430448055267,-0.50721704959869,50.79968261718750,0.06781039386988,0.26612275838852,9.98924160003662,1.35854053497314,1.72981882095337,0.68071103096008
6,874424694,1.55420136451721,-0.50666594505310,50.79979324340820,0.06958907842636,0.29752644896507,10.00063610076904,1.28792226314545,1.86470353603363,0.79057055711746
7,874433027,1.55376410484314,-0.50616508722305,50.79959106445312,0.07036049664021,0.26311033964157,9.99310970306396,1.25016665458679,1.85942685604095,0.73893225193024
8,874441360,1.55415391921997,-0.50572520494461,50.79935455322266,0.08708687126637,0.25061208009720,9.97658729553223,1.34939646720886,1.84879708290100,0.73867619037628
9,874449693,1.55432701110840,-0.50593191385269,50.79914474487305,0.06130928546190,0.30474027991295,10.02228260040283,1.32319295406342,1.77423393726349,0.73972624540329
10,874458026,1.55363321304321,-0.50578814744949,50.79949951171875,0.06386079639196,0.27110508084297,10.00443077087402,1.21802079677582,1.81570363044739,0.81311100721359
11,874466359,1.55313563346863,-0.50600773096085,50.79896163940430,0.06358774751425,0.24708770215511,9.99141883850098,1.24243128299713,1.77182638645172,0.70033168792725
12,874474692,1.55305898189545,-0.50661247968674,50.79846191406250,0.06550288200378,0.29916337132454,10.02063083648682,1.29214847087860,1.72251880168915,0.72043883800507
13,874483025,1.55288136005402,-0.50809597969055,50.79906082153320,0.07845766842365,0.28070706129074,9.97290420532227,1.28238952159882,1.62367355823517,0.84138917922974
14,874491358,1.55373942852020,-0.50798863172531,50.79902648925781,0.06763274967670,0.26030081510544,10.00604438781738,1.40421068668365,1.81045246124268,0.77112936973572
15,874499691,1.55444025993347,-0.50773596763611,50.79904937744141,0.10196416825056,0.29382511973381,10.01279926300049,1.38771522045135,1.82991933822632,0.76536607742310
16,874508024,1.55446457862854,-0.50796800851822,50.79888916015625,0.09580259770155,0.27602413296700,9.98930263519287,1.30359804630280,1.76929056644440,0.75432646274567
17,874516357,1.55504488945007,-0.50745028257370,50.79889678955078,0.07917449623346,0.24640761315823,10.00238037109375,1.37206494808197,1.86191177368164,0.76429039239883
18,874524690,1.55508434772491,-0.50758916139603,50.79919052124023,0.07427609711885,0.27716937661171,9.97764110565186,1.30695343017578,1.78094482421875,0.80504256486893
19,874533023,1.55517351627350,-0.50786703824997,50.79931640625000,0.07784555852413,0.28285926580429,9.98050880432129,1.31358754634857,1.76690804958344,0.78070896863937
20,874541356,1.55511665344238,-0.50848579406738,50.79931640625000,0.09076742827892,0.26398849487305,10.01637649536133,1.29401826858521,1.72341537475586,0.77545803785324
21,874549689,1.55570280551910,-0.50880336761475,50.79865646362305,0.09527562558651,0.28775674104691,10.00783252716064,1.37229526042938,1.75935208797455,0.68652546405792
22,874558022,1.55554437637329,-0.50856840610504,50.79853439331055,0.08152445405722,0.27166464924812,10.00751399993896,1.28269684314728,1.82487332820892,0.75606817007065
23,874566355,1.55549073219299,-0.50921410322189,50.79882812500000,0.07123809307814,0.24189373850822,10.00253582000732,1.29681026935577,1.72354340553284,0.79925382137299
24,874574688,1.55551326274872,-0.50849229097366,50.79908370971680,0.06935881078243,0.28547096252441,10.00121784210205,1.30341875553131,1.88358139991760,0.77684140205383
25,874583021,1.55510020256042,-0.50875109434128,50.79855346679688,0.09940372407436,0.27303525805473,9.98411083221436,1.25311243534088,1.76654970645905,0.70051085948944
26,874591354,1.55546808242798,-0.50763052701950,50.79852676391602,0.09435656666756,0.24893185496330,9.97588729858398,1.34476017951965,1.93311917781830,0.76295846700668
27,874599687,1.55643701553345,-0.50688052177429,50.79811859130859,0.06903783231974,0.27694839239120,9.96081733703613,1.41919517517090,1.88775646686554,0.71219104528427
28,874608020,1.55711078643799,-0.50727462768555,50.79807281494141,0.06377854198217,0.29473394155502,10.01368045806885,1.38164448738098,1.75041270256042,0.76347064971924
29,874616353,1.55711686611176,-0.50764173269272,50.79854583740234,0.07198476046324,0.26553082466125,10.01763343811035,1.30472505092621,1.75648307800293,0.82276755571365
30,874624686,1.55729126930237,-0.50830191373825,50.79956054687500,0.08500717580318,0.28636416792870,9.99954986572266,1.32293677330017,1.72098195552826,0.88798141479492
31,874633019,1.55738604068756,-0.50822037458420,50.79914093017578,0.09068974852562,0.27311784029007,9.99846553802490,1.31397175788879,1.80771183967590,0.71313863992691
32,874641352,1.55809724330902,-0.50679683685303,50.79939270019531,0.05820199102163,0.28451061248779,9.98346996307373,1.38640892505646,1.96915853023529,0.79536044597626
33,874649685,1.55788016319275,-0.50778645277023,50.79965591430664,0.08094277977943,0.28449907898903,10.01734447479248,1.27816307544708,1.68168973922729,0.79638499021530
34,874658018,1.55767667293549,-0.50786179304123,50.79957199096680,0.07823766767979,0.27540245652199,9.99638366699219,1.27752280235291,1.78824496269226,0.76352190971375
35,874666351,1.55715394020081,-0.50684648752213,50.79988098144531,0.06730060279369,0.25159218907356,10.02288627624512,1.23938322067261,1.92279672622681,0.79902333021164
36,874674684,1.55734097957611,-0.50664460659027,50.79953765869141,0.08348171412945,0.27501651644707,10.01269340515137,1.32385885715485,1.82028830051422,0.74182665348053
37,874683017,1.55765676498413,-0.50671422481537,50.79955291748047,0.06129252910614,0.30509614944458,9.99554061889648,1.34143030643463,1.79113948345184,0.76539176702499
38,874691350,1.55781984329224,-0.50677627325058,50.79954528808594,0.08210055530071,0.26717057824135,10.01403617858887,1.32027292251587,1.78919267654419,0.75686216354370
39,874699683,1.55848407745361,-0.50783681869507,50.79937362670898,0.08391373604536,0.24462838470936,10.02625370025635,1.38223373889923,1.67203319072723,0.74687272310257
40,874708016,1.55856847763062,-0.50699234008789,50.79923629760742,0.07364981621504,0.27141955494881,10.01957988739014,1.31235814094543,1.89748954772949,0.74367082118988
41,874716349,1.55872142314911,-0.50761234760284,50.79927444458008,0.07349496334791,0.28254514932632,10.02646446228027,1.32101559638977,1.72561812400818,0.77128303050995
42,874724682,1.55860137939453,-0.50769543647766,50.79875564575195,0.06453457474709,0.25300171971321,10.00137519836426,1.28607785701752,1.78665697574615,0.72246223688126
43,874733015,1.55897605419159,-0.50718170404434,50.79887008666992,0.07566305994987,0.27689746022224,9.98902893066406,1.34791076183319,1.86152756214142,0.77612423896790
44,874741348,1.55928051471710,-0.50669932365417,50.79926681518555,0.08236608654261,0.26907658576965,10.01289463043213,1.33920180797577,1.85640442371368,0.82353609800339
45,874749681,1.55912649631500,-0.50532877445221,50.79920578002930,0.07929357141256,0.27390757203102,10.00523281097412,1.28333711624146,1.96436846256256,0.75486421585083
46,874758014,1.55896532535553,-0.50522798299789,50.79904937744141,0.09360442310572,0.27987155318260,10.00420188903809,1.28292727470398,1.80768620967865,0.75629872083664
47,874766347,1.55925846099854,-0.50501656532288,50.79912185668945,0.07441726326942,0.26246374845505,10.01683425903320,1.33810055255890,1.82551383972168,0.77325534820557
48,874774680,1.55901622772217,-0.50566416978836,50.79904174804688,0.06696793437004,0.27332809567451,10.01077175140381,1.27229738235474,1.71821558475494,0.75194430351257
49,874783013,1.55870842933655,-0.50515383481979,50.79840469360352,0.05283015966415,0.27984777092934,10.01751708984375,1.26504874229431,1.85881209373474,0.68580830097198
50,874791346,1.55883204936981,-0.50491088628769,50.79800796508789,0.09155849367380,0.26506868004799,9.97315311431885,1.31555986404419,1.82610273361206,0.72417837381363
51,874799679,1.55907356739044,-0.50529253482819,50.79754638671875,0.08459199965000,0.26122766733170,9.99303531646729,1.33051848411560,1.75251317024231,0.71124321222305
52,874808012,1.55845904350281,-0.50519007444382,50.79801559448242,0.09634999185801,0.28819003701210,10.01083374023438,1.22872757911682,1.81119525432587,0.81772160530090
53,874816345,1.55881929397583,-0.50626134872437,50.79761505126953,0.08837522566319,0.28478348255157,10.00723075866699,1.34552848339081,1.66954863071442,0.72120714187622
54,874824678,1.55886089801788,-0.50660514831543,50.79776382446289,0.08282640576363,0.26518726348877,9.98766517639160,1.30656945705414,1.75653469562531,0.78803479671478
55,874833011,1.55850553512573,-0.50652426481247,50.79755401611328,0.06716356426477,0.27089750766754,9.97917270660400,1.25961852073669,1.80909514427185,0.73906040191650
56,874841344,1.55917406082153,-0.50705260038376,50.79788970947266,0.06887677311897,0.28051340579987,10.02318191528320,1.38233613967896,1.73458313941956,0.80327516794205
57,874849677,1.55914199352264,-0.50765901803970,50.79832077026367,0.07095456123352,0.25775924324989,10.00993061065674,1.30029368400574,1.72782087326050,0.81674826145172
58,874858010,1.55935156345367,-0.50773602724075,50.79783630371094,0.07501345127821,0.27476817369461,10.02244663238525,1.32595920562744,1.78668236732483,0.71529030799866
59,874866343,1.55932331085205,-0.50729817152023,50.79769134521484,0.08180169761181,0.29804077744484,9.99598884582520,1.29885947704315,1.85230636596680,0.74559199810028
60,874874676,1.55897688865662,-0.50787818431854,50.79764938354492,0.08713238686323,0.26374706625938,10.00980281829834,1.25933670997620,1.72751355171204,0.77238440513611
61,874883009,1.55884349346161,-0.50749820470810,50.79748916625977,0.08558277785778,0.26923111081123,9.99624919891357,1.28766608238220,1.84431457519531,0.74408078193665
62,874891342,1.55829298496246,-0.50736409425735,50.79760360717773,0.08728609979153,0.26924917101860,10.01111984252930,1.23574602603912,1.81344938278198,0.77210265398026
63,874899675,1.55839872360229,-0.50706750154495,50.79829788208008,0.09441899508238,0.25862351059914,10.01032829284668,1.31566250324249,1.83791112899780,0.84658890962601
64,874908008,1.55846357345581,-0.50654304027557,50.79876327514648,0.08726161718369,0.26298645138741,10.00968360900879,1.30925881862640,1.86127114295959,0.81818270683289
65,874916341,1.55892610549927,-0.50630044937134,50.79842758178711,0.07313584536314,0.28422191739082,9.98592376708984,1.35738790035248,1.82845938205719,0.72195011377335
66,874924674,1.55854952335358,-0.50624084472656,50.79740142822266,0.08467867970467,0.26475757360458,9.97008419036865,1.25539195537567,1.80089831352234,0.64695149660110
67,874933007,1.55863773822784,-0.50559771060944,50.79720306396484,0.07990901917219,0.26694616675377,9.98785686492920,1.31404852867126,1.87569189071655,0.73941892385483
68,874941340,1.55854177474976,-0.50576335191727,50.79693603515625,0.09316799044609,0.26715829968452,9.99440479278564,1.28922855854034,1.77659070491791,0.73655015230179
69,874949673,1.55824530124664,-0.50595277547836,50.79700469970703,0.07929756492376,0.25760397315025,9.95629215240479,1.26809668540955,1.77684664726257,0.77371644973755
70,874958006,1.55759322643280,-0.50559973716736,50.79763031005859,0.09274893999100,0.27767699956894,9.99856758117676,1.22360467910767,1.84226536750793,0.83844345808029
71,874966339,1.55788373947144,-0.50557988882065,50.79752349853516,0.06933110207319,0.28583690524101,10.00175189971924,1.33687102794647,1.80164122581482,0.75225168466568
72,874974672,1.55844163894653,-0.50569683313370,50.79752349853516,0.07867384701967,0.30070766806602,9.99915409088135,1.36796665191650,1.78281474113464,0.74318420886993
73,874983005,1.55782091617584,-0.50608396530151,50.79735183715820,0.09360039979219,0.25728887319565,9.99343967437744,1.22818982601166,1.75235950946808,0.74584811925888
74,874991338,1.55766153335571,-0.50660270452499,50.79688262939453,0.09129485487938,0.25598344206810,9.97994804382324,1.28164660930634,1.73368668556213,0.70670962333679
75,874999671,1.55759215354919,-0.50637787580490,50.79702758789062,0.07289780676365,0.27139800786972,10.02955055236816,1.29435122013092,1.82730662822723,0.78070902824402
76,875008004,1.55744469165802,-0.50582730770111,50.79739379882812,0.08430382609367,0.27445659041405,9.96721744537354,1.28543758392334,1.86362755298615,0.80929452180862
77,875016337,1.55746698379517,-0.50622051954269,50.79719543457031,0.06770534068346,0.29519817233086,10.01166439056396,1.30462265014648,1.75243651866913,0.74169862270355
78,875024670,1.55753421783447,-0.50663822889328,50.79758834838867,0.07136144489050,0.26690581440926,10.01922225952148,1.30948936939240,1.74805617332458,0.81554436683655
79,875033003,1.55778467655182,-0.50711995363235,50.79787445068359,0.07286450266838,0.27237954735756,10.02565765380859,1.33425831794739,1.74247229099274,0.79892075061798
80,875041336,1.55817615985870,-0.50723123550415,50.79770278930664,0.06953008472919,0.28055000305176,10.00348281860352,1.34762883186340,1.78342938423157,0.75624746084213
81,875049669,1.55798351764679,-0.50731217861176,50.79787445068359,0.07350502908230,0.27184143662453,10.00005149841309,1.28005862236023,1.79126775264740,0.78416699171066
82,875058002,1.55765688419342,-0.50699937343597,50.79791641235352,0.08275452256203,0.26735997200012,9.99720764160156,1.26220536231995,1.83481168746948,0.78111886978149
83,875066335,1.55804991722107,-0.50697880983353,50.79804992675781,0.06774885207415,0.27050206065178,9.98495864868164,1.35016477108002,1.80281972885132,0.78006875514984
84,875074668,1.55769562721252,-0.50729858875275,50.79779815673828,0.07610262930393,0.26941448450089,10.00002861022949,1.25844013690948,1.75807142257690,0.74308174848557
85,875083001,1.55740118026733,-0.50700026750565,50.79742813110352,0.08519763499498,0.28647896647453,10.02902030944824,1.26661109924316,1.83455550670624,0.71844083070755
86,875091334,1.55626058578491,-0.50751215219498,50.79700469970703,0.10298799723387,0.27946561574936,9.97762584686279,1.16487121582031,1.73412203788757,0.71826153993607
87,875099667,1.55584728717804,-0.50779730081558,50.79715728759766,0.07670338451862,0.27627643942833,10.00023078918457,1.25270247459412,1.76639604568481,0.78327047824860
88,875108000,1.55549705028534,-0.50832819938660,50.79746246337891,0.08718221634626,0.27154061198235,9.98852348327637,1.26084780693054,1.73386597633362,0.81003731489182
89,875116333,1.55514526367188,-0.50852000713348,50.79677963256836,0.09263253957033,0.28049132227898,10.00142097473145,1.25869619846344,1.77548897266388,0.68117213249207
90,875124666,1.55555772781372,-0.50786125659943,50.79665756225586,0.07148719578981,0.27037397027016,9.98265552520752,1.35182976722717,1.87487244606018,0.74723130464554
91,875132999,1.55506157875061,-0.50689303874969,50.79634475708008,0.08171319961548,0.27089551091194,9.99042797088623,1.24266195297241,1.91475391387939,0.72479325532913
92,875141332,1.55515682697296,-0.50726115703583,50.79656982421875,0.08420026302338,0.29184749722481,9.98600959777832,1.31271684169769,1.75453650951385,0.79292708635330
93,875149665,1.55429804325104,-0.50719964504242,50.79676818847656,0.06410311162472,0.28209039568901,10.00057411193848,1.20014214515686,1.80773746967316,0.78644663095474
94,875157998,1.55419707298279,-0.50714409351349,50.79628372192383,0.08245281875134,0.25786593556404,10.00408840179443,1.28938198089600,1.80164122581482,0.71260076761246
95,875166331,1.55530023574829,-0.50675016641617,50.79577636718750,0.10223528742790,0.27707603573799,10.01861476898193,1.43379509449005,1.84603071212769,0.70179158449173
96,875174664,1.55530869960785,-0.50737780332565,50.79533386230469,0.07513725757599,0.29068371653557,10.00441169738770,1.30295753479004,1.72016215324402,0.71541833877563
97,875182997,1.55588996410370,-0.50746715068817,50.79490280151367,0.08424156904221,0.27610933780670,10.01621723175049,1.37188553810120,1.78755354881287,0.71278011798859
98,875191330,1.55616188049316,-0.50767773389816,50.79509353637695,0.07683850079775,0.25687021017075,10.01012420654297,1.33392524719238,1.77262020111084,0.78265577554703
99,875199663,1.55611193180084,-0.50591129064560,50.79466247558594,0.06910771876574,0.27600696682930,10.00888729095459,1.29668223857880,2.01024389266968,0.70806717872620
100,875207996,1.55594384670258,-0.50650119781494,50.79532241821289,0.07463760674000,0.27777600288391,9.99187660217285,1.28218448162079,1.72894799709320,0.84984189271927
101,875216329,1.55557715892792,-0.50717490911484,50.79446792602539,0.08338545262814,0.26582142710686,9.97493743896484,1.25756931304932,1.71606397628784,0.66500955820084
102,875224662,1.55577492713928,-0.50790148973465,50.79380035400391,0.07658046483994,0.28229185938835,9.99801731109619,1.32498586177826,1.70825171470642,0.69277536869049
103,875232995,1.55581009387970,-0.50800949335098,50.79386520385742,0.06826514005661,0.25440305471420,10.00715637207031,1.30736327171326,1.78660559654236,0.77389568090439
104,875241328,1.55553436279297,-0.50742131471634,50.79358291625977,0.07403716444969,0.27941635251045,10.00679779052734,1.26763558387756,1.86713683605194,0.72876334190369
105,875249661,1.55477011203766,-0.50644689798355,50.79391479492188,0.07384730130434,0.29771167039871,10.01112556457520,1.21064424514771,1.91808366775513,0.80038088560104
106,875257994,1.55477166175842,-0.50642323493958,50.79421234130859,0.09131061285734,0.26393851637840,9.99458217620850,1.30318820476532,1.80061650276184,0.80440229177475
107,875266327,1.55446434020996,-0.50600284337997,50.79413986206055,0.07179173082113,0.25870278477669,9.98189258575439,1.26543283462524,1.85033392906189,0.75401902198792
108,875274660,1.55491566658020,-0.50592637062073,50.79467010498047,0.08684624731541,0.29298409819603,10.01270389556885,1.35600471496582,1.80740451812744,0.83081048727036
109,875282993,1.55407571792603,-0.50637483596802,50.79442596435547,0.08724418282509,0.27084106206894,9.97386074066162,1.20239639282227,1.74482905864716,0.73631972074509
110,875291326,1.55464243888855,-0.50629669427872,50.79451751708984,0.08938800543547,0.25781759619713,9.97869586944580,1.36945235729218,1.80717420578003,0.79074990749359
111,875299659,1.55489683151245,-0.50695478916168,50.79459381103516,0.07950283586979,0.26474261283875,9.98505115509033,1.33346426486969,1.72100758552551,0.77481776475906
112,875307992,1.55340063571930,-0.50648254156113,50.79468154907227,0.05965312942863,0.28361585736275,10.00322914123535,1.12186503410339,1.85473942756653,0.77538132667542
113,875316325,1.55311083793640,-0.50684684514999,50.79487991333008,0.05141507089138,0.26469212770462,9.99477672576904,1.26819908618927,1.75640642642975,0.78939229249954
114,875324658,1.55329978466034,-0.50751721858978,50.79465484619141,0.07842230796814,0.27657881379128,10.00380516052246,1.32403826713562,1.71616673469543,0.74128884077072
115,875332991,1.55349767208099,-0.50702553987503,50.79399108886719,0.08749620616436,0.27143120765686,9.99125576019287,1.32578015327454,1.85619974136353,0.68112093210220
116,875341324,1.55322659015656,-0.50747251510620,50.79377365112305,0.07761912047863,0.26601275801659,10.02973556518555,1.26922380924225,1.74198591709137,0.74139124155045
117,875349657,1.55314147472382,-0.50688880681992,50.79385757446289,0.09024196118116,0.28476762771606,10.00331497192383,1.29240465164185,1.87013351917267,0.77235889434814
118,875357990,1.55349278450012,-0.50686144828796,50.79319000244141,0.09992886334658,0.28895607590675,10.01778411865234,1.34337687492371,1.79851627349854,0.68196618556976
119,875366323,1.55249917507172,-0.50685173273087,50.79285430908203,0.08523009717464,0.26577472686768,9.99652099609375,1.18262195587158,1.79969441890717,0.72568964958191
120,875374656,1.55219423770905,-0.50649684667587,50.79220962524414,0.06978165358305,0.29092371463776,10.00899219512939,1.26440834999084,1.83762907981873,0.69016277790070
121,875382989,1.55202090740204,-0.50600522756577,50.79193115234375,0.07899511605501,0.29126361012459,10.00462913513184,1.28128802776337,1.85760831832886,0.73006969690323
122,875391322,1.55278193950653,-0.50604766607285,50.79180908203125,0.07047788798809,0.26451495289803,9.96093177795410,1.39201855659485,1.79226660728455,0.75409597158432
123,875399655,1.55281412601471,-0.50644141435623,50.79199218750000,0.08310730010271,0.26736983656883,9.97133541107178,1.30705595016479,1.75315344333649,0.78716385364532
124,875407988,1.55292701721191,-0.50628417730331,50.79213714599609,0.08605995029211,0.28540673851967,10.00248432159424,1.31612336635590,1.81608736515045,0.77794265747070
125,875416321,1.55318295955658,-0.50553894042969,50.79233932495117,0.06947901099920,0.27878701686859,10.01361370086670,1.33387410640717,1.88947260379791,0.78701025247574
126,875424654,1.55335426330566,-0.50527334213257,50.79210281372070,0.05641366913915,0.24827535450459,10.00266838073730,1.32163035869598,1.82884359359741,0.73742103576660
127,875432987,1.55407595634460,-0.50519108772278,50.79196548461914,0.07533925771713,0.27892383933067,10.01451396942139,1.38866293430328,1.80932545661926,0.74566882848740
128,875441320,1.55390775203705,-0.50442630052567,50.79155349731445,0.05092309787869,0.26620101928711,9.98771953582764,1.28223586082458,1.88760280609131,0.74044352769852
129,875449653,1.55394339561462,-0.50395417213440,50.79134750366211,0.05929905921221,0.28288838267326,10.00687313079834,1.30633866786957,1.85563588142395,0.73821502923965
130,875457986,1.55315458774567,-0.50382584333420,50.79123687744141,0.06990604847670,0.28253260254860,9.97254943847656,1.20664823055267,1.81224560737610,0.75291770696640
131,875466319,1.55288743972778,-0.50372630357742,50.79110717773438,0.09702384471893,0.26445779204369,9.97070121765137,1.27124726772308,1.81096470355988,0.74700069427490
132,875474652,1.55327928066254,-0.50276154279709,50.79091644287109,0.07619250565767,0.27949044108391,9.98116111755371,1.34791052341461,1.91247391700745,0.75450563430786
133,875482985,1.55289340019226,-0.50291281938553,50.79040145874023,0.06213927641511,0.28393229842186,10.01192378997803,1.25636553764343,1.77953636646271,0.70348215103149
134,875491318,1.55313432216644,-0.50211006402969,50.79164123535156,0.06687419861555,0.26010435819626,10.00934505462646,1.33092844486237,1.89772021770477,0.90329873561859
135,875499651,1.55364131927490,-0.50175946950912,50.79194641113281,0.07075821608305,0.25865942239761,9.97561836242676,1.36425244808197,1.84241926670074,0.79848533868790
136,875507984,1.55335891246796,-0.50170856714249,50.79125976562500,0.09035317599773,0.30352514982224,9.98478698730469,1.26727700233459,1.80030918121338,0.67110574245453
137,875516317,1.55213737487793,-0.50150525569916,50.79083633422852,0.06873631477356,0.27815181016922,10.01702785491943,1.15623939037323,1.82282423973083,0.71142256259918
138,875524650,1.55258083343506,-0.50156056880951,50.79078292846680,0.08938786387444,0.26715916395187,9.98834419250488,1.35377621650696,1.79098570346832,0.76395732164383
139,875532983,1.55334508419037,-0.50143092870712,50.79010009765625,0.07145187258720,0.28719440102577,9.96118736267090,1.39317119121552,1.81337273120880,0.68365681171417
140,875541316,1.55368137359619,-0.50183224678040,50.78974533081055,0.07290855795145,0.28973731398582,10.01011753082275,1.34204494953156,1.74700605869293,0.72446018457413
141,875549649,1.55349850654602,-0.50241583585739,50.78934478759766,0.06485042721033,0.27307602763176,10.00771617889404,1.28044271469116,1.72884559631348,0.71649408340454
142,875557982,1.55383348464966,-0.50267148017883,50.78956222534180,0.08030007779598,0.27365604043007,10.00430011749268,1.34242916107178,1.76624238491058,0.78329610824585
143,875566315,1.55392599105835,-0.50262826681137,50.78929519653320,0.09214440733194,0.26333859562874,10.02046871185303,1.31297278404236,1.80456113815308,0.73250305652618
144,875574648,1.55398976802826,-0.50110739469528,50.78924179077148,0.07840730994940,0.27406865358353,9.98292446136475,1.31020665168762,1.97894322872162,0.76131916046143
145,875582981,1.55490887165070,-0.50049453973770,50.78918075561523,0.10068812966347,0.28054967522621,10.03555297851562,1.41312456130981,1.87320733070374,0.75299447774887
146,875591314,1.55493724346161,-0.49945482611656,50.78929901123047,0.07028709352016,0.26999214291573,10.00699138641357,1.30492997169495,1.92156720161438,0.77914655208588
147,875599647,1.55517196655273,-0.50011134147644,50.79005050659180,0.08012364059687,0.25279363989830,10.01108360290527,1.33100533485413,1.72423517704010,0.85516965389252
148,875607980,1.55490386486053,-0.49964034557343,50.78984069824219,0.06877648085356,0.26419523358345,10.01467132568359,1.27058112621307,1.85215246677399,0.74520766735077
149,875616313,1.55419361591339,-0.49925875663757,50.78980255126953,0.06909843534231,0.27541461586952,10.01016712188721,1.21643280982971,1.84623563289642,0.75658047199249
150,875624646,1.55454576015472,-0.50047689676285,50.78920364379883,0.07078185677528,0.23105677962303,9.99146175384521,1.34353053569794,1.64900600910187,0.70074141025543
151,875632979,1.55452036857605,-0.50113672018051,50.78897094726562,0.08182507008314,0.27588304877281,10.00077152252197,1.29921805858612,1.71990609169006,0.73990553617477
152,875641312,1.55467343330383,-0.50064229965210,50.78970336914062,0.09303580224514,0.29320129752159,9.99835205078125,1.32129764556885,1.85822319984436,0.85409390926361
153,875649645,1.55509364604950,-0.50098735094070,50.78980636596680,0.10406416654587,0.24875757098198,10.00302505493164,1.35316169261932,1.75909614562988,0.77663642168045
154,875657978,1.55528104305267,-0.50038009881973,50.78987503051758,0.08142451196909,0.26434284448624,9.99867439270020,1.32437121868134,1.86995446681976,0.76690310239792
155,875666311,1.55586767196655,-0.50041216611862,50.79009246826172,0.05952474102378,0.28051778674126,9.99971199035645,1.37316644191742,1.79623663425446,0.79054498672485
156,875674644,1.55541336536407,-0.50039404630661,50.78998184204102,0.06678207218647,0.30193108320236,10.03970241546631,1.24724674224854,1.79869580268860,0.75460815429688
157,875682977,1.55453824996948,-0.50045788288116,50.79063796997070,0.06945474445820,0.29873421788216,10.00207328796387,1.19855403900146,1.79441797733307,0.84261864423752
158,875691310,1.55402636528015,-0.50083506107330,50.79094314575195,0.08821924030781,0.24803861975670,10.02108478546143,1.24007487297058,1.75264143943787,0.79927945137024
159,875699643,1.55428421497345,-0.50022637844086,50.79162216186523,0.05858416855335,0.25850224494934,9.99842071533203,1.33484745025635,1.87484681606293,0.84372013807297
160,875707976,1.55476403236389,-0.50077331066132,50.79161071777344,0.08300351351500,0.28567692637444,9.99234580993652,1.35864305496216,1.73158621788025,0.75660604238510
161,875716309,1.55486476421356,-0.50031900405884,50.79244995117188,0.06581649929285,0.27413895726204,10.01637554168701,1.31599545478821,1.85650718212128,0.86410903930664
162,875724642,1.55498969554901,-0.50011563301086,50.79225921630859,0.06613864749670,0.25489401817322,9.99123287200928,1.31637942790985,1.82010889053345,0.73680621385574
163,875732975,1.55529391765594,-0.49970319867134,50.79220962524414,0.07679788023233,0.27531412243843,10.00907039642334,1.33858716487885,1.84987306594849,0.75553029775620
164,875741308,1.55482208728790,-0.49924719333649,50.79273223876953,0.07617069780827,0.27523595094681,9.99958992004395,1.24581241607666,1.85292100906372,0.82681471109390
165,875749641,1.55477821826935,-0.50005418062210,50.79320144653320,0.07126515358686,0.28223329782486,9.99444770812988,1.29801404476166,1.70446085929871,0.82243460416794
166,875757974,1.55539059638977,-0.49942162632942,50.79346084594727,0.07765141129494,0.28626334667206,10.02821254730225,1.37524116039276,1.87315630912781,0.78037613630295
167,875766307,1.55513000488281,-0.49993649125099,50.79352569580078,0.09732295572758,0.27238246798515,9.99522590637207,1.27178514003754,1.73786175251007,0.77292227745056
168,875774640,1.55513453483582,-0.50054824352264,50.79343032836914,0.06006851792336,0.26388710737228,9.98047161102295,1.30188214778900,1.72205793857574,0.73619163036346
169,875782973,1.55524766445160,-0.50050485134125,50.79322052001953,0.06386970728636,0.26637020707130,9.99802684783936,1.31635379791260,1.80430507659912,0.73888099193573
170,875791306,1.55030298233032,-0.51083916425705,50.80252838134766,0.06643169373274,0.25292962789536,10.00551319122314,1.33589768409729,1.97087454795837,0.77279430627823
171,875799639,1.55112469196320,-0.51040434837341,50.80261230468750,0.08059182763100,0.25971305370331,9.98441028594971,1.40236663818359,1.85504698753357,0.77087330818176
172,875807972,1.55122697353363,-0.51047414541245,50.80224227905273,0.08671884238720,0.25186273455620,9.98771572113037,1.31348514556885,1.78865468502045,0.71680152416229
173,875816305,1.55125796794891,-0.51139616966248,50.80224609375000,0.09038145840168,0.27605202794075,9.98083209991455,1.30695366859436,1.68983507156372,0.76621145009995
174,875824638,1.55145215988159,-0.51184481382370,50.80183410644531,0.11034972220659,0.27132135629654,9.98609924316406,1.32483208179474,1.74190878868103,0.72059237957001
175,875832971,1.55081951618195,-0.51266378164291,50.80163955688477,0.09639783948660,0.27287188172340,10.03126811981201,1.22798490524292,1.70110547542572,0.74103266000748
176,875841304,1.55133318901062,-0.51341736316681,50.80096817016602,0.07624670118093,0.28579550981522,10.03099822998047,1.36292064189911,1.70525479316711,0.69884598255157
177,875849637,1.55023968219757,-0.51455605030060,50.80104446411133,0.07084684818983,0.27871701121330,9.99381923675537,1.17265796661377,1.66409277915955,0.77381879091263
178,875857970,1.55073773860931,-0.51445090770721,50.80107498168945,0.06457433104515,0.25306615233421,10.00579547882080,1.36174237728119,1.81006848812103,0.77266621589661
179,875866303,1.55059182643890,-0.51489841938019,50.80146789550781,0.07309417426586,0.26786890625954,9.98418045043945,1.28513026237488,1.74900388717651,0.81067770719528
180,875874636,1.55064749717712,-0.51491850614548,50.80086517333984,0.09531635791063,0.29052159190178,10.02796268463135,1.30800366401672,1.79313731193542,0.69472205638885
181,875882969,1.55034685134888,-0.51520431041718,50.80086517333984,0.09380196034908,0.29081910848618,9.99257087707520,1.26689291000366,1.76631915569305,0.76470011472702
182,875891302,1.55093729496002,-0.51445055007935,50.80146026611328,0.10007765144110,0.26666471362114,10.00497055053711,1.37352502346039,1.89021515846252,0.83969861268997
183,875899635,1.55121803283691,-0.51392811536789,50.80135726928711,0.10934851318598,0.27025669813156,10.00979137420654,1.33786988258362,1.86244964599609,0.74789726734161
184,875907968,1.55237686634064,-0.51259523630142,50.80171203613281,0.07079903036356,0.27824047207832,9.99472999572754,1.44132578372955,1.95873332023621,0.80509376525879
185,875916301,1.55220067501068,-0.51238375902176,50.80152511596680,0.07611797749996,0.27661812305450,10.00374221801758,1.28154432773590,1.82569313049316,0.73918849229813
186,875924634,1.55222928524017,-0.51269096136093,50.80181884765625,0.10493736714125,0.26288050413132,9.95716094970703,1.30564713478088,1.76111948490143,0.79981720447540
187,875932967,1.55204999446869,-0.51260769367218,50.80198287963867,0.09790527820587,0.27718016505241,10.01112747192383,1.28231275081635,1.81129789352417,0.78216910362244
188,875941300,1.55195546150208,-0.51270228624344,50.80210113525391,0.08834982663393,0.27643394470215,9.99194240570068,1.29040670394897,1.78675937652588,0.77253806591034
189,875949633,1.55123651027679,-0.51326799392700,50.80220031738281,0.06642656028271,0.28665915131569,9.99147319793701,1.21709871292114,1.73250830173492,0.78037601709366
190,875957966,1.55110955238342,-0.51276344060898,50.80221557617188,0.07954858243465,0.27575433254242,9.99907398223877,1.28630852699280,1.85870981216431,0.76741534471512
191,875966299,1.55176639556885,-0.51240032911301,50.80222320556641,0.07903601229191,0.26526260375977,10.00680446624756,1.38264369964600,1.84387922286987,0.76298409700394
192,875974632,1.55253469944000,-0.51229411363602,50.80279922485352,0.06984879076481,0.28491339087486,9.99045181274414,1.39483606815338,1.81183552742004,0.83367931842804
193,875982965,1.55282247066498,-0.51238375902176,50.80356216430664,0.06813800334930,0.24581678211689,10.00623989105225,1.33907389640808,1.79203605651855,0.85506731271744
194,875991298,1.55245161056519,-0.51237618923187,50.80337905883789,0.08521330356598,0.27246183156967,9.99147701263428,1.25644218921661,1.79874682426453,0.74187791347504
195,875999631,1.55270373821259,-0.51235288381577,50.80345916748047,0.08667754381895,0.29041862487793,9.98673439025879,1.33364367485046,1.80376744270325,0.77276867628098
196,876007964,1.55232787132263,-0.51191580295563,50.80308532714844,0.09221516549587,0.28750035166740,9.99280071258545,1.25687754154205,1.84897625446320,0.71692955493927
197,876016297,1.55198991298676,-0.51170372962952,50.80328369140625,0.07827966660261,0.28205603361130,9.99890804290771,1.26317882537842,1.82612860202789,0.78829097747803
198,876024630,1.55233883857727,-0.51110523939133,50.80273056030273,0.08237898349762,0.28802612423897,9.98382186889648,1.34250617027283,1.86867380142212,0.69492703676224
199,876032963,1.55156922340393,-0.50986099243164,50.80287933349609,0.08188974857330,0.27494618296623,10.02282238006592,1.21072101593018,1.94994771480560,0.77994072437286
200,876041296,1.55063760280609,-0.50931084156036,50.80345153808594,0.08752387762070,0.26019293069839,9.98480033874512,1.19086980819702,1.86567687988281,0.83055430650711
201,876049629,1.55021905899048,-0.50877892971039,50.80368423461914,0.07387822121382,0.26434889435768,10.01775741577148,1.25354802608490,1.86501097679138,0.79133903980255
202,876057962,1.54969942569733,-0.50841557979584,50.80377578735352,0.07010827213526,0.26112753152847,9.97686386108398,1.23958802223206,1.84075415134430,0.77115494012833
203,876066295,1.55039060115814,-0.50803923606873,50.80318832397461,0.07901955395937,0.26576846837997,10.01952266693115,1.38576853275299,1.84380233287811,0.69223755598068
204,876074628,1.55073368549347,-0.50687962770462,50.80312347412109,0.07018161565065,0.30070766806602,10.00767421722412,1.34289050102234,1.93660283088684,0.75322502851486
205,876082961,1.55063414573669,-0.50619554519653,50.80321884155273,0.07473526895046,0.25760141015053,10.00131320953369,1.29207170009613,1.88237726688385,0.77325534820557
206,876091294,1.55100750923157,-0.50546443462372,50.80302810668945,0.09155743569136,0.26299482584000,10.00429534912109,1.34591281414032,1.88498985767365,0.73975187540054
207,876099627,1.55089759826660,-0.50474113225937,50.80336761474609,0.06569201499224,0.30555862188339,10.00896835327148,1.29073965549469,1.88839662075043,0.80153340101242
208,876107960,1.55085456371307,-0.50508224964142,50.80344009399414,0.08633171021938,0.28313064575195,9.98825645446777,1.29681038856506,1.75597119331360,0.76621145009995
209,876116293,1.55129957199097,-0.50500744581223,50.80272674560547,0.06866135448217,0.27576225996017,9.97712516784668,1.35544109344482,1.80748128890991,0.67692011594772
210,876124626,1.55149984359741,-0.50516760349274,50.80259323120117,0.09467285126448,0.28998118638992,9.96671962738037,1.32613861560822,1.77769184112549,0.74290245771408
211,876132959,1.55156290531158,-0.50456780195236,50.80283355712891,0.09438502043486,0.28237920999527,10.02066898345947,1.31123113632202,1.87290024757385,0.79090356826782
212,876141292,1.55083239078522,-0.50387471914291,50.80250930786133,0.07907617837191,0.25647002458572,10.01171588897705,1.21305179595947,1.88002073764801,0.71070533990860
213,876149625,1.55088651180267,-0.50412571430206,50.80210113525391,0.06976424902678,0.26863360404968,9.96754837036133,1.30969429016113,1.76865029335022,0.71383035182953
214,876157958,1.55111539363861,-0.50443762540817,50.80191802978516,0.06004960462451,0.28048482537270,10.00220775604248,1.32931482791901,1.75948035717010,0.74705207347870
215,876166291,1.55107247829437,-0.50356918573380,50.80266952514648,0.08061075955629,0.27700984477997,9.99261569976807,1.29862904548645,1.90729999542236,0.85212159156799
216,876174624,1.55169343948364,-0.50471800565720,50.80289459228516,0.10172305256128,0.31517508625984,9.96803188323975,1.37726449966431,1.66037869453430,0.79559087753296
217,876182957,1.55246460437775,-0.50398820638657,50.80374145507812,0.09067434072495,0.28963819146156,9.98700618743896,1.39624488353729,1.89085566997528,0.86249536275864
218,876191290,1.55218529701233,-0.50428271293640,50.80406951904297,0.08241035789251,0.28121897578239,9.99194622039795,1.26901888847351,1.76337349414825,0.80445343255997
219,876199623,1.55243265628815,-0.50467503070831,50.80345153808594,0.08679538220167,0.29203569889069,10.00548553466797,1.33226037025452,1.75187265872955,0.68990665674210
220,876207956,1.55269145965576,-0.50431209802628,50.80351638793945,0.08187382668257,0.28540334105492,9.97818565368652,1.33236277103424,1.84126639366150,0.76908022165298
221,876216289,1.55273878574371,-0.50381696224213,50.80327224731445,0.08439371734858,0.28402277827263,9.98831462860107,1.30915629863739,1.85919630527496,0.73193955421448
222,876224622,1.55253815650940,-0.50304013490677,50.80328750610352,0.07468890398741,0.27155828475952,9.99017429351807,1.27800965309143,1.88975429534912,0.75716966390610
223,876232955,1.55272185802460,-0.50207602977753,50.80374526977539,0.06648615747690,0.25831031799316,9.99004650115967,1.32649707794189,1.91744303703308,0.81498092412949
224,876241288,1.55287730693817,-0.50194567441940,50.80347442626953,0.07608371973038,0.28132909536362,9.98788928985596,1.31955575942993,1.81260418891907,0.73552554845810
225,876249621,1.55338203907013,-0.50222736597061,50.80448532104492,0.08314403146505,0.27715620398521,10.00575828552246,1.36494410037994,1.76977705955505,0.88562494516373
226,876257954,1.55336809158325,-0.50180047750473,50.80473709106445,0.07101985067129,0.25277796387672,10.00862979888916,1.30021691322327,1.85023164749146,0.78647220134735
227,876266287,1.55360901355743,-0.50114750862122,50.80493545532227,0.07435075193644,0.28945586085320,9.99474334716797,1.33264446258545,1.87907302379608,0.78596001863480
228,876274620,1.55323696136475,-0.50146919488907,50.80452728271484,0.07007201761007,0.29138585925102,9.98687362670898,1.25659596920013,1.75791788101196,0.71943992376328
229,876282953,1.55370688438416,-0.50172686576843,50.80416870117188,0.09327020496130,0.26967763900757,10.00315761566162,1.35994923114777,1.76803529262543,0.72046434879303
230,876291286,1.55314505100250,-0.50197517871857,50.80360412597656,0.08754565566778,0.26550471782684,9.98624229431152,1.23367118835449,1.76631939411163,0.70248323678970
231,876299619,1.55250763893127,-0.50097340345383,50.80340194702148,0.08687248826027,0.28378149867058,10.00152873992920,1.22647356987000,1.92015826702118,0.73626834154129
232,876307952,1.55235123634338,-0.50003659725189,50.80337142944336,0.08783102035522,0.28438502550125,10.00979709625244,1.28372120857239,1.91006624698639,0.77112925052643
233,876316285,1.55206084251404,-0.50058311223984,50.80320358276367,0.06795776635408,0.29302516579628,10.02316570281982,1.26812243461609,1.73460900783539,0.74487483501434
234,876324618,1.55221915245056,-0.50057941675186,50.80283355712891,0.07545651495457,0.26451715826988,9.97114086151123,1.32024741172791,1.79690265655518,0.72305148839951
235,876332951,1.55239224433899,-0.50070971250534,50.80251312255859,0.07521864771843,0.27500692009926,9.99835586547852,1.32298815250397,1.78430044651031,0.72571539878845
236,876341284,1.55243706703186,-0.50051224231720,50.80237579345703,0.08002502471209,0.30662286281586,10.00089550018311,1.30774748325348,1.82092869281769,0.75448000431061
237,876349617,1.55253350734711,-0.50016665458679,50.80223846435547,0.10012941062450,0.28419604897499,9.98490524291992,1.31576490402222,1.84078001976013,0.74472111463547
238,876357950,1.55208945274353,-0.50037193298340,50.80242156982422,0.07440419495106,0.26290911436081,10.01039600372314,1.24804079532623,1.77372169494629,0.78588306903839
239,876366283,1.55194759368896,-0.49985229969025,50.80229949951172,0.07346990704536,0.30063483119011,9.99940586090088,1.28589868545532,1.86275696754456,0.74712884426117
240,876374616,1.55114126205444,-0.50019586086273,50.80215835571289,0.08017405122519,0.29515546560287,10.02118778228760,1.20488071441650,1.75550997257233,0.75002318620682
241,876382949,1.55075895786285,-0.50010418891907,50.80163574218750,0.07681242376566,0.25546580553055,10.00599861145020,1.25715935230255,1.81027317047119,0.69787263870239
242,876391282,1.55070567131042,-0.50057661533356,50.80119705200195,0.06607667356730,0.29459697008133,10.00916767120361,1.29476106166840,1.73911690711975,0.71280568838120
243,876399615,1.55070555210114,-0.50030863285065,50.80113601684570,0.06710961461067,0.28904300928116,10.02309608459473,1.30364918708801,1.83230137825012,0.75524848699570
244,876407948,1.55058121681213,-0.50066614151001,50.80099487304688,0.09547864645720,0.27263954281807,10.01283550262451,1.28653895854950,1.75351202487946,0.73590975999832
245,876416281,1.55027806758881,-0.50166589021683,50.80132293701172,0.09673311561346,0.27492073178291,10.01041126251221,1.26768684387207,1.68174088001251,0.80478644371033
246,876424614,1.55023348331451,-0.50140452384949,50.80023193359375,0.08667739480734,0.27020484209061,10.00715732574463,1.29435122013092,1.82548809051514,0.62517946958542
247,876432947,1.54952406883240,-0.50150740146637,50.79993820190430,0.08553671091795,0.27458691596985,10.01408767700195,1.21830272674561,1.78668260574341,0.73004418611526
248,876441280,1.54985797405243,-0.50171566009521,50.80012130737305,0.09840236604214,0.28460481762886,9.98506832122803,1.34209609031677,1.77336287498474,0.78908485174179
249,876449613,1.54995381832123,-0.50104153156281,50.80030059814453,0.07552655041218,0.28307601809502,9.99309158325195,1.31422781944275,1.88265907764435,0.78247636556625
250,876457946,1.55014586448669,-0.50042980909348,50.80023193359375,0.08968640118837,0.26522982120514,9.97441864013672,1.32488346099854,1.86987745761871,0.75755381584167
251,876466279,1.54987347126007,-0.50060886144638,50.80038452148438,0.09049436450005,0.29496350884438,9.99003791809082,1.27129864692688,1.77917778491974,0.78024804592133
252,876474612,1.54928946495056,-0.50033479928970,50.80110168457031,0.07731524109840,0.29153752326965,9.99757862091064,1.23215997219086,1.83368468284607,0.84958571195602
253,876482945,1.54991865158081,-0.49988132715225,50.80101394653320,0.06691031903028,0.27296593785286,9.97918033599854,1.37816095352173,1.85543119907379,0.75163686275482
254,876491278,1.55036640167236,-0.49957978725433,50.80089187622070,0.08633293956518,0.26339831948280,9.98679065704346,1.35626101493835,1.83240401744843,0.74577128887177
255,876499611,1.55052220821381,-0.50007212162018,50.80028533935547,0.06746733188629,0.28472402691841,10.00780963897705,1.32142555713654,1.73947548866272,0.69331330060959
256,876507944,1.54975950717926,-0.49967539310455,50.80008316040039,0.06590721011162,0.29462850093842,10.00362682342529,1.20903027057648,1.84475004673004,0.74310737848282
257,876516277,1.54938054084778,-0.50022554397583,50.79983520507812,0.08417767286301,0.26178559660912,9.99730682373047,1.25759482383728,1.73391723632812,0.73403990268707
258,876524610,1.54940068721771,-0.50030946731567,50.80107498168945,0.08685381710529,0.25917294621468,10.00454711914062,1.30587768554688,1.79129314422607,0.91041952371597
259,876532943,1.54914474487305,-0.50024104118347,50.80136489868164,0.08318403363228,0.28547298908234,10.01800727844238,1.27319395542145,1.80965840816498,0.79651302099228
260,876541276,1.54867804050446,-0.50040489435196,50.80134201049805,0.07353008538485,0.26994928717613,10.00412845611572,1.24501836299896,1.77828097343445,0.76487946510315
261,876549609,1.54962050914764,-0.50015169382095,50.80103302001953,0.07819814980030,0.25686907768250,10.00176239013672,1.41591644287109,1.82976567745209,0.72533112764359
262,876557942,1.54904747009277,-0.49950027465820,50.80097198486328,0.07007860392332,0.27138519287109,9.97561264038086,1.23292839527130,1.87551259994507,0.76195943355560
263,876566275,1.54852902889252,-0.49937713146210,50.80111694335938,0.08620768040419,0.29061302542686,10.00523090362549,1.24171423912048,1.81565237045288,0.77878803014755
264,876574608,1.54847204685211,-0.49904638528824,50.80070114135742,0.07485993206501,0.27517610788345,10.01385688781738,1.29458189010620,1.83652794361115,0.71984964609146
265,876582941,1.54827094078064,-0.49849352240562,50.80057907104492,0.07712475210428,0.26672816276550,10.01995277404785,1.27985370159149,1.86570250988007,0.74812775850296
266,876591274,1.54857611656189,-0.49823963642120,50.80033111572266,0.08940132707357,0.27874174714088,9.97779846191406,1.33799803256989,1.82746040821075,0.73242628574371
267,876599607,1.54825174808502,-0.49969002604485,50.80074310302734,0.07940132170916,0.27494713664055,10.01715183258057,1.26499736309052,1.62777173519135,0.81756788492203
268,876607940,1.54805493354797,-0.49991852045059,50.80121612548828,0.07347192615271,0.26541328430176,9.98296451568604,1.27821433544159,1.77149319648743,0.81188160181046
269,876616273,1.54900348186493,-0.50077009201050,50.80096435546875,0.08813105523586,0.26719918847084,9.98756313323975,1.41714596748352,1.69751954078674,0.73434734344482
270,876624606,1.54982185363770,-0.50073331594467,50.80121612548828,0.07790861278772,0.26336008310318,10.00096702575684,1.40029191970825,1.80269157886505,0.78952038288116
271,876632939,1.55082654953003,-0.50118505954742,50.80100250244141,0.08151967823505,0.28312930464745,10.01915359497070,1.42360091209412,1.74608409404755,0.73885548114777
272,876641272,1.55129039287567,-0.50062292814255,50.80118179321289,0.07958192378283,0.29427388310432,9.99196815490723,1.35720860958099,1.86603569984436,0.79553973674774
273,876649605,1.55195724964142,-0.50052899122238,50.80189514160156,0.10227656364441,0.27273178100586,10.00875282287598,1.38466715812683,1.81380820274353,0.84810018539429
274,876657938,1.55212342739105,-0.50038641691208,50.80241775512695,0.10801197588444,0.27183884382248,9.99064922332764,1.32122087478638,1.81649756431580,0.82299822568893
275,876666271,1.55270075798035,-0.50044846534729,50.80270385742188,0.07495078444481,0.27449893951416,9.97892856597900,1.37316632270813,1.79398250579834,0.79694855213165
276,876674604,1.55381703376770,-0.50093787908554,50.80304336547852,0.08177503943443,0.28434544801712,10.01891708374023,1.43597233295441,1.74029505252838,0.81070333719254
277,876682937,1.55392992496490,-0.50089347362518,50.80240631103516,0.07595042139292,0.27845951914787,10.01957798004150,1.31612324714661,1.80412578582764,0.68562901020050
278,876691270,1.55391860008240,-0.50041592121124,50.80205917358398,0.09789493680000,0.29032063484192,9.99671459197998,1.30080628395081,1.85361266136169,0.72179639339447
279,876699603,1.55464100837708,-0.50046747922897,50.80259704589844,0.07869140058756,0.28241896629333,9.99125385284424,1.39048171043396,1.79615986347198,0.82917118072510
280,876707936,1.55460989475250,-0.49964910745621,50.80258178710938,0.10171078145504,0.28033792972565,9.96801853179932,1.29798853397369,1.89613223075867,0.76833748817444
281,876716269,1.55494892597198,-0.50010615587234,50.80249786376953,0.08271873742342,0.28797218203545,9.96689033508301,1.34363317489624,1.74526453018188,0.75540220737457
282,876724602,1.55385684967041,-0.49997609853745,50.80318832397461,0.06940671056509,0.27039927244186,9.99896621704102,1.17217147350311,1.81513988971710,0.84710115194321
283,876732935,1.55322659015656,-0.50028145313263,50.80328750610352,0.07487350702286,0.26979863643646,10.00439453125000,1.22767746448517,1.76465415954590,0.77620095014572
284,876741268,1.55397045612335,-0.49912866950035,50.80353927612305,0.08381050825119,0.27373027801514,10.00021076202393,1.39078903198242,1.93611621856689,0.79036563634872
285,876749601,1.55497837066650,-0.49888113141060,50.80467987060547,0.08156616985798,0.28229206800461,9.98076725006104,1.42567527294159,1.83399200439453,0.89937978982925
286,876757934,1.55465602874756,-0.49799704551697,50.80477905273438,0.08337566256523,0.26207432150841,9.98464202880859,1.26289701461792,1.90438008308411,0.78303992748260
287,876766267,1.55456340312958,-0.49811342358589,50.80479049682617,0.08549194037914,0.28890806436539,9.95939636230469,1.29237890243530,1.78642630577087,0.76528930664062
288,876774600,1.55392146110535,-0.49822366237640,50.80475616455078,0.08030142635107,0.26007622480392,9.97321033477783,1.22383534908295,1.78417241573334,0.74664211273193
289,876782933,1.55466496944427,-0.49848610162735,50.80493927001953,0.07778586447239,0.28019630908966,10.00694656372070,1.39268445968628,1.76977729797363,0.78552460670471
290,876791266,1.55475986003876,-0.49866884946823,50.80503845214844,0.07452833652496,0.28043368458748,9.99852752685547,1.31348514556885,1.77536094188690,0.77130854129791
291,876799599,1.55373406410217,-0.49926880002022,50.80550384521484,0.06120461225510,0.27496230602264,10.00007247924805,1.17970216274261,1.73020327091217,0.82205051183701
292,876807932,1.55452668666840,-0.49940726161003,50.80553054809570,0.07691003382206,0.28309196233749,10.04411792755127,1.39655220508575,1.78209781646729,0.78009438514709
293,876816265,1.55412447452545,-0.49987661838531,50.80535125732422,0.07029868662357,0.27207654714584,9.99471569061279,1.25595557689667,1.74324071407318,0.74315857887268
294,876824598,1.55420327186584,-0.49977830052376,50.80519485473633,0.08357616513968,0.27463880181313,9.99453067779541,1.31097483634949,1.80855703353882,0.74505406618118
295,876832931,1.55367422103882,-0.50028502941132,50.80538940429688,0.08341003954411,0.25576451420784,9.99109363555908,1.23974180221558,1.74083316326141,0.78749698400497
296,876841264,1.55324757099152,-0.50068521499634,50.80512619018555,0.08977574110031,0.27473679184914,9.98236465454102,1.25101196765900,1.74905514717102,0.74400389194489
297,876849597,1.55319082736969,-0.50074726343155,50.80527114868164,0.07955320179462,0.27097231149673,9.98890018463135,1.29698967933655,1.79308629035950,0.78119575977325
298,876857930,1.55226063728333,-0.50013053417206,50.80521011352539,0.07343783229589,0.26920089125633,10.00829315185547,1.18943548202515,1.87169635295868,0.76154965162277
299,876866263,1.55220627784729,-0.50046771764755,50.80458068847656,0.08313163369894,0.27193447947502,9.98993778228760,1.29514539241791,1.75860929489136,0.69003462791443
300,876874596,1.55232870578766,-0.50050079822540,50.80384826660156,0.08761898428202,0.31577521562576,9.99888992309570,1.31648194789886,1.79147243499756,0.68283706903458
301,876882929,1.55190014839172,-0.50130200386047,50.80363845825195,0.08688201755285,0.28239262104034,9.96818542480469,1.25195980072021,1.70335960388184,0.74077647924423
302,876891262,1.55197644233704,-0.50219678878784,50.80380249023438,0.09755784273148,0.26593160629272,9.99788665771484,1.31025779247284,1.69155144691467,0.78964853286743
303,876899595,1.55239427089691,-0.50289171934128,50.80343246459961,0.08161181211472,0.28676941990852,9.99163150787354,1.35369944572449,1.71606397628784,0.72000330686569
304,876907928,1.55268812179565,-0.50281029939651,50.80326461791992,0.07534651458263,0.28366565704346,10.02175998687744,1.33756244182587,1.80548322200775,0.73770272731781
305,876916261,1.55229187011719,-0.50392794609070,50.80229568481445,0.07681485265493,0.28409856557846,9.99975585937500,1.25416278839111,1.66378557682037,0.64925688505173
306,876924594,1.55144119262695,-0.50390970706940,50.80215835571289,0.06196293234825,0.28132504224777,9.98317146301270,1.19955289363861,1.79928469657898,0.74769222736359
307,876932927,1.55171895027161,-0.50329953432083,50.80251312255859,0.09749714285135,0.26088517904282,9.99429225921631,1.33722972869873,1.87451386451721,0.80404365062714
308,876941260,1.55214130878448,-0.50335931777954,50.80232238769531,0.08452584594488,0.28396967053413,10.01211738586426,1.35124039649963,1.79062700271606,0.74062275886536
309,876949593,1.55167281627655,-0.50343406200409,50.80236816406250,0.08594103157520,0.27248385548592,9.98103427886963,1.24740040302277,1.79162609577179,0.76820933818817
310,876957926,1.55150115489960,-0.50333452224731,50.80244445800781,0.08462616801262,0.27205497026443,9.98981094360352,1.28133928775787,1.80901813507080,0.76918268203735
311,876966259,1.55198693275452,-0.50407391786575,50.80252838134766,0.07252935320139,0.26557308435440,10.00306797027588,1.36166548728943,1.71237564086914,0.77366518974304
312,876974592,1.55147182941437,-0.50423473119736,50.80267333984375,0.07124520838261,0.28148961067200,9.99994373321533,1.24030554294586,1.77938270568848,0.79571902751923
313,876982925,1.55125916004181,-0.50418341159821,50.80296325683594,0.07618024945259,0.27799174189568,9.99410724639893,1.27788126468658,1.80796790122986,0.79753756523132
314,876991258,1.55091226100922,-0.50500249862671,50.80263900756836,0.09023654460907,0.28741732239723,9.99367046356201,1.26089906692505,1.69808256626129,0.73501324653625
315,876999591,1.55113232135773,-0.50487726926804,50.80251312255859,0.07093015313148,0.29537561535835,9.98991298675537,1.32931470870972,1.81521666049957,0.74661648273468
316,877007924,1.55082118511200,-0.50562298297882,50.80290222167969,0.06334993243217,0.27956235408783,9.98644447326660,1.26425468921661,1.71001935005188,0.81067770719528
317,877016257,1.55087471008301,-0.50561058521271,50.80331420898438,0.08081167936325,0.28165590763092,10.00014495849609,1.31082117557526,1.80240964889526,0.81316226720810
318,877024590,1.55037415027618,-0.50523763895035,50.80319976806641,0.08466488867998,0.29718056321144,10.02553081512451,1.24109935760498,1.84247028827667,0.74505412578583
319,877032923,1.54981076717377,-0.50559562444687,50.80302810668945,0.08307076990604,0.27664473652840,9.98540401458740,1.23587405681610,1.75707256793976,0.74223655462265
320,877041256,1.54991281032562,-0.50536316633224,50.80258941650391,0.07106801867485,0.29464900493622,10.02659130096436,1.31338262557983,1.82405364513397,0.71093589067459
321,877049589,1.54971218109131,-0.50550580024719,50.80204391479492,0.09035208821297,0.29863467812538,9.99093914031982,1.27849602699280,1.78176462650299,0.69748836755753
322,877057922,1.55001795291901,-0.50514900684357,50.80212783813477,0.06876878440380,0.28941100835800,9.99262428283691,1.33871531486511,1.83990907669067,0.77991503477097
323,877066255,1.54950463771820,-0.50499516725540,50.80204010009766,0.06233114376664,0.27817764878273,9.97607326507568,1.24091994762421,1.81977605819702,0.75130391120911
324,877074588,1.54960274696350,-0.50543105602264,50.80233764648438,0.07844519615173,0.28725951910019,9.98599433898926,1.31415104866028,1.74559724330902,0.80063694715500
325,877082921,1.54940056800842,-0.50656914710999,50.80287551879883,0.07676129043102,0.27617725729942,9.99552917480469,1.27880346775055,1.66583454608917,0.83150213956833
326,877091254,1.54968416690826,-0.50665122270584,50.80263900756836,0.08271268010139,0.25852525234222,9.99635410308838,1.33625638484955,1.78729748725891,0.73601227998734
327,877099587,1.54969131946564,-0.50650465488434,50.80252838134766,0.07046025246382,0.28227883577347,10.01947021484375,1.30316257476807,1.81803441047668,0.74992072582245
328,877107920,1.54969978332520,-0.50684165954590,50.80242156982422,0.05778636410832,0.28910714387894,10.00943851470947,1.30375170707703,1.75615024566650,0.74735933542252
329,877116253,1.54957389831543,-0.50776231288910,50.80246734619141,0.07614721357822,0.25560608506203,9.94520282745361,1.28720486164093,1.69068038463593,0.77151352167130
330,877124586,1.55010414123535,-0.50741887092590,50.80231475830078,0.09038947522640,0.27803802490234,9.98960971832275,1.36596882343292,1.83811593055725,0.74945980310440
331,877132919,1.55038321018219,-0.50620520114899,50.80249404907227,0.09233618527651,0.27748709917068,9.98379802703857,1.33733201026917,1.94615697860718,0.78106766939163
332,877141252,1.54991066455841,-0.50566947460175,50.80287551879883,0.08042488992214,0.27762529253960,10.01039695739746,1.24481344223022,1.86316680908203,0.80519628524780
333,877149585,1.54997074604034,-0.50562518835068,50.80354690551758,0.08765259385109,0.26860654354095,10.01928710937500,1.31169223785400,1.80760955810547,0.84336155653000
334,877157918,1.54975903034210,-0.50617736577988,50.80424499511719,0.07205195724964,0.29879006743431,9.98313236236572,1.27660048007965,1.73394274711609,0.85908848047256
335,877166251,1.55011248588562,-0.50528395175934,50.80388259887695,0.07190039008856,0.27689504623413,10.02977180480957,1.34499073028564,1.90737688541412,0.71628928184509
336,877174584,1.55040824413300,-0.50524616241455,50.80356979370117,0.08555518835783,0.28820818662643,10.01618862152100,1.33756256103516,1.80120587348938,0.74105829000473
337,877182917,1.55045068264008,-0.50511205196381,50.80390548706055,0.08708539605141,0.27491393685341,9.96314334869385,1.30810618400574,1.81823945045471,0.80286544561386
338,877191250,1.55001592636108,-0.50480490922928,50.80472183227539,0.09611891210079,0.26322731375694,9.98332691192627,1.25044858455658,1.83704018592834,0.85383778810501
339,877199583,1.55102789402008,-0.50437188148499,50.80603790283203,0.07597782462835,0.27323627471924,10.00590991973877,1.42698180675507,1.85653257369995,0.91859054565430
340,877207916,1.55041074752808,-0.50334769487381,50.80677795410156,0.07869917899370,0.28541630506516,10.00767326354980,1.22688353061676,1.92292451858521,0.83667623996735
341,877216249,1.55034255981445,-0.50358587503433,50.80704879760742,0.08150884509087,0.28221112489700,9.99157524108887,1.29634916782379,1.77241528034210,0.79482245445251
342,877224582,1.55048549175262,-0.50372391939163,50.80663299560547,0.08948847651482,0.27081993222237,10.02302169799805,1.31783950328827,1.78066313266754,0.74466979503632
343,877232915,1.55082535743713,-0.50297355651855,50.80667495727539,0.07573106884956,0.30641835927963,10.01188087463379,1.34468340873718,1.89054834842682,0.76557117700577
344,877241248,1.55123329162598,-0.50233238935471,50.80764770507812,0.08496645092964,0.29927980899811,10.00425910949707,1.35093331336975,1.87797188758850,0.87955445051193
345,877249581,1.55120658874512,-0.50174725055695,50.80783843994141,0.09689512848854,0.27666318416595,10.01072025299072,1.30136966705322,1.87082529067993,0.78378278017044
346,877257914,1.55147492885590,-0.50132286548615,50.80833816528320,0.08940421044827,0.29304578900337,9.99016761779785,1.33382284641266,1.85128164291382,0.82051360607147
347,877266247,1.55081212520599,-0.50100249052048,50.80828857421875,0.07888369262218,0.28721436858177,9.99073982238770,1.22406601905823,1.83834648132324,0.75821983814240
348,877274580,1.55093610286713,-0.50142520666122,50.80905151367188,0.07748403400183,0.26325580477715,9.97471046447754,1.31719923019409,1.74966990947723,0.85837137699127
349,877282913,1.55037188529968,-0.50212615728378,50.80912017822266,0.06886231154203,0.28313240408897,10.01634407043457,1.23556661605835,1.71647381782532,0.77412617206573
350,877291246,1.55030071735382,-0.50292921066284,50.81007003784180,0.08076099306345,0.26917704939842,10.02050876617432,1.29504275321960,1.70371782779694,0.87855541706085
351,877299579,1.55004572868347,-0.50432246923447,50.80947113037109,0.09450069814920,0.25950682163239,10.01400852203369,1.27099108695984,1.63243353366852,0.69654065370560
352,877307912,1.55062437057495,-0.50493007898331,50.80926513671875,0.07595042139292,0.28429675102234,10.01030635833740,1.37124538421631,1.72390198707581,0.74172419309616
353,877316245,1.55059516429901,-0.50415110588074,50.80978775024414,0.08196920156479,0.27619659900665,10.01436042785645,1.30031931400299,1.89577341079712,0.82161504030228
354,877324578,1.55075752735138,-0.50405740737915,50.80960464477539,0.08695486932993,0.26153367757797,10.01192855834961,1.32211709022522,1.80768620967865,0.74167293310165
355,877332911,1.55040669441223,-0.50416994094849,50.80932998657227,0.07125912606716,0.29097676277161,9.96330547332764,1.26033568382263,1.78622138500214,0.73032581806183
356,877341244,1.55098581314087,-0.50379264354706,50.80937194824219,0.05370996519923,0.28674319386482,10.00280857086182,1.37165522575378,1.84331572055817,0.78309130668640
357,877349577,1.55048501491547,-0.50474679470062,50.80923843383789,0.07505137473345,0.26595658063889,9.97593116760254,1.24255931377411,1.68612098693848,0.74853754043579
358,877357910,1.55050516128540,-0.50538998842239,50.80904388427734,0.06940052658319,0.29368016123772,9.98834609985352,1.30480194091797,1.71883034706116,0.74213397502899
359,877366243,1.54978430271149,-0.50500392913818,50.80946350097656,0.08174397051334,0.28342825174332,9.98086833953857,1.21686828136444,1.84874570369720,0.81200969219208
360,877374576,1.54994332790375,-0.50433003902435,50.80934143066406,0.08889196813107,0.25829729437828,9.99507713317871,1.32165598869324,1.87774133682251,0.74766671657562
361,877382909,1.55026817321777,-0.50539630651474,50.80916213989258,0.08844768255949,0.24844078719616,9.98274326324463,1.34114849567413,1.67251980304718,0.74582248926163
362,877391242,1.54970884323120,-0.50510072708130,50.81023025512695,0.07874286174774,0.30184176564217,10.02810382843018,1.23548984527588,1.83686089515686,0.89461565017700
363,877399575,1.55021190643311,-0.50541943311691,50.81040954589844,0.07401809096336,0.27833557128906,10.01986312866211,1.36366355419159,1.76257944107056,0.78657466173172
364,877407908,1.54911220073700,-0.50635302066803,50.81069183349609,0.08663300424814,0.29040116071701,10.00142478942871,1.17071151733398,1.68596732616425,0.80030393600464
365,877416241,1.54991912841797,-0.50631397962570,50.81098556518555,0.07842709869146,0.28414964675903,10.01234531402588,1.40008687973022,1.80602133274078,0.79968917369843
366,877424574,1.55051958560944,-0.50538146495819,50.81124877929688,0.07317284494638,0.26300129294395,9.98159313201904,1.37457501888275,1.91057848930359,0.79551404714584
367,877432907,1.55085551738739,-0.50684058666229,50.81074142456055,0.10372292995453,0.26983991265297,9.99415683746338,1.34255731105804,1.62403213977814,0.70624846220016
368,877441240,1.55106365680695,-0.50782984495163,50.81118774414062,0.08842011541128,0.30077126622200,10.00959682464600,1.32777786254883,1.68071639537811,0.83780318498611
369,877449573,1.55070638656616,-0.50738245248795,50.81104660034180,0.08342236280441,0.27411568164825,9.99007606506348,1.25949037075043,1.85402226448059,0.74415755271912
370,877457906,1.55089652538300,-0.50647610425949,50.81095886230469,0.08623939752579,0.27895256876945,9.98784351348877,1.32506275177002,1.90612185001373,0.74843519926071
371,877466239,1.55095803737640,-0.50625044107437,50.81072616577148,0.08476139605045,0.29307013750076,10.00464344024658,1.30989909172058,1.82730662822723,0.73562794923782
372,877474572,1.55048167705536,-0.50642436742783,50.81032943725586,0.09684430807829,0.28468945622444,10.01929473876953,1.24412178993225,1.77523291110992,0.72602272033691
373,877482905,1.54996860027313,-0.50599068403244,50.81004333496094,0.07919516414404,0.26637440919876,9.96655082702637,1.24197018146515,1.85087180137634,0.72901952266693
374,877491238,1.54969012737274,-0.50634837150574,50.81010055541992,0.08942940086126,0.28068551421165,9.99264240264893,1.26871156692505,1.75502347946167,0.76139599084854
375,877499571,1.54968643188477,-0.50632077455521,50.81007003784180,0.09480634331703,0.26349627971649,9.98442649841309,1.30198454856873,1.80443334579468,0.75980794429779
376,877507904,1.54962110519409,-0.50496035814285,50.81006622314453,0.05855853110552,0.27067151665688,10.00756263732910,1.29345488548279,1.96039831638336,0.76575034856796
377,877516237,1.55007863044739,-0.50394117832184,50.81003570556641,0.05482702702284,0.28126949071884,9.98355674743652,1.35895037651062,1.92233538627625,0.75517171621323
378,877524570,1.54933130741119,-0.50444680452347,50.81013870239258,0.07480833679438,0.26295328140259,9.97401046752930,1.21156620979309,1.73798978328705,0.78206664323807
379,877532903,1.54881703853607,-0.50516748428345,50.81013870239258,0.07744702696800,0.28072932362556,9.95522975921631,1.24204683303833,1.71383559703827,0.76485383510590
380,877541236,1.54839277267456,-0.50480496883392,50.81092453002930,0.08564147353172,0.27179318666458,9.97906875610352,1.25098645687103,1.84439146518707,0.85171169042587
381,877549569,1.54828524589539,-0.50389909744263,50.81117630004883,0.07414697855711,0.26386654376984,9.98494815826416,1.29066288471222,1.90965640544891,0.79195368289948
382,877557902,1.54883766174316,-0.50434339046478,50.81125640869141,0.08769840747118,0.26305854320526,10.00470352172852,1.36952900886536,1.74362468719482,0.76987415552139
383,877566235,1.54909980297089,-0.50474059581757,50.81119155883789,0.04371834918857,0.28294283151627,10.00889301300049,1.33433508872986,1.75246191024780,0.75745135545731
384,877574568,1.54924261569977,-0.50456136465073,50.81127548217773,0.06839814782143,0.27498659491539,10.01240348815918,1.31840288639069,1.81931507587433,0.77451038360596
385,877582901,1.54932582378387,-0.50452864170074,50.81082916259766,0.06379115581512,0.27943196892738,10.00789737701416,1.31240940093994,1.80343425273895,0.70973199605942
386,877591234,1.54901397228241,-0.50471246242523,50.81147003173828,0.09053485095501,0.27069765329361,9.99584865570068,1.26561224460602,1.77771770954132,0.84021103382111
387,877599567,1.54896461963654,-0.50431144237518,50.81140518188477,0.08503723889589,0.28071564435959,9.98448181152344,1.29755330085754,1.84815680980682,0.75383985042572
388,877607900,1.54956507682800,-0.50421971082687,50.81201171875000,0.06088925153017,0.27126801013947,10.00545883178711,1.37429344654083,1.81070876121521,0.84279799461365
389,877616233,1.55015230178833,-0.50443536043167,50.81185531616211,0.07558508217335,0.27664497494698,10.00572204589844,1.37321758270264,1.77472078800201,0.74541270732880
390,877624566,1.55007517337799,-0.50448971986771,50.81188583374023,0.06236758083105,0.27367177605629,9.97087955474854,1.29330098628998,1.79065251350403,0.76982295513153
391,877632899,1.54983603954315,-0.50393003225327,50.81200408935547,0.07177058607340,0.26524934172630,9.99582576751709,1.27398800849915,1.86882734298706,0.77568864822388
392,877641232,1.55001473426819,-0.50423181056976,50.81207275390625,0.06287303566933,0.27688130736351,9.95981311798096,1.32355165481567,1.76199054718018,0.79164642095566
393,877649565,1.55027484893799,-0.50492221117020,50.81267547607422,0.08522430062294,0.29761400818825,9.98942661285400,1.33582079410553,1.71916329860687,0.83665055036545
394,877657898,1.54965078830719,-0.50395512580872,50.81283950805664,0.08388720452785,0.27297613024712,9.98979091644287,1.22680664062500,1.91424167156219,0.76746654510498
395,877666231,1.54924833774567,-0.50372529029846,50.81243515014648,0.07835972309113,0.27128550410271,9.99795055389404,1.25441873073578,1.82664084434509,0.71505981683731
396,877674564,1.54922068119049,-0.50339758396149,50.81246566772461,0.09032968431711,0.30846256017685,10.00465583801270,1.29842388629913,1.83663022518158,0.75752824544907
397,877682897,1.54887890815735,-0.50231754779816,50.81222915649414,0.08789178729057,0.27539297938347,10.01866722106934,1.26182126998901,1.92907190322876,0.73217016458511
398,877691230,1.54877829551697,-0.50131005048752,50.81127548217773,0.07828113436699,0.28685697913170,9.99632549285889,1.28904926776886,1.91518914699554,0.64779675006866
399,877699563,1.54887247085571,-0.50254678726196,50.81048202514648,0.08445049822330,0.28548154234886,9.97856903076172,1.31299853324890,1.65049159526825,0.67041414976120
400,877707896,1.54843735694885,-0.50315767526627,50.81047439575195,0.08013841509819,0.25985327363014,10.02829265594482,1.25014102458954,1.72359466552734,0.76431596279144
401,877716229,1.54839944839478,-0.50339692831039,50.81045532226562,0.08837673813105,0.27696540951729,10.00532436370850,1.29914140701294,1.77103233337402,0.76329147815704
402,877724562,1.54797208309174,-0.50377035140991,50.81059265136719,0.07242751866579,0.28296011686325,10.00662994384766,1.25009000301361,1.75340962409973,0.77845495939255
403,877732895,1.54739868640900,-0.50418388843536,50.81053161621094,0.10395442694426,0.28036862611771,9.97980690002441,1.23392713069916,1.75120675563812,0.75596570968628
404,877741228,1.54655814170837,-0.50396203994751,50.81113815307617,0.10675787925720,0.28743824362755,9.98349094390869,1.20126914978027,1.82707607746124,0.84315657615662
405,877749561,1.54668927192688,-0.50421106815338,50.81105804443359,0.07493998855352,0.28874829411507,9.99869060516357,1.31937623023987,1.76977682113647,0.75373727083206
406,877757894,1.54688918590546,-0.50408071279526,50.81133270263672,0.08993283659220,0.26812678575516,9.95926284790039,1.32606196403503,1.81429481506348,0.79679489135742
407,877766227,1.54689800739288,-0.50453943014145,50.81114196777344,0.06371667236090,0.27856197953224,9.97328186035156,1.30362367630005,1.74523866176605,0.74080210924149
408,877774560,1.54716742038727,-0.50416201353073,50.81008529663086,0.09133669734001,0.27311521768570,9.99433040618896,1.33264446258545,1.83921730518341,0.63145494461060
409,877782893,1.54789817333221,-0.50541055202484,50.81014633178711,0.07654740661383,0.26644906401634,9.99169445037842,1.39196729660034,1.65061986446381,0.77468979358673
410,877791226,1.54915440082550,-0.50770843029022,50.80445480346680,0.06617419421673,0.26520225405693,9.96870613098145,1.33553886413574,1.76526892185211,0.76738959550858
411,877799559,1.54937374591827,-0.50775045156479,50.80406951904297,0.09848226606846,0.28117567300797,10.00183486938477,1.32921218872070,1.79469966888428,0.71897882223129
412,877807892,1.54971563816071,-0.50644314289093,50.80372238159180,0.09052664786577,0.29050105810165,9.98145580291748,1.34207057952881,1.95353364944458,0.72364050149918
413,877816225,1.55071926116943,-0.50725531578064,50.80374526977539,0.08521317690611,0.29535761475563,10.01902389526367,1.42331886291504,1.70361542701721,0.76925945281982
414,877824558,1.55088257789612,-0.50820928812027,50.80367279052734,0.06264836341143,0.27597236633301,9.98362350463867,1.32132303714752,1.68284225463867,0.75806599855423
415,877832891,1.55092167854309,-0.50880849361420,50.80363082885742,0.08940804749727,0.26782435178757,9.99095535278320,1.30759394168854,1.72889697551727,0.76055073738098
416,877841224,1.55081200599670,-0.50824993848801,50.80355834960938,0.09744849056005,0.29547610878944,10.02531719207764,1.28915178775787,1.86449861526489,0.75734895467758
417,877849557,1.55066418647766,-0.50718414783478,50.80364608764648,0.09621345251799,0.28894960880280,9.99105834960938,1.28466916084290,1.92914891242981,0.77207714319229
418,877857890,1.55113458633423,-0.50783461332321,50.80372238159180,0.08650840818882,0.27433934807777,10.02494239807129,1.35871970653534,1.71931684017181,0.77133417129517
419,877866223,1.54992485046387,-0.50762099027634,50.80364227294922,0.07412925362587,0.26904743909836,10.00577545166016,1.15826284885406,1.82592344284058,0.75366038084030
420,877874556,1.55015885829926,-0.50707280635834,50.80411911010742,0.06952076405287,0.28564441204071,10.00074481964111,1.32921218872070,1.86524116992950,0.81311100721359
421,877882889,1.54984498023987,-0.50659948587418,50.80416870117188,0.08940269052982,0.27749103307724,9.97592830657959,1.26520252227783,1.85781335830688,0.76705670356750
422,877891222,1.55016267299652,-0.50595366954803,50.80420684814453,0.09120561182499,0.26586827635765,10.00897502899170,1.34143030643463,1.87425744533539,0.76977181434631
423,877899555,1.54965615272522,-0.50585317611694,50.80361557006836,0.07082089781761,0.27337917685509,10.00603961944580,1.24086892604828,1.81152844429016,0.69208389520645
424,877907888,1.54937171936035,-0.50547641515732,50.80301666259766,0.10161133110523,0.27376273274422,10.01124382019043,1.26653420925140,1.84013938903809,0.68683296442032
425,877916221,1.54976618289948,-0.50490784645081,50.80276489257812,0.07987435162067,0.28199276328087,10.01016616821289,1.35036969184875,1.86808466911316,0.73104310035706
426,877924554,1.54924178123474,-0.50492066144943,50.80305099487305,0.07693966478109,0.28797388076782,10.00277709960938,1.23943436145782,1.79664647579193,0.79333680868149
427,877932887,1.54862296581268,-0.50419270992279,50.80308914184570,0.07208643853664,0.27380946278572,10.00459575653076,1.22888147830963,1.88842248916626,0.76669812202454
428,877941220,1.54853403568268,-0.50486892461777,50.80295944213867,0.07214140892029,0.27597126364708,10.02284622192383,1.29112386703491,1.71632015705109,0.76477700471878
429,877949553,1.54808557033539,-0.50510305166245,50.80298233032227,0.08376062661409,0.26162624359131,9.99910354614258,1.24873232841492,1.77338862419128,0.76544296741486
430,877957886,1.54781591892242,-0.50476652383804,50.80268859863281,0.07940851151943,0.27949261665344,9.99013137817383,1.27001762390137,1.83770596981049,0.74902421236038
431,877966219,1.54769814014435,-0.50521290302277,50.80297851562500,0.09086497128010,0.27756693959236,10.00363636016846,1.28884434700012,1.74813306331635,0.79997098445892
432,877974552,1.54803800582886,-0.50506395101547,50.80281448364258,0.08869107067585,0.27780184149742,10.01000213623047,1.34250605106354,1.81457638740540,0.73539745807648
433,877982885,1.54795300960541,-0.50395435094833,50.80310821533203,0.07899059355259,0.28475913405418,9.98014736175537,1.29299378395081,1.93496334552765,0.79592400789261
434,877991218,1.54797089099884,-0.50422465801239,50.80238723754883,0.06825535744429,0.28309661149979,10.01104259490967,1.30364930629730,1.76357865333557,0.68363118171692
435,877999551,1.54822361469269,-0.50270164012909,50.80215072631836,0.07003401964903,0.27947357296944,9.98480415344238,1.33287513256073,1.98288762569427,0.72958302497864
436,878007884,1.54857850074768,-0.50313931703568,50.80214691162109,0.09031192958355,0.30093872547150,9.98799037933350,1.34473443031311,1.74513638019562,0.76884967088699
437,878016217,1.54821920394897,-0.50335657596588,50.80196380615234,0.09165148437023,0.27626746892929,9.97845077514648,1.25913166999817,1.77515602111816,0.74210840463638
438,878024550,1.54829883575439,-0.50330233573914,50.80141448974609,0.08318327367306,0.26594686508179,9.96831512451172,1.31059074401855,1.80192303657532,0.70197087526321
439,878032883,1.54887616634369,-0.50330132246017,50.80117797851562,0.08692180365324,0.27560004591942,9.99508857727051,1.37296140193939,1.79969465732574,0.73496210575104
440,878041216,1.54929554462433,-0.50297224521637,50.80155944824219,0.07252302765846,0.26244631409645,9.99393558502197,1.35287976264954,1.83903801441193,0.81754231452942
441,878049549,1.54891216754913,-0.50355237722397,50.80184173583984,0.07172320783138,0.29238241910934,10.00764656066895,1.25685203075409,1.73253393173218,0.79920250177383
442,878057882,1.54908430576324,-0.50410330295563,50.80161285400391,0.08660709112883,0.27067294716835,10.00086688995361,1.32262957096100,1.73053622245789,0.74523341655731
443,878066215,1.54946827888489,-0.50463950634003,50.80097198486328,0.07672325521708,0.27775442600250,10.01557159423828,1.34785938262939,1.73501849174500,0.68875396251678
444,878074548,1.54966127872467,-0.50489115715027,50.80136871337891,0.07757291197777,0.27465912699699,9.99370002746582,1.32449924945831,1.76841950416565,0.80276292562485
445,878082881,1.54962670803070,-0.50466090440750,50.80065917968750,0.08050503581762,0.27674517035484,10.00184249877930,1.29870569705963,1.82584667205811,0.67727881669998
446,878091214,1.55005133152008,-0.50526237487793,50.80102539062500,0.09080751985312,0.26085790991783,9.97421741485596,1.35364842414856,1.72577202320099,0.80094432830811
447,878099547,1.55023050308228,-0.50540226697922,50.80128479003906,0.08636514842510,0.28484117984772,9.97299098968506,1.32393574714661,1.78560662269592,0.79428458213806
448,878107880,1.55064070224762,-0.50511145591736,50.80057907104492,0.09042692184448,0.29450750350952,9.99292182922363,1.35006225109100,1.83020102977753,0.68106961250305
449,878116213,1.55144655704498,-0.50455754995346,50.80002593994141,0.04173477366567,0.27848798036575,9.98579120635986,1.39957463741302,1.86547195911407,0.69664311408997
450,878124546,1.55150961875916,-0.50413101911545,50.80010986328125,0.06436764448881,0.27257415652275,9.99467086791992,1.31010425090790,1.84877145290375,0.78188735246658
451,878132879,1.55158197879791,-0.50511056184769,50.80038452148438,0.07628355175257,0.29996231198311,10.00763607025146,1.31210184097290,1.68445599079132,0.79866456985474
452,878141212,1.55117535591125,-0.50588428974152,50.80049514770508,0.09671667963266,0.28478407859802,10.00076961517334,1.25224137306213,1.70574152469635,0.78201538324356
453,878149545,1.55118000507355,-0.50644510984421,50.80073928833008,0.08325435221195,0.26506453752518,9.99430274963379,1.30510926246643,1.73332798480988,0.79466879367828
454,878157878,1.55126738548279,-0.50652492046356,50.79975128173828,0.07094218581915,0.28223282098770,10.00583648681641,1.31066739559174,1.78506863117218,0.65371364355087
455,878166211,1.55176091194153,-0.50679188966751,50.79993820190430,0.08351903408766,0.25099718570709,9.99272155761719,1.36302316188812,1.76890647411346,0.78649789094925
456,878174544,1.55141532421112,-0.50642597675323,50.80073928833008,0.09135846793652,0.26759481430054,9.99276733398438,1.26077103614807,1.84441709518433,0.86505681276321
457,878182877,1.55117797851562,-0.50661933422089,50.79986190795898,0.10005376487970,0.27175951004028,9.97970294952393,1.27321946620941,1.77472066879272,0.65786314010620
458,878191210,1.55090367794037,-0.50710475444794,50.79924774169922,0.08782845735550,0.28492164611816,9.99860668182373,1.26909565925598,1.73711895942688,0.70038282871246
459,878199543,1.55102920532227,-0.50624465942383,50.79892730712891,0.09414915740490,0.25704896450043,9.99296855926514,1.31732738018036,1.90322756767273,0.72261595726013
460,878207876,1.55164241790771,-0.50738018751144,50.79933547973633,0.08232703804970,0.28032818436623,9.99857425689697,1.37544608116150,1.66342699527740,0.81900238990784
461,878216209,1.55190300941467,-0.50724035501480,50.79922866821289,0.07274936884642,0.28861102461815,10.00932598114014,1.33525729179382,1.81631827354431,0.75027936697006
462,878224542,1.55180418491364,-0.50716966390610,50.79935836791992,0.07681871950626,0.25650316476822,9.98594856262207,1.28897213935852,1.80812168121338,0.78549891710281
463,878232875,1.55221748352051,-0.50859957933426,50.80008697509766,0.08173296600580,0.25498178601265,9.99573135375977,1.35387885570526,1.63099920749664,0.85586130619049
464,878241208,1.55170094966888,-0.50955945253372,50.80075836181641,0.08459866046906,0.28736442327499,9.98206138610840,1.24125301837921,1.68381595611572,0.84108179807663
465,878249541,1.55133759975433,-0.51023769378662,50.80162429809570,0.08654709905386,0.27983447909355,10.00103282928467,1.25946474075317,1.72272372245789,0.86877077817917
466,878257874,1.55147731304169,-0.50891602039337,50.80103683471680,0.08552382886410,0.26041319966316,10.02139377593994,1.31809568405151,1.95425081253052,0.68821609020233
467,878266207,1.55069208145142,-0.50959283113480,50.80168914794922,0.07206901162863,0.27797573804855,9.99944400787354,1.20977318286896,1.72151982784271,0.84195280075073
468,878274540,1.55085182189941,-0.51014035940170,50.80182647705078,0.06826809793711,0.26515206694603,10.02152347564697,1.32088768482208,1.73304617404938,0.79325997829437
469,878282873,1.55100321769714,-0.50953298807144,50.80171966552734,0.06965706497431,0.27389496564865,10.00156784057617,1.32147657871246,1.87300240993500,0.74733364582062
470,878291206,1.55086684226990,-0.50916117429733,50.80152130126953,0.07897183299065,0.28877469897270,9.98749160766602,1.28548884391785,1.84170186519623,0.73808693885803
471,878299539,1.55144381523132,-0.50825500488281,50.80194473266602,0.06430480629206,0.27493047714233,10.01182556152344,1.37203919887543,1.91157746315002,0.81236827373505
472,878307872,1.55084586143494,-0.50871819257736,50.80221176147461,0.08885341882706,0.27441841363907,10.00381565093994,1.23029005527496,1.74318969249725,0.80194336175919
473,878316205,1.55082762241364,-0.50873762369156,50.80224609375000,0.07212141156197,0.29394111037254,9.98304843902588,1.30144643783569,1.79826009273529,0.76815813779831
474,878324538,1.55102324485779,-0.50822699069977,50.80261993408203,0.08222521841526,0.25875893235207,9.98079872131348,1.32496023178101,1.86027228832245,0.80176389217377
475,878332871,1.55121517181396,-0.50781583786011,50.80257034301758,0.08065196126699,0.27411186695099,9.96255779266357,1.32672786712646,1.84915566444397,0.75560718774796
476,878341204,1.55081009864807,-0.50857895612717,50.80270767211914,0.06901559978724,0.29002752900124,10.00444030761719,1.25247192382812,1.70699667930603,0.78565263748169
477,878349537,1.55084931850433,-0.50793063640594,50.80237197875977,0.06450154632330,0.28766271471977,9.97733974456787,1.30892598628998,1.87704980373383,0.71997773647308
478,878357870,1.55050289630890,-0.50768476724625,50.80175399780273,0.07588887959719,0.25649303197861,9.97812366485596,1.25800490379333,1.82643592357635,0.71472686529160
479,878366203,1.55030000209808,-0.50800067186356,50.80240631103516,0.10313554853201,0.29937040805817,9.98751926422119,1.28113424777985,1.76442372798920,0.84123545885086
480,878374536,1.55055260658264,-0.50787681341171,50.80273437500000,0.06856360286474,0.29407462477684,10.00157070159912,1.33121037483215,1.81401312351227,0.80739915370941
481,878382869,1.55031597614288,-0.50806134939194,50.80262756347656,0.09713204205036,0.28582206368446,9.96602153778076,1.27473068237305,1.77828097343445,0.75066357851028
482,878391202,1.55038726329803,-0.50749856233597,50.80358123779297,0.06707598268986,0.28836560249329,9.99646854400635,1.31071889400482,1.86916053295135,0.87945199012756
483,878399535,1.54978334903717,-0.50792521238327,50.80348968505859,0.08049505949020,0.28315591812134,9.99566078186035,1.23162198066711,1.74856841564178,0.75296884775162
484,878407868,1.54926764965057,-0.50894576311111,50.80377960205078,0.07613681256771,0.27566614747047,9.97305583953857,1.23961365222931,1.67736101150513,0.79705089330673
485,878416201,1.54833853244781,-0.50880390405655,50.80364227294922,0.08177377283573,0.30759051442146,9.99627494812012,1.19130504131317,1.81757307052612,0.74669331312180
486,878424534,1.54864156246185,-0.50811785459518,50.80376052856445,0.08111744374037,0.28721296787262,9.99762535095215,1.33820295333862,1.88017439842224,0.77778905630112
487,878432867,1.54932463169098,-0.50815641880035,50.80429458618164,0.09559582918882,0.25917068123817,9.99966144561768,1.38628077507019,1.79759442806244,0.82837724685669
488,878441200,1.54917430877686,-0.50828862190247,50.80399703979492,0.08274239301682,0.28691810369492,10.00203132629395,1.28203070163727,1.78181576728821,0.73567920923233
489,878449533,1.54912102222443,-0.50826990604401,50.80340194702148,0.09548075497150,0.28143644332886,10.02426433563232,1.29614436626434,1.80123126506805,0.69239115715027
490,878457866,1.54930067062378,-0.50772738456726,50.80347442626953,0.07249558717012,0.25711867213249,9.98830127716064,1.32460165023804,1.86334586143494,0.77994060516357
491,878466199,1.54976999759674,-0.50697100162506,50.80403137207031,0.07130754739046,0.26689836382866,9.98385143280029,1.36041057109833,1.89310967922211,0.82786494493484
492,878474532,1.54922878742218,-0.50759482383728,50.80419921875000,0.07405706495047,0.29935288429260,10.01030445098877,1.23630952835083,1.72397887706757,0.78665155172348
493,878482865,1.54964089393616,-0.50707137584686,50.80330276489258,0.09544108062983,0.26109218597412,10.00664329528809,1.35134291648865,1.86111748218536,0.65422594547272
494,878491198,1.54915213584900,-0.50733453035355,50.80280303955078,0.08413213491440,0.27972206473351,9.99104022979736,1.24230325222015,1.76462876796722,0.70227831602097
495,878499531,1.54977166652679,-0.50716680288315,50.80307006835938,0.08364935219288,0.31743398308754,10.02988910675049,1.37798190116882,1.82126188278198,0.79623132944107
496,878507864,1.54948210716248,-0.50695830583572,50.80358505249023,0.08469720929861,0.25856587290764,10.00990486145020,1.26799428462982,1.82387435436249,0.82804417610168
497,878516197,1.55028009414673,-0.50668984651566,50.80328750610352,0.07093200832605,0.27065265178680,9.97504425048828,1.39926731586456,1.83171248435974,0.72476768493652
498,878524530,1.55043423175812,-0.50609159469604,50.80361175537109,0.08403838425875,0.27699244022369,10.00849533081055,1.31963253021240,1.87110710144043,0.80419743061066
499,878532863,1.55050921440125,-0.50587153434753,50.80320358276367,0.08289584517479,0.26623851060867,9.98864364624023,1.31222999095917,1.82600033283234,0.71377897262573
500,878541196,1.55117166042328,-0.50597530603409,50.80335617065430,0.10644236952066,0.28028249740601,10.00900173187256,1.38167047500610,1.78514587879181,0.78782993555069
501,878549529,1.55064630508423,-0.50659680366516,50.80318832397461,0.07063090801239,0.28295448422432,9.99080657958984,1.23912692070007,1.72633540630341,0.74505400657654
502,878557862,1.55110538005829,-0.50653034448624,50.80313110351562,0.08016428351402,0.25654873251915,9.99308681488037,1.35733687877655,1.80543220043182,0.74756425619125
503,878566195,1.55212807655334,-0.50639021396637,50.80355834960938,0.07672969251871,0.24602641165257,10.01674842834473,1.42582917213440,1.81887984275818,0.81638979911804
504,878574528,1.55210614204407,-0.50611239671707,50.80373382568359,0.05464500188828,0.30812606215477,10.00497341156006,1.29932045936584,1.83178925514221,0.77889055013657
505,878582861,1.55133926868439,-0.50571316480637,50.80426025390625,0.07963581383228,0.27063202857971,9.98065567016602,1.21133542060852,1.85064125061035,0.82594376802444
506,878591194,1.55197048187256,-0.50562679767609,50.80460357666016,0.06919271498919,0.26010873913765,10.01656055450439,1.37741827964783,1.80973553657532,0.80184090137482
507,878599527,1.55152153968811,-0.50569379329681,50.80436325073242,0.08149445056915,0.29217925667763,9.98721218109131,1.24965429306030,1.79152369499207,0.73478275537491
508,878607860,1.55147325992584,-0.50601166486740,50.80406951904297,0.07750280946493,0.28559309244156,10.01027965545654,1.29537594318390,1.75968503952026,0.73327147960663
509,878616193,1.55144846439362,-0.50647187232971,50.80429840087891,0.06973508000374,0.26688575744629,9.97730445861816,1.29970455169678,1.74610948562622,0.79310631752014
510,878624526,1.55124819278717,-0.50690013170242,50.80404281616211,0.06321966648102,0.28490677475929,9.97129440307617,1.27806067466736,1.74503374099731,0.73772835731506
511,878632859,1.55083358287811,-0.50709223747253,50.80446624755859,0.08154272288084,0.25442594289780,9.97243690490723,1.25382947921753,1.77904951572418,0.81567239761353
512,878641192,1.55046737194061,-0.50685012340546,50.80475616455078,0.06763951480389,0.25937184691429,10.01418781280518,1.25767171382904,1.82779324054718,0.79479688405991
513,878649525,1.55059731006622,-0.50705415010452,50.80442810058594,0.07577905058861,0.28582766652107,10.00768280029297,1.31881284713745,1.77500236034393,0.72545909881592
514,878657858,1.55063140392303,-0.50806045532227,50.80451965332031,0.10523942857981,0.27269518375397,9.99174022674561,1.30564713478088,1.67733538150787,0.77760976552963
515,878666191,1.55019342899323,-0.50881636142731,50.80458068847656,0.09816215932369,0.25584432482719,10.00986194610596,1.25157546997070,1.70991659164429,0.77366518974304
516,878674524,1.55050861835480,-0.50935685634613,50.80427169799805,0.06820566207170,0.29273626208305,10.01048374176025,1.33886885643005,1.73173999786377,0.72502374649048
517,878682857,1.55069923400879,-0.51009029150009,50.80413436889648,0.08687998354435,0.30255913734436,10.02323150634766,1.32478094100952,1.71265733242035,0.75104784965515
518,878691190,1.55028176307678,-0.51045626401901,50.80436325073242,0.09017488360405,0.23909859359264,9.98364830017090,1.25280499458313,1.75404989719391,0.79310637712479
519,878699523,1.55007028579712,-0.50965684652328,50.80377960205078,0.06677097082138,0.27828606963158,9.97783470153809,1.27736914157867,1.89477479457855,0.69126427173615
520,878707856,1.54954254627228,-0.51001900434494,50.80400848388672,0.08712324500084,0.30067178606987,9.98414134979248,1.23815369606018,1.75545871257782,0.79482245445251
521,878716189,1.54910767078400,-0.51018142700195,50.80393218994141,0.06053552776575,0.27372780442238,9.98472118377686,1.25075590610504,1.78114974498749,0.75355798006058
522,878724522,1.54898738861084,-0.50931119918823,50.80328369140625,0.08140229433775,0.27692064642906,10.00272178649902,1.28656470775604,1.89992320537567,0.69351828098297
523,878732855,1.54866898059845,-0.51036578416824,50.80330276489258,0.07816881686449,0.30233335494995,10.01445960998535,1.26440834999084,1.67449223995209,0.76989990472794
524,878741188,1.54787266254425,-0.50991767644882,50.80332565307617,0.07794289290905,0.23886871337891,10.00118160247803,1.20713484287262,1.85105109214783,0.76203626394272
525,878749521,1.54786062240601,-0.51050704717636,50.80317306518555,0.08371637016535,0.27608335018158,10.01289939880371,1.30136954784393,1.72971642017365,0.74610418081284
526,878757854,1.54759585857391,-0.51013636589050,50.80328369140625,0.08203251659870,0.29664388298988,9.98750591278076,1.27042758464813,1.84288024902344,0.79556530714035
527,878766187,1.54674184322357,-0.50991803407669,50.80366516113281,0.09340228885412,0.27646091580391,9.98513698577881,1.20116662979126,1.82817745208740,0.80921769142151
528,878774520,1.54637622833252,-0.51035171747208,50.80330657958984,0.08819142729044,0.26509454846382,10.02641201019287,1.25685203075409,1.74513614177704,0.72604823112488
529,878782853,1.54594218730927,-0.51031929254532,50.80393600463867,0.07503989338875,0.30765029788017,9.99078655242920,1.25288188457489,1.80591869354248,0.83926326036453
530,878791186,1.54538547992706,-0.51072841882706,50.80413436889648,0.10027176141739,0.27211925387383,9.97515010833740,1.23472130298615,1.74966990947723,0.79077541828156
531,878799519,1.54592907428741,-0.50999242067337,50.80364990234375,0.07404929399490,0.24580423533916,9.99047660827637,1.36760807037354,1.88739788532257,0.70391762256622
532,878807852,1.54592645168304,-0.51022100448608,50.80355453491211,0.06969677656889,0.29683101177216,9.99564170837402,1.30211246013641,1.77031469345093,0.76078116893768
533,878816185,1.54578423500061,-0.51068913936615,50.80345916748047,0.08288939297199,0.29008528590202,10.00839138031006,1.28469467163086,1.74505937099457,0.75448006391525
534,878824518,1.54586684703827,-0.51041013002396,50.80324554443359,0.08601826429367,0.28237989544868,10.00706195831299,1.31220448017120,1.83017551898956,0.74705207347870
535,878832851,1.54583251476288,-0.51174420118332,50.80274963378906,0.07076531648636,0.27714002132416,9.96439075469971,1.29803979396820,1.63934946060181,0.70880991220474
536,878841184,1.54589891433716,-0.51089495420456,50.80229187011719,0.07909934222698,0.28275975584984,9.99218463897705,1.30966866016388,1.89887261390686,0.71213978528976
537,878849517,1.54608762264252,-0.51041549444199,50.80230712890625,0.09381766617298,0.26998031139374,10.00768756866455,1.32572889328003,1.85850501060486,0.76362442970276
538,878857850,1.54702126979828,-0.50927585363388,50.80257415771484,0.10743921995163,0.29323709011078,9.99820995330811,1.41350889205933,1.93675649166107,0.80153346061707
539,878866183,1.54690611362457,-0.50919383764267,50.80286407470703,0.06542033702135,0.27167949080467,10.01066589355469,1.28984308242798,1.81137454509735,0.79751199483871
540,878874516,1.54700839519501,-0.50902938842773,50.80229949951172,0.07688935101032,0.25371766090393,9.97395324707031,1.31461226940155,1.81485831737518,0.69590032100677
541,878882849,1.54820501804352,-0.50956445932388,50.80255126953125,0.06180054694414,0.29214221239090,10.00345802307129,1.44647443294525,1.73740088939667,0.79653877019882
542,878891182,1.54804527759552,-0.50957620143890,50.80266952514648,0.07323940098286,0.27406048774719,9.97608947753906,1.28285050392151,1.79731261730194,0.78508913516998
543,878899515,1.54826664924622,-0.50902611017227,50.80176544189453,0.09688840061426,0.24984589219093,9.98676586151123,1.32885384559631,1.86385834217072,0.65274035930634
544,878907848,1.54865074157715,-0.50867009162903,50.80093383789062,0.08546781539917,0.31298771500587,10.02186393737793,1.34750103950500,1.83788549900055,0.68414348363876
545,878916181,1.54889917373657,-0.50821024179459,50.80075454711914,0.07529179751873,0.29072883725166,10.03306102752686,1.33223485946655,1.85632777214050,0.73985439538956
546,878924514,1.54993700981140,-0.50825655460358,50.79984664916992,0.08298076689243,0.25539487600327,9.99453735351562,1.42513751983643,1.78857791423798,0.66362643241882
547,878932847,1.54993975162506,-0.50780826807022,50.79984664916992,0.08419404923916,0.28376615047455,9.98435878753662,1.30431532859802,1.85435545444489,0.76170337200165
548,878941180,1.55002260208130,-0.50755065679550,50.80053710937500,0.06874782592058,0.30032834410667,10.00250816345215,1.31148731708527,1.83155882358551,0.84594863653183
549,878949513,1.54944396018982,-0.50739753246307,50.80029678344727,0.06975944340229,0.26990765333176,10.01686286926270,1.23356878757477,1.81816267967224,0.73493647575378
550,878957846,1.54944992065430,-0.50803852081299,50.79986190795898,0.09014295041561,0.29007089138031,10.01492691040039,1.30265033245087,1.71944534778595,0.73483395576477
551,878966179,1.54964160919189,-0.50818002223969,50.79992294311523,0.09796972572803,0.27377831935883,9.99806594848633,1.32657408714294,1.78412115573883,0.77100133895874
552,878974512,1.54991877079010,-0.50882399082184,50.80025100708008,0.08188756555319,0.25658836960793,10.00324249267578,1.33492434024811,1.72070026397705,0.80499136447906
553,878982845,1.55022966861725,-0.50812494754791,50.79954147338867,0.09839494526386,0.27826413512230,9.98765850067139,1.33984231948853,1.88237750530243,0.67750936746597
554,878991178,1.55017018318176,-0.50752097368240,50.80015563964844,0.08669774979353,0.28211435675621,9.98040485382080,1.29547822475433,1.87310492992401,0.84395056962967
555,878999511,1.54964137077332,-0.50772607326508,50.80055618286133,0.07145090401173,0.25539141893387,9.99329376220703,1.23945999145508,1.77779436111450,0.81183034181595
556,879007844,1.54938971996307,-0.50840628147125,50.80070114135742,0.09824319928885,0.28231379389763,10.00846576690674,1.27278411388397,1.71642255783081,0.79039120674133
557,879016177,1.54902517795563,-0.50773495435715,50.80014419555664,0.08812557160854,0.28107342123985,10.01619148254395,1.25849139690399,1.87979018688202,0.69464522600174
558,879024510,1.54826247692108,-0.50808179378510,50.79994964599609,0.08628008514643,0.24783104658127,9.96803855895996,1.20987546443939,1.75543308258057,0.74200588464737
559,879032843,1.54843223094940,-0.50774168968201,50.79932022094727,0.08766050636768,0.27063608169556,9.97172260284424,1.32237315177917,1.83970403671265,0.68662792444229
560,879041176,1.54908621311188,-0.50796872377396,50.79910659790039,0.09092038869858,0.27138131856918,10.02238368988037,1.38077390193939,1.76906013488770,0.73913723230362
561,879049509,1.54855561256409,-0.50811165571213,50.79970169067383,0.07452566921711,0.28136438131332,9.98894500732422,1.23902451992035,1.78614449501038,0.83639442920685
562,879057842,1.54905116558075,-0.50871908664703,50.79966735839844,0.07117962092161,0.24519762396812,9.95007705688477,1.36107635498047,1.72541332244873,0.76377803087234
563,879066175,1.54948949813843,-0.50909954309464,50.79917144775391,0.08022300153971,0.27011904120445,9.98583793640137,1.35587668418884,1.75289726257324,0.70440429449081
564,879074508,1.54958856105804,-0.50997322797775,50.79896163940430,0.07611587643623,0.30547842383385,10.02307224273682,1.31371581554413,1.69178199768066,0.74008494615555
565,879082841,1.54928994178772,-0.51031911373138,50.79927062988281,0.07771331071854,0.29155883193016,10.01056575775146,1.26696979999542,1.76017189025879,0.80186647176743
566,879091174,1.54874622821808,-0.50939011573792,50.79886245727539,0.07589239627123,0.26450312137604,9.96078586578369,1.23638617992401,1.90804255008698,0.71288251876831
567,879099507,1.54901313781738,-0.50932991504669,50.79959869384766,0.05783709883690,0.26586213707924,10.00508594512939,1.33502662181854,1.81086242198944,0.85227525234222
568,879107840,1.54954516887665,-0.50911492109299,50.79913330078125,0.08143128454685,0.28419646620750,9.99960041046143,1.36532843112946,1.82218396663666,0.70909166336060
569,879116173,1.54950153827667,-0.50913798809052,50.79951858520508,0.06947438418865,0.27115476131439,9.98586082458496,1.29952538013458,1.79859304428101,0.81011420488358
570,879124506,1.54940450191498,-0.50902825593948,50.79929351806641,0.06577825546265,0.25976189970970,9.99743366241455,1.28856253623962,1.81111836433411,0.74231326580048
571,879132839,1.55009329319000,-0.50925940275192,50.79897308349609,0.07649749517441,0.27623125910759,9.98492145538330,1.38625502586365,1.77105784416199,0.72686791419983
572,879141172,1.55048429965973,-0.50985538959503,50.79862213134766,0.07452796399593,0.29814973473549,10.01434421539307,1.34737300872803,1.72559261322021,0.72784137725830
573,879149505,1.55080318450928,-0.51015156507492,50.79883956909180,0.07425978779793,0.28039628267288,10.05099391937256,1.34163522720337,1.76626789569855,0.79128772020340
574,879157838,1.55000638961792,-0.51023787260056,50.79949951171875,0.09703350812197,0.24529747664928,9.97525978088379,1.20767271518707,1.78911602497101,0.84197837114334
575,879166171,1.55038380622864,-0.50998342037201,50.80001831054688,0.07912690192461,0.25642162561417,9.97695064544678,1.34857654571533,1.83263432979584,0.82632797956467
576,879174504,1.55128872394562,-0.50962316989899,50.80017471313477,0.07721247524023,0.27542307972908,10.01925659179688,1.40958964824677,1.84226536750793,0.78370589017868
577,879182837,1.55047988891602,-0.50981044769287,50.80030822753906,0.07545407861471,0.26652997732162,10.03341484069824,1.20741653442383,1.77779436111450,0.78124696016312
578,879191170,1.55079436302185,-0.51030904054642,50.80039215087891,0.09251493960619,0.27246862649918,9.98887443542480,1.33909952640533,1.73824596405029,0.78424388170242
579,879199503,1.55120432376862,-0.51046651601791,50.80027008056641,0.07626861333847,0.28137513995171,9.99520111083984,1.35177838802338,1.78212320804596,0.74846071004868
580,879207836,1.55216801166534,-0.51086199283600,50.80069351196289,0.09657572209835,0.27661862969398,10.00440979003906,1.41899037361145,1.75159096717834,0.81974518299103
581,879216169,1.55154991149902,-0.51102185249329,50.80065917968750,0.07763653248549,0.28075256943703,10.01850509643555,1.22872757911682,1.78132903575897,0.75947475433350
582,879224502,1.55222523212433,-0.51087301969528,50.79994201660156,0.08196665346622,0.26018652319908,10.00458717346191,1.38192641735077,1.81342399120331,0.68337500095367
583,879232835,1.55219268798828,-0.51144862174988,50.79921340942383,0.09571503102779,0.25656437873840,9.97926235198975,1.29883396625519,1.72905063629150,0.67715072631836
584,879241168,1.55263984203339,-0.51255989074707,50.79854583740234,0.07591428607702,0.29537606239319,10.01721382141113,1.35449349880219,1.66409277915955,0.72484439611435
585,879249501,1.55270981788635,-0.51092302799225,50.79836273193359,0.10304578393698,0.27006244659424,10.03022193908691,1.31184589862823,1.99577164649963,0.73783093690872
586,879257834,1.55279362201691,-0.50962036848068,50.79813003540039,0.09054957330227,0.26842144131660,9.96495723724365,1.31087243556976,1.95422494411469,0.73432165384293
587,879266167,1.55237460136414,-0.50936710834503,50.79810333251953,0.07540273666382,0.26611924171448,9.98798656463623,1.25249767303467,1.83112311363220,0.76157522201538
588,879274500,1.55205202102661,-0.51013696193695,50.79770660400391,0.09698328375816,0.29072844982147,10.02251148223877,1.26258981227875,1.70430719852448,0.70939916372299
589,879282833,1.55136442184448,-0.51023674011230,50.79778289794922,0.08480045199394,0.28145515918732,10.00813007354736,1.22181177139282,1.78811681270599,0.77412617206573
590,879291166,1.55113923549652,-0.50997716188431,50.79804229736328,0.08694794028997,0.24970550835133,9.99441242218018,1.27401363849640,1.83063650131226,0.80714297294617
591,879299499,1.55148983001709,-0.51002442836761,50.79848098754883,0.08579955995083,0.27082294225693,9.98355770111084,1.34629690647125,1.79587805271149,0.81710690259933
592,879307832,1.55257225036621,-0.50973308086395,50.79835891723633,0.06910333782434,0.29113546013832,9.99284458160400,1.43133640289307,1.83260893821716,0.74200606346130
593,879316165,1.55318260192871,-0.51007938385010,50.79856872558594,0.08961509168148,0.27373045682907,10.00556755065918,1.37664985656738,1.75999259948730,0.79044240713120
594,879324498,1.55434727668762,-0.50964987277985,50.79788970947266,0.08988920599222,0.23572833836079,9.99929809570312,1.44037818908691,1.84754204750061,0.68606454133987
595,879332831,1.55481457710266,-0.50983560085297,50.79729843139648,0.09631729125977,0.28827473521233,9.99008178710938,1.35846364498138,1.77625751495361,0.69369751214981
596,879341164,1.55482697486877,-0.50902241468430,50.79723739624023,0.10427262634039,0.30031090974808,10.01878070831299,1.30382859706879,1.89472353458405,0.75847589969635
597,879349497,1.55469238758087,-0.50829011201859,50.79734802246094,0.07625740766525,0.27581354975700,10.00781440734863,1.28625714778900,1.88985657691956,0.77525323629379
598,879357830,1.55472111701965,-0.50815689563751,50.79701232910156,0.08714318275452,0.25891607999802,9.98125648498535,1.30490434169769,1.81257855892181,0.72615069150925
599,879366163,1.55530488491058,-0.50775319337845,50.79650115966797,0.08510552346706,0.26268258690834,9.99204254150391,1.37293565273285,1.84682464599609,0.70135617256165
600,879374496,1.55605423450470,-0.50720202922821,50.79644012451172,0.08793190866709,0.27888256311417,9.98368549346924,1.39122450351715,1.86449861526489,0.76623708009720
601,879382829,1.55618250370026,-0.50707006454468,50.79588699340820,0.07991319894791,0.30808693170547,9.96985054016113,1.31824946403503,1.81452536582947,0.69554173946381
602,879391162,1.55596113204956,-0.50757354497910,50.79599380493164,0.08870031684637,0.24907793104649,9.99233055114746,1.27544796466827,1.73822057247162,0.77842938899994
603,879399495,1.55680370330811,-0.50770574808121,50.79632186889648,0.07347963750362,0.25584331154823,10.01003551483154,1.40426218509674,1.78583741188049,0.80581110715866
604,879407828,1.55723810195923,-0.50778597593307,50.79663848876953,0.05785283446312,0.28270119428635,9.98269367218018,1.35380184650421,1.78947448730469,0.80253237485886
605,879416161,1.55702018737793,-0.50782346725464,50.79730987548828,0.06265148520470,0.29827940464020,9.99915504455566,1.27900838851929,1.79759418964386,0.84320777654648
606,879424494,1.55669569969177,-0.50691074132919,50.79674911499023,0.07767549902201,0.24509465694427,9.97878360748291,1.26107859611511,1.90663409233093,0.70804154872894
607,879432827,1.55757629871368,-0.50732535123825,50.79688262939453,0.07245945185423,0.27927547693253,9.99306011199951,1.40989708900452,1.75102746486664,0.78032481670380
608,879441160,1.55730378627777,-0.50735050439835,50.79720687866211,0.07809317857027,0.28236541152000,9.99430751800537,1.26950550079346,1.79562175273895,0.80335205793381
609,879449493,1.55614662170410,-0.50806045532227,50.79729080200195,0.09408000111580,0.27007892727852,10.00212287902832,1.16423094272614,1.71608960628510,0.77543252706528
610,879457826,1.55543327331543,-0.50846439599991,50.79740142822266,0.07013128697872,0.24872188270092,9.96433067321777,1.21520316600800,1.75043833255768,0.77294790744781
611,879466159,1.55593550205231,-0.50861001014709,50.79764938354492,0.09755110740662,0.28702983260155,10.00242710113525,1.36440622806549,1.78358328342438,0.79326003789902
612,879474492,1.55645489692688,-0.50783652067184,50.79757308959961,0.06949716806412,0.29867056012154,9.99251079559326,1.36425256729126,1.89031779766083,0.75729769468307
613,879482825,1.55650413036346,-0.50775223970413,50.79751968383789,0.08365026861429,0.27283090353012,9.99477386474609,1.30820858478546,1.81124639511108,0.75594007968903
614,879491158,1.55603861808777,-0.50776344537735,50.79744338989258,0.09168363362551,0.26179888844490,10.00029277801514,1.24635016918182,1.79600596427917,0.75637555122375
615,879499491,1.55606305599213,-0.50656032562256,50.79775619506836,0.09462133049965,0.26812517642975,9.97997188568115,1.30603146553040,1.94584941864014,0.79874151945114
616,879507824,1.55562663078308,-0.50750154256821,50.79833602905273,0.09882501512766,0.30074682831764,9.97358703613281,1.24993610382080,1.68714559078217,0.83831542730331
617,879516157,1.55593872070312,-0.50740176439285,50.79833602905273,0.08048077672720,0.27648755908012,10.01673126220703,1.34081554412842,1.81255316734314,0.76372689008713
618,879524490,1.55612134933472,-0.50683158636093,50.79844284057617,0.09187888354063,0.26770952343941,9.99937725067139,1.32411515712738,1.86690628528595,0.77988940477371
619,879532823,1.55598390102386,-0.50619935989380,50.79826354980469,0.09536668658257,0.27760747075081,9.97407627105713,1.28641104698181,1.87579476833344,0.74021303653717
620,879541156,1.55549967288971,-0.50618582963943,50.79790115356445,0.09350578486919,0.28058269619942,10.00856685638428,1.24268758296967,1.79895186424255,0.72059255838394
621,879549489,1.55521547794342,-0.50496971607208,50.79841232299805,0.09816171228886,0.26803708076477,10.00395679473877,1.26909565925598,1.94899988174438,0.82143568992615
622,879557822,1.55570507049561,-0.50389999151230,50.79829025268555,0.09873824566603,0.25291737914085,10.00495719909668,1.36048722267151,1.92540919780731,0.74149364233017
623,879566155,1.55515837669373,-0.50374442338943,50.79846954345703,0.07525321841240,0.27314665913582,9.98329925537109,1.23858916759491,1.81916141510010,0.78603684902191
624,879574488,1.55482876300812,-0.50350117683411,50.79869079589844,0.08557216823101,0.28864225745201,10.01069641113281,1.26248717308044,1.82769072055817,0.76523804664612
625,879582821,1.55426728725433,-0.50350743532181,50.79832077026367,0.07254374027252,0.28337055444717,10.00492858886719,1.23479819297791,1.79859304428101,0.72128403186798
626,879591154,1.55490136146545,-0.50282913446426,50.79802703857422,0.08177398890257,0.25099021196365,9.98881721496582,1.37690603733063,1.87953400611877,0.73122233152390
627,879599487,1.55556368827820,-0.50293600559235,50.79751586914062,0.06893561035395,0.26838663220406,9.97278404235840,1.38259232044220,1.78596520423889,0.70266246795654
628,879607820,1.55553281307220,-0.50345063209534,50.79799270629883,0.09315744787455,0.28567180037498,9.99125480651855,1.29883384704590,1.73763120174408,0.82468873262405
629,879616153,1.55456268787384,-0.50310707092285,50.79811859130859,0.09223648905754,0.26636376976967,9.99867725372314,1.18623352050781,1.84236776828766,0.77963316440582
630,879624486,1.55484783649445,-0.50209748744965,50.79837799072266,0.08771283924580,0.25569182634354,9.99600028991699,1.33684539794922,1.91951799392700,0.79210746288300
631,879632819,1.55530369281769,-0.50130397081375,50.79833221435547,0.08233191072941,0.28034782409668,9.99819850921631,1.35836112499237,1.89564538002014,0.75624740123749
632,879641152,1.55613505840302,-0.50167596340179,50.79857254028320,0.07966482639313,0.29203188419342,10.01006984710693,1.40113723278046,1.75438308715820,0.78580641746521
633,879649485,1.55648279190063,-0.50305885076523,50.79886245727539,0.06681881844997,0.27191379666328,10.00886821746826,1.34547722339630,1.63548171520233,0.80283975601196
634,879657818,1.55631959438324,-0.50248831510544,50.79880905151367,0.09131544083357,0.26338970661163,10.00529956817627,1.28118562698364,1.86739313602448,0.75824540853500
635,879666151,1.55689561367035,-0.50305223464966,50.79875946044922,0.06893543154001,0.28382918238640,10.00331687927246,1.37365281581879,1.73204731941223,0.75796359777451
636,879674484,1.55660331249237,-0.50305747985840,50.79967117309570,0.08522157371044,0.28298908472061,9.99559688568115,1.26722598075867,1.80051434040070,0.88398569822311
637,879682817,1.55586147308350,-0.50326287746429,50.79911041259766,0.08048165589571,0.24871550500393,10.00034141540527,1.21323108673096,1.77492547035217,0.69436341524124
638,879691150,1.55565953254700,-0.50307059288025,50.79897689819336,0.07806314527988,0.25548636913300,9.99567127227783,1.27670323848724,1.82069838047028,0.74897307157516
639,879699483,1.55588793754578,-0.50201880931854,50.79914093017578,0.09026531130075,0.27240657806396,10.02027034759521,1.33110785484314,1.92666447162628,0.78188735246658
640,879707816,1.55599176883698,-0.50195229053497,50.79892349243164,0.07611642777920,0.29808300733566,10.00022125244141,1.31351065635681,1.80553448200226,0.74218523502350
641,879716149,1.55587315559387,-0.50165462493896,50.79928207397461,0.09188816696405,0.26916801929474,9.98088455200195,1.28907477855682,1.83801329135895,0.80437666177750
642,879724482,1.55638849735260,-0.50128430128098,50.79852676391602,0.08298524469137,0.27191266417503,10.00328540802002,1.36317682266235,1.83952498435974,0.67305248975754
643,879732815,1.55639410018921,-0.50122606754303,50.79869842529297,0.07671811431646,0.29452076554298,10.01328086853027,1.30339300632477,1.80873656272888,0.78306561708450
644,879741148,1.55623137950897,-0.50115388631821,50.79857254028320,0.08376841992140,0.28299969434738,9.96070480346680,1.28292751312256,1.80543208122253,0.73921406269073
645,879749481,1.55678915977478,-0.50238388776779,50.79842758178711,0.08432829380035,0.29227927327156,9.99026870727539,1.36945223808289,1.65241277217865,0.75053542852402
646,879757814,1.55770027637482,-0.50269311666489,50.79858398437500,0.09980330616236,0.25558683276176,9.99788761138916,1.41133153438568,1.76247692108154,0.79728144407272
647,879766147,1.55851948261261,-0.50326371192932,50.79877471923828,0.09337287396193,0.27653956413269,10.03550815582275,1.40185427665710,1.73268759250641,0.78795790672302
648,879774480,1.55831646919250,-0.50248783826828,50.79876327514648,0.07707744091749,0.30571404099464,10.03221607208252,1.27767658233643,1.89052271842957,0.76621150970459
649,879782813,1.55782961845398,-0.50296264886856,50.79917907714844,0.08159068226814,0.28445222973824,9.98277759552002,1.24547934532166,1.74513614177704,0.81426364183426
650,879791146,1.55421733856201,-0.50448703765869,50.80009078979492,0.07585348933935,0.26576170325279,9.98724174499512,1.40305817127228,1.89864230155945,0.76897764205933
651,879799479,1.55498516559601,-0.50419616699219,50.80050659179688,0.09727745503187,0.25699606537819,10.02001857757568,1.39737164974213,1.83739864826202,0.81190717220306
652,879807812,1.55494487285614,-0.50362318754196,50.80045700073242,0.09074797481298,0.29910176992416,10.00342845916748,1.29696381092072,1.86606109142303,0.75962853431702
653,879816145,1.55410945415497,-0.50320297479630,50.80070495605469,0.06876873224974,0.27028277516365,10.01593303680420,1.20293402671814,1.85286962985992,0.79238909482956
654,879824478,1.55406606197357,-0.50274014472961,50.80089187622070,0.07945352792740,0.26923203468323,9.99733638763428,1.29724574089050,1.85407364368439,0.78514033555984
655,879832811,1.55486929416656,-0.50276648998260,50.80035400390625,0.07432204484940,0.27651309967041,9.99577903747559,1.39911341667175,1.79590344429016,0.69823122024536
656,879841144,1.55512928962708,-0.50332999229431,50.80039596557617,0.08878571540117,0.27369323372841,10.01469230651855,1.33328497409821,1.73048496246338,0.77804517745972
657,879849477,1.55521011352539,-0.50396841764450,50.80068588256836,0.08630463480949,0.27899524569511,9.97801399230957,1.31343388557434,1.72523391246796,0.80063694715500
658,879857810,1.55457913875580,-0.50420939922333,50.80017852783203,0.09187962114811,0.27292063832283,9.99408149719238,1.22547459602356,1.76718997955322,0.69812881946564
659,879866143,1.55490660667419,-0.50439733266830,50.80034637451172,0.08788952231407,0.29975959658623,9.97641658782959,1.34312069416046,1.77884459495544,0.78531956672668
660,879874476,1.55537402629852,-0.50547772645950,50.79993438720703,0.09688321501017,0.27416309714317,9.99728393554688,1.35725986957550,1.66706418991089,0.72556161880493
661,879882809,1.55516958236694,-0.50547409057617,50.80047988891602,0.07093880325556,0.25032934546471,10.01646232604980,1.28046858310699,1.80299901962280,0.82814669609070
662,879891142,1.55499804019928,-0.50613576173782,50.80098342895508,0.07641537487507,0.25766649842262,9.99590969085693,1.28149294853210,1.72090518474579,0.83160454034805
663,879899475,1.55455315113068,-0.50721514225006,50.80113983154297,0.08711035549641,0.28777277469635,9.98273372650146,1.25039732456207,1.67185378074646,0.78562706708908
664,879907808,1.55474936962128,-0.50643384456635,50.80116653442383,0.07915011048317,0.26933783292770,9.98104858398438,1.32644605636597,1.89188027381897,0.78890562057495
665,879916141,1.55477738380432,-0.50636512041092,50.80078125000000,0.08931154757738,0.26879546046257,10.01027393341064,1.30646681785583,1.80822432041168,0.71726262569427
666,879924474,1.55475854873657,-0.50717568397522,50.80018997192383,0.08726128935814,0.28110578656197,9.97970771789551,1.29909002780914,1.69923567771912,0.70227837562561
667,879932807,1.55458366870880,-0.50779592990875,50.79979705810547,0.08910299837589,0.27398288249969,9.98309326171875,1.28149294853210,1.72513139247894,0.71828716993332
668,879941140,1.55445110797882,-0.50819104909897,50.80014038085938,0.07338362187147,0.28972679376602,10.00695896148682,1.28738415241241,1.75230824947357,0.81808024644852
669,879949473,1.55423092842102,-0.50780910253525,50.80020904541016,0.07575075328350,0.26984977722168,10.00463104248047,1.27652382850647,1.84682488441467,0.77217960357666
670,879957806,1.55459225177765,-0.50663799047470,50.80028915405273,0.07099013030529,0.26194837689400,9.99841594696045,1.34619438648224,1.93867707252502,0.77118051052094
671,879966139,1.55526375770569,-0.50605362653732,50.80042648315430,0.07703021913767,0.28473991155624,9.99296188354492,1.38348889350891,1.87192690372467,0.77804529666901
672,879974472,1.55510771274567,-0.50540810823441,50.79990005493164,0.10161602497101,0.27933087944984,10.00592803955078,1.28264570236206,1.87402725219727,0.69287794828415
673,879982805,1.55502629280090,-0.50625658035278,50.79989624023438,0.07898322492838,0.26902696490288,9.99574565887451,1.29327547550201,1.69910740852356,0.76654434204102
674,879991138,1.55476462841034,-0.50651299953461,50.79909515380859,0.09054338186979,0.26659676432610,9.96503925323486,1.27029955387115,1.76491034030914,0.67015796899796
675,879999471,1.55556118488312,-0.50663363933563,50.79899215698242,0.10045820474625,0.26319026947021,9.96625614166260,1.39957451820374,1.78540194034576,0.75179064273834
676,880007804,1.55572474002838,-0.50784623622894,50.79914093017578,0.07580102980137,0.27289441227913,10.01452064514160,1.32063150405884,1.65374469757080,0.78800910711288
677,880016137,1.55558323860168,-0.50795185565948,50.79927825927734,0.08245340734720,0.27513855695724,10.02098178863525,1.28733289241791,1.78773272037506,0.78086274862289
678,880024470,1.55512809753418,-0.50820702314377,50.79955291748047,0.09880024194717,0.27604183554649,9.98330307006836,1.24770784378052,1.76921355724335,0.80547803640366
679,880032803,1.55477166175842,-0.50870597362518,50.79937362670898,0.08013474941254,0.26612973213196,10.00957298278809,1.26061737537384,1.74016702175140,0.74420875310898
680,880041136,1.55427610874176,-0.50840270519257,50.79927062988281,0.09242137521505,0.28237655758858,10.00762939453125,1.24263608455658,1.83442747592926,0.74897301197052
681,880049469,1.55433869361877,-0.50891137123108,50.79943847656250,0.08877271413803,0.27678716182709,9.98169136047363,1.31184589862823,1.73998796939850,0.78501224517822
682,880057802,1.55420792102814,-0.50830823183060,50.79961776733398,0.09905159473419,0.27642560005188,9.99912643432617,1.28618049621582,1.87174761295319,0.79315763711929
683,880066135,1.55392563343048,-0.50852781534195,50.80004501342773,0.08013845980167,0.28060972690582,10.01526737213135,1.27032518386841,1.77587318420410,0.81410998106003
684,880074468,1.55338799953461,-0.50791752338409,50.80020904541016,0.06943137198687,0.29322916269302,9.98357868194580,1.23756468296051,1.87144029140472,0.78414148092270
685,880082801,1.55351066589355,-0.50829684734344,50.80012512207031,0.08974949270487,0.26028090715408,10.00446033477783,1.31804442405701,1.75556123256683,0.75542771816254
686,880091134,1.55407559871674,-0.50802010297775,50.80096435546875,0.09881374984980,0.28229060769081,10.00774288177490,1.37063062191010,1.83394098281860,0.86172699928284
687,880099467,1.55425715446472,-0.50896251201630,50.80143737792969,0.07958579063416,0.28119248151779,9.99942874908447,1.32649707794189,1.68909227848053,0.82151252031326
688,880107800,1.55459690093994,-0.50867676734924,50.80142593383789,0.07329687476158,0.26637452840805,10.01510906219482,1.34253180027008,1.83242964744568,0.76928514242172
689,880116133,1.55470371246338,-0.50849342346191,50.80175018310547,0.07918129116297,0.27568224072456,10.00536727905273,1.31620037555695,1.82415640354156,0.80281424522400
690,880124466,1.55461525917053,-0.50926852226257,50.80184936523438,0.08370651304722,0.29204607009888,9.99804019927979,1.29153370857239,1.70548558235168,0.77071958780289
691,880132799,1.55478358268738,-0.51044231653214,50.80173110961914,0.05460682138801,0.29207825660706,9.99283313751221,1.32355165481567,1.65978968143463,0.75427520275116
692,880141132,1.55474078655243,-0.50991404056549,50.80156707763672,0.09233979135752,0.27136611938477,9.98614311218262,1.29675912857056,1.86180901527405,0.75053548812866
693,880149465,1.55479693412781,-0.50956410169601,50.80051422119141,0.06715720146894,0.28641617298126,10.02705192565918,1.30961740016937,1.83916616439819,0.63647526502609
694,880157798,1.55502927303314,-0.50849521160126,50.80101394653320,0.07210542261600,0.27355685830116,9.97245788574219,1.32972455024719,1.92827808856964,0.82952982187271
695,880166131,1.55507791042328,-0.50853860378265,50.80104446411133,0.06901763379574,0.26637312769890,9.99906444549561,1.30923330783844,1.79559612274170,0.76697981357574
696,880174464,1.55429768562317,-0.50904011726379,50.80146026611328,0.07219643145800,0.27174592018127,10.01439285278320,1.20892775058746,1.73829710483551,0.81016546487808
697,880182797,1.55422496795654,-0.50880318880081,50.80068206787109,0.05593375116587,0.27077654004097,10.02018356323242,1.29455614089966,1.82674312591553,0.66769903898239
698,880191130,1.55413293838501,-0.50843423604965,50.80126571655273,0.07356265187263,0.26235339045525,9.96941757202148,1.29045796394348,1.84551846981049,0.83437091112137
699,880199463,1.55486619472504,-0.50871545076370,50.80130004882812,0.07129257917404,0.26717725396156,9.99742603302002,1.39253079891205,1.76647305488586,0.76905459165573
700,880207796,1.55440855026245,-0.50826346874237,50.80106735229492,0.08053579181433,0.26391476392746,10.00807285308838,1.24673449993134,1.85179412364960,0.74420881271362
701,880216129,1.55416500568390,-0.50870943069458,50.80118942260742,0.07735665142536,0.28615358471870,10.00535011291504,1.27396237850189,1.74813330173492,0.77837824821472
702,880224462,1.55358433723450,-0.50851851701736,50.80134963989258,0.07945333421230,0.27864533662796,10.01136779785156,1.23269796371460,1.82177412509918,0.78836774826050
703,880232795,1.55381178855896,-0.50879758596420,50.80144119262695,0.07358193397522,0.27907624840736,10.00111389160156,1.33085167407990,1.76754879951477,0.77676451206207
704,880241128,1.55352783203125,-0.50945621728897,50.80113601684570,0.06083632260561,0.28946289420128,10.01956558227539,1.26755893230438,1.71977829933167,0.75537663698196
705,880249461,1.55334103107452,-0.50881898403168,50.80110168457031,0.06626521795988,0.29593604803085,9.97925662994385,1.28121137619019,1.87658870220184,0.75693905353546
706,880257794,1.55323588848114,-0.50925934314728,50.80182266235352,0.08045645058155,0.25479432940483,9.97790145874023,1.29017603397369,1.74831235408783,0.85849946737289
