sep=,
DeviceTag:,Xsens DOT
FirmwareVersion:,3.0.0
AppVersion:,2023.6.0
StartTime: ,2025-03-06_12:19:49_000 PST
© Movella Technologies B. V. 2005-2025

PacketCounter,SampleTimeFine,Euler_X,Euler_Y,Euler_Z,Acc_X,Acc_Y,Acc_Z,Gyr_X,Gyr_Y,Gyr_Z
0,613251808,-1.03741002082825,-1.28941965103149,22.87028503417969,0.00000000000000,0.00000000000000,0.00000000000000,0.00000000000000,0.00000000000000,0.00000000000000
1,613260141,-1.03718483448029,-1.28965401649475,22.87094497680664,0.23073196411133,-0.27199473977089,9.79719829559326,-5.36148214340210,0.06352329999208,-0.21353308856487
2,613268474,-1.03739774227142,-1.28989303112030,22.87142753601074,0.23611293733120,-0.28342679142952,9.76928329467773,-5.38225507736206,0.06221697479486,-0.23768727481365
3,613276807,-1.03759145736694,-1.29013884067535,22.87165069580078,0.22128705680370,-0.29034110903740,9.78700637817383,-5.41393947601318,0.06088503450155,-0.26550433039665
4,613285140,-1.03784012794495,-1.28964030742645,22.87137413024902,0.20930117368698,-0.28215545415878,9.77549362182617,-5.38991451263428,0.15258400142193,-0.32485255599022
5,613293473,-1.03755497932434,-1.29015576839447,22.87125396728516,0.19300395250320,-0.28613305091858,9.76031970977783,-5.35656404495239,0.03122374974191,-0.30574429035187
6,613301806,-1.03743767738342,-1.28899633884430,22.87155342102051,0.19927369058132,-0.27548602223396,9.77672004699707,-5.34593439102173,0.22896565496922,-0.26127803325653
7,613310139,-1.03745138645172,-1.28901529312134,22.87203025817871,0.19525881111622,-0.28526309132576,9.77737998962402,-5.39014434814453,0.08921437710524,-0.23522832989693
8,613318472,-1.03832840919495,-1.28849887847900,22.87177276611328,0.20444548130035,-0.28787738084793,9.79587841033936,-5.46598768234253,0.15488928556442,-0.32475009560585
9,613326805,-1.03770053386688,-1.28882765769958,22.87162590026855,0.21523442864418,-0.29960510134697,9.77206611633301,-5.31550455093384,0.05248356983066,-0.31012436747551
10,613335138,-1.03805577754974,-1.28903102874756,22.87194633483887,0.22543822228909,-0.28681340813637,9.78353118896484,-5.40264415740967,0.06744228303432,-0.26960265636444
11,613343471,-1.03778231143951,-1.28895306587219,22.87220954895020,0.23264469206333,-0.29153466224670,9.81520175933838,-5.35715341567993,0.10189342498779,-0.25915199518204
12,613351804,-1.03730607032776,-1.28957295417786,22.87216949462891,0.22038774192333,-0.29126307368279,9.78190994262695,-5.30300474166870,0.01718715019524,-0.31289067864418
13,613360137,-1.03710556030273,-1.28990471363068,22.87210655212402,0.21512629091740,-0.26119655370712,9.79288101196289,-5.36647701263428,0.05289340019226,-0.29959693551064
14,613368470,-1.03785192966461,-1.28917431831360,22.87165069580078,0.20580857992172,-0.26911970973015,9.79017829895020,-5.45138835906982,0.18011932075024,-0.34823834896088
15,613376803,-1.03695321083069,-1.28904676437378,22.87186813354492,0.21211078763008,-0.29134130477905,9.78956413269043,-5.28189802169800,0.10706749558449,-0.26535063982010
16,613385136,-1.03739523887634,-1.28894305229187,22.87180328369141,0.21095897257328,-0.28583651781082,9.77916908264160,-5.41150665283203,0.10302045941353,-0.30538573861122
17,613393469,-1.03757536411285,-1.28807735443115,22.87200355529785,0.21538722515106,-0.27640363574028,9.78508186340332,-5.41224908828735,0.19497554004192,-0.26471027731895
18,613401802,-1.03863215446472,-1.28765809535980,22.87196540832520,0.21738623082638,-0.30878403782845,9.78548526763916,-5.48696613311768,0.14336286485195,-0.30062147974968
19,613410135,-1.03799450397491,-1.28768968582153,22.87163925170898,0.20446544885635,-0.28080096840858,9.81380271911621,-5.31353235244751,0.08806174248457,-0.33030837774277
20,613418468,-1.03804409503937,-1.28797817230225,22.87122154235840,0.20208506286144,-0.29651296138763,9.80967044830322,-5.36522197723389,0.05763202905655,-0.34700885415077
21,613426801,-1.03860640525818,-1.28825283050537,22.87181472778320,0.21565926074982,-0.29323151707649,9.78058910369873,-5.45697164535522,0.05829799920321,-0.22170400619507
22,613435134,-1.03914904594421,-1.28939104080200,22.87165641784668,0.23420035839081,-0.29498547315598,9.80406951904297,-5.42390394210815,-0.04599035531282,-0.31727072596550
23,613443467,-1.03811037540436,-1.28952252864838,22.87169265747070,0.23368428647518,-0.27880647778511,9.81315135955811,-5.26645278930664,0.07622796297073,-0.28819856047630
24,613451800,-1.03900170326233,-1.28913903236389,22.87128448486328,0.21459949016571,-0.30056506395340,9.77710533142090,-5.46642398834229,0.13923898339272,-0.34242391586304
25,613460133,-1.03908145427704,-1.28955328464508,22.87078857421875,0.22451941668987,-0.29136025905609,9.79541778564453,-5.40169668197632,0.04346735775471,-0.35266959667206
26,613468466,-1.03873670101166,-1.28908419609070,22.87051582336426,0.19415239989758,-0.28356784582138,9.78737354278564,-5.31929540634155,0.14740993082523,-0.32831043004990
27,613476799,-1.03923726081848,-1.28856325149536,22.87046813964844,0.21019585430622,-0.29714497923851,9.77261447906494,-5.44964599609375,0.15442821383476,-0.29580596089363
28,613485132,-1.03941655158997,-1.28857803344727,22.87134552001953,0.19119499623775,-0.28370347619057,9.75144481658936,-5.38023138046265,0.08936806023121,-0.19567994773388
29,613493465,-1.03859341144562,-1.28862559795380,22.87193107604980,0.21118925511837,-0.28864392638206,9.78975868225098,-5.28904438018799,0.08424521237612,-0.22090995311737
30,613501798,-1.03847813606262,-1.28931665420532,22.87173652648926,0.22824689745903,-0.28854772448540,9.75920867919922,-5.34693288803101,0.00983586721122,-0.32042127847672
31,613510131,-1.03752136230469,-1.28913402557373,22.87176895141602,0.22725582122803,-0.27576383948326,9.80535030364990,-5.27488040924072,0.11336860060692,-0.28773751854897
32,613518464,-1.03744804859161,-1.29054844379425,22.87194442749023,0.23436525464058,-0.28789481520653,9.79296207427979,-5.35238885879517,-0.07718849927187,-0.27723568677902
33,613526797,-1.03737282752991,-1.29027783870697,22.87210845947266,0.21118673682213,-0.28442478179932,9.78510570526123,-5.38018083572388,0.12320447713137,-0.27083209156990
34,613535130,-1.03780174255371,-1.28949582576752,22.87253952026367,0.19869187474251,-0.28229391574860,9.78716087341309,-5.41096878051758,0.18496040999889,-0.25092983245850
35,613543463,-1.03770184516907,-1.29008471965790,22.87296104431152,0.19853222370148,-0.28813758492470,9.80822086334229,-5.37777280807495,0.02041454613209,-0.24314312636852
36,613551796,-1.03797304630280,-1.29020094871521,22.87220954895020,0.20848664641380,-0.28256985545158,9.79232406616211,-5.39465284347534,0.07994203269482,-0.38066598773003
37,613560129,-1.03802382946014,-1.29021322727203,22.87199401855469,0.21137532591820,-0.30094760656357,9.80533599853516,-5.39741849899292,0.09049508720636,-0.31752684712410
38,613568462,-1.03773772716522,-1.29066836833954,22.87153244018555,0.21053196489811,-0.29157382249832,9.78691768646240,-5.32480239868164,0.03785784170032,-0.36107105016708
39,613576795,-1.03809881210327,-1.29000163078308,22.87108421325684,0.22629117965698,-0.27963730692863,9.76613330841064,-5.43381690979004,0.17374137043953,-0.34365338087082
40,613585128,-1.03719782829285,-1.29016554355621,22.87060165405273,0.19553585350513,-0.30862239003181,9.77492237091064,-5.25341510772705,0.07251390069723,-0.35471871495247
41,613593461,-1.03654897212982,-1.29015076160431,22.87056159973145,0.21330913901329,-0.29161995649338,9.77706813812256,-5.31266164779663,0.09377370774746,-0.29549860954285
42,613601794,-1.03628087043762,-1.29092347621918,22.87061882019043,0.20108027756214,-0.28694984316826,9.78243446350098,-5.32754278182983,-0.00111421919428,-0.29024767875671
43,613610127,-1.03679227828979,-1.29158043861389,22.87053871154785,0.21670556068420,-0.27725204825401,9.78711891174316,-5.45172023773193,0.01462572626770,-0.30197903513908
44,613618460,-1.03654086589813,-1.29166138172150,22.87012481689453,0.23209382593632,-0.27117842435837,9.79017353057861,-5.33118057250977,0.08311819285154,-0.34434500336647
45,613626793,-1.03638386726379,-1.29176902770996,22.86996269226074,0.23600305616856,-0.27238515019417,9.79323482513428,-5.37195777893066,0.07773920893669,-0.31137943267822
46,613635126,-1.03666901588440,-1.29236590862274,22.86991119384766,0.23162919282913,-0.29123991727829,9.79549503326416,-5.39690637588501,0.02123420126736,-0.30098009109497
47,613643459,-1.03678500652313,-1.29265439510345,22.87013053894043,0.20586107671261,-0.30160316824913,9.77467060089111,-5.40246391296387,0.05709411948919,-0.26517134904861
48,613651792,-1.03692865371704,-1.29313361644745,22.86949920654297,0.18517696857452,-0.28514194488525,9.77347373962402,-5.37956619262695,0.03626975789666,-0.38174179196358
49,613660125,-1.03696107864380,-1.29302859306335,22.87026405334473,0.20486156642437,-0.29717659950256,9.80446338653564,-5.39147663116455,0.10373765975237,-0.20151999592781
50,613668458,-1.03780388832092,-1.29318213462830,22.86934471130371,0.20417778193951,-0.28261530399323,9.80096530914307,-5.46527099609375,0.07625357806683,-0.41470730304718
51,613676791,-1.03700959682465,-1.29285192489624,22.86893463134766,0.20562954246998,-0.29550904035568,9.79419898986816,-5.29703664779663,0.13129858672619,-0.33932459354401
52,613685124,-1.03699612617493,-1.29313278198242,22.86919593811035,0.22647348046303,-0.29022547602654,9.77852821350098,-5.35740947723389,0.05924572050571,-0.27472549676895
53,613693457,-1.03739058971405,-1.29387199878693,22.86934661865234,0.23779980838299,-0.28867426514626,9.81196308135986,-5.43804311752319,0.00276633724570,-0.27326548099518
54,613701790,-1.03764331340790,-1.29379022121429,22.86917495727539,0.22844868898392,-0.29919233918190,9.80593681335449,-5.39047765731812,0.10132991522551,-0.31729635596275
55,613710123,-1.03774857521057,-1.29318666458130,22.86858749389648,0.22345650196075,-0.29662775993347,9.78197669982910,-5.40497446060181,0.16567288339138,-0.36045628786087
56,613718456,-1.03851163387299,-1.29280102252960,22.86828041076660,0.20296208560467,-0.30563193559647,9.79063510894775,-5.45031261444092,0.13772775232792,-0.33289545774460
57,613726789,-1.03771436214447,-1.29292047023773,22.86745262145996,0.20050247013569,-0.29110470414162,9.77085304260254,-5.29608917236328,0.08045431971550,-0.39042499661446
58,613735122,-1.03788101673126,-1.29286718368530,22.86736106872559,0.22666895389557,-0.28852039575577,9.76428222656250,-5.37915658950806,0.09881971776485,-0.30802401900291
59,613743455,-1.03910982608795,-1.29297435283661,22.86703300476074,0.22162909805775,-0.31644681096077,9.78844356536865,-5.53860473632812,0.07917360961437,-0.33202451467514
60,613751788,-1.03960084915161,-1.29257476329803,22.86708068847656,0.23495994508266,-0.31212690472603,9.79900836944580,-5.41767978668213,0.14036601781845,-0.28279399871826
61,613760121,-1.03929615020752,-1.29149532318115,22.86706161499023,0.20448724925518,-0.30261787772179,9.80039978027344,-5.35413074493408,0.22176803648472,-0.29119539260864
62,613768454,-1.03865921497345,-1.29152250289917,22.86663627624512,0.23615129292011,-0.26604646444321,9.79091835021973,-5.28453683853149,0.08911191672087,-0.34749549627304
63,613776787,-1.03845429420471,-1.29210937023163,22.86657142639160,0.22124183177948,-0.27457419037819,9.81438446044922,-5.36552953720093,0.02256614156067,-0.29985305666924
64,613785120,-1.03854227066040,-1.29303312301636,22.86699295043945,0.23968900740147,-0.28506839275360,9.75771522521973,-5.37008857727051,-0.01991506852210,-0.24683159589767
65,613793453,-1.03857696056366,-1.29269099235535,22.86683845520020,0.22227557003498,-0.27236667275429,9.78795814514160,-5.39449882507324,0.13219505548477,-0.31040608882904
66,613801786,-1.03810286521912,-1.29933214187622,22.87126159667969,0.23064188659191,-0.29138514399529,9.80073642730713,-5.32649326324463,0.05325199663639,-0.35154256224632
67,613810119,-1.03861582279205,-1.29943299293518,22.87123107910156,0.22448672354221,-0.27709627151489,9.79094600677490,-5.45102977752686,0.07986518740654,-0.29485827684402
68,613818452,-1.03885591030121,-1.29908561706543,22.87114524841309,0.23466315865517,-0.29764592647552,9.78240585327148,-5.38855600357056,0.13455156981945,-0.31552892923355
69,613826785,-1.03915703296661,-1.30029773712158,22.87110137939453,0.20805314183235,-0.28896000981331,9.77737045288086,-5.42690038681030,-0.05218899995089,-0.29928952455521
70,613835118,-1.03877925872803,-1.30071926116943,22.87134170532227,0.19959227740765,-0.28404271602631,9.78138446807861,-5.31325101852417,0.03903609886765,-0.26996126770973
71,613843451,-1.03909254074097,-1.30042123794556,22.87150955200195,0.21795122325420,-0.28857094049454,9.78950500488281,-5.42810440063477,0.12830170989037,-0.27057597041130
72,613851784,-1.03933894634247,-1.30040347576141,22.87173652648926,0.21711473166943,-0.27578812837601,9.78961467742920,-5.38799285888672,0.09454213827848,-0.27364969253540
73,613860117,-1.03906190395355,-1.30170810222626,22.87207984924316,0.20363429188728,-0.29495179653168,9.78503417968750,-5.35630846023560,-0.06430453807116,-0.25259476900101
74,613868450,-1.03882682323456,-1.30292236804962,22.87195587158203,0.20988832414150,-0.28869488835335,9.81293964385986,-5.33056592941284,-0.05513464659452,-0.31212225556374
75,613876783,-1.03926157951355,-1.30341935157776,22.87200355529785,0.22975319623947,-0.26940050721169,9.81089019775391,-5.44157791137695,0.03381078690290,-0.28758379817009
76,613885116,-1.03897523880005,-1.30342888832092,22.87181472778320,0.22458390891552,-0.26771089434624,9.84033107757568,-5.32787609100342,0.09128913283348,-0.32969364523888
77,613893449,-1.03890323638916,-1.30337047576904,22.87112045288086,0.20744967460632,-0.28864645957947,9.78077602386475,-5.38294744491577,0.10030534863472,-0.37446734309196
78,613901782,-1.03900706768036,-1.30356216430664,22.87017631530762,0.20165470242500,-0.30065187811852,9.76977062225342,-5.37690162658691,0.07248828560114,-0.41706377267838
79,613910115,-1.03871166706085,-1.30354619026184,22.87037849426270,0.20445328950882,-0.28567764163017,9.81266498565674,-5.35402822494507,0.09467021375895,-0.26796332001686
80,613918448,-1.03869688510895,-1.30333101749420,22.87029266357422,0.20313712954521,-0.28293707966805,9.79301643371582,-5.35853672027588,0.11692898720503,-0.31378719210625
81,613926781,-1.03819119930267,-1.30287444591522,22.87014389038086,0.19357322156429,-0.29426580667496,9.79676151275635,-5.33100080490112,0.14735868573189,-0.30948397517204
82,613935114,-1.03812253475189,-1.30265688896179,22.87038612365723,0.21424318850040,-0.28982770442963,9.79529571533203,-5.35136508941650,0.11872199177742,-0.26893666386604
83,613943447,-1.03753602504730,-1.30281031131744,22.87038421630859,0.21225801110268,-0.29931181669235,9.77535629272461,-5.31944894790649,0.07341039925814,-0.29188701510429
84,613951780,-1.03780341148376,-1.30290472507477,22.87051773071289,0.21328455209732,-0.28637290000916,9.77567768096924,-5.39203977584839,0.07963466644287,-0.28489437699318
85,613960113,-1.03740155696869,-1.30256283283234,22.86989784240723,0.21719518303871,-0.28578880429268,9.79454708099365,-5.34309148788452,0.13457719981670,-0.36632201075554
86,613968446,-1.03632032871246,-1.30216562747955,22.86959648132324,0.22633466124535,-0.25708979368210,9.79539299011230,-5.22997856140137,0.13959756493568,-0.32690167427063
87,613976779,-1.03557384014130,-1.30227124691010,22.86882209777832,0.24261033535004,-0.30028769373894,9.78279495239258,-5.30364561080933,0.08209363371134,-0.38502040505409
88,613985112,-1.03527724742889,-1.30169916152954,22.86840820312500,0.23654547333717,-0.28201207518578,9.78165245056152,-5.32516145706177,0.16136971116066,-0.35566648840904
89,613993445,-1.03510200977325,-1.30133175849915,22.86821556091309,0.22315828502178,-0.29443401098251,9.80334186553955,-5.36957645416260,0.13777898252010,-0.31406897306442
90,614001778,-1.03504884243011,-1.29973661899567,22.86813735961914,0.21003817021847,-0.30273187160492,9.79401302337646,-5.35410499572754,0.28385695815086,-0.30213272571564
91,614010111,-1.03455734252930,-1.30007743835449,22.86815261840820,0.20229530334473,-0.27980065345764,9.79963302612305,-5.33107757568359,0.05086987093091,-0.29140034317970
92,614018444,-1.03555572032928,-1.29937064647675,22.86795234680176,0.21188348531723,-0.27651962637901,9.80556201934814,-5.48084402084351,0.17766033113003,-0.31319802999496
93,614026777,-1.03483474254608,-1.29904413223267,22.86841773986816,0.23155686259270,-0.29070526361465,9.78804206848145,-5.30236434936523,0.13060697913170,-0.23620165884495
94,614035110,-1.03472781181335,-1.29895401000977,22.86855125427246,0.20069272816181,-0.28830745816231,9.81091690063477,-5.34508943557739,0.10238010436296,-0.27598059177399
95,614043443,-1.03424024581909,-1.29844975471497,22.86818122863770,0.23202273249626,-0.29180970788002,9.78481006622314,-5.33312749862671,0.15437699854374,-0.33555930852890
96,614051776,-1.03392112255096,-1.29766666889191,22.86812210083008,0.22161322832108,-0.28362670540810,9.79492092132568,-5.32113981246948,0.18570323288441,-0.30466857552528
97,614060109,-1.03432464599609,-1.29846632480621,22.86811447143555,0.21595281362534,-0.29327782988548,9.77247047424316,-5.43929815292358,-0.00380371417850,-0.29539620876312
98,614068442,-1.03483402729034,-1.29864919185638,22.86758232116699,0.22555924952030,-0.29244270920753,9.77097606658936,-5.42380142211914,0.07212968170643,-0.36913952231407
99,614076775,-1.03462457656860,-1.29846870899200,22.86829948425293,0.22472542524338,-0.31122794747353,9.80227661132812,-5.36365938186646,0.11288193613291,-0.20728322863579
100,614085108,-1.03500211238861,-1.29870188236237,22.86837577819824,0.21191503107548,-0.28326538205147,9.79187965393066,-5.40525674819946,0.06390751898289,-0.29201510548592
101,614093441,-1.03534972667694,-1.29918324947357,22.86820983886719,0.21314376592636,-0.26770675182343,9.78358078002930,-5.43186998367310,0.03524519130588,-0.31276264786720
102,614101774,-1.03591859340668,-1.29939162731171,22.86817932128906,0.22084711492062,-0.30131417512894,9.78399848937988,-5.42725944519043,0.06800580024719,-0.30541136860847
103,614110107,-1.03563356399536,-1.29878950119019,22.86805915832520,0.20899088680744,-0.28849637508392,9.77798748016357,-5.35674333572388,0.16449458897114,-0.30615413188934
104,614118440,-1.03584253787994,-1.29861044883728,22.86895179748535,0.20617242157459,-0.27509769797325,9.80814170837402,-5.38061571121216,0.11026929318905,-0.19578239321709
105,614126773,-1.03576838970184,-1.29834878444672,22.86851501464844,0.22203814983368,-0.29324194788933,9.78380107879639,-5.38266515731812,0.12509992718697,-0.34521585702896
106,614135106,-1.03658115863800,-1.29852724075317,22.86966133117676,0.21178822219372,-0.28374508023262,9.79901885986328,-5.45433378219604,0.06859492510557,-0.15677192807198
107,614143439,-1.03617203235626,-1.29855859279633,22.87028884887695,0.24881213903427,-0.28448373079300,9.77883148193359,-5.33953094482422,0.08711401373148,-0.21681171655655
108,614151772,-1.03670489788055,-1.29909086227417,22.87038421630859,0.21064573526382,-0.28373765945435,9.78613567352295,-5.42446660995483,0.02676687389612,-0.28471499681473
109,614160105,-1.03654229640961,-1.29990541934967,22.87021636962891,0.21487352252007,-0.27967539429665,9.80943965911865,-5.36993503570557,-0.00452091265470,-0.31273701786995
110,614168438,-1.03610122203827,-1.30051076412201,22.86971092224121,0.20447774231434,-0.27712595462799,9.79569816589355,-5.30894708633423,0.02102928608656,-0.35697281360626
111,614176771,-1.03588116168976,-1.30007421970367,22.86937522888184,0.20378312468529,-0.29448330402374,9.81305503845215,-5.36337757110596,0.14543762803078,-0.33207577466965
112,614185104,-1.03601765632629,-1.30046868324280,22.86875343322754,0.20935437083244,-0.29883414506912,9.80645751953125,-5.37621068954468,0.04515789821744,-0.36437532305717
113,614193437,-1.03693056106567,-1.30056083202362,22.86876487731934,0.17978096008301,-0.27446001768112,9.82320785522461,-5.49890232086182,0.08135081827641,-0.28878772258759
114,614201770,-1.03693246841431,-1.30012738704681,22.86878776550293,0.20080848038197,-0.29938158392906,9.79519271850586,-5.36071395874023,0.14326043426991,-0.29642075300217
115,614210103,-1.03639876842499,-1.30061483383179,22.86882400512695,0.23716950416565,-0.27768486738205,9.77698707580566,-5.32639074325562,0.03480974584818,-0.28863403201103
116,614218436,-1.03628337383270,-1.30054020881653,22.86886787414551,0.22770418226719,-0.28809267282486,9.79379463195801,-5.34432077407837,0.09938323497772,-0.28609821200371
117,614226769,-1.03554081916809,-1.30053758621216,22.86904716491699,0.22915835678577,-0.26766672730446,9.77373790740967,-5.30113506317139,0.09405548125505,-0.27026861906052
118,614235102,-1.03560817241669,-1.29996037483215,22.86898231506348,0.24782019853592,-0.30002430081367,9.77477264404297,-5.36883258819580,0.16014018654823,-0.30013477802277
119,614243435,-1.03517425060272,-1.29987156391144,22.86888313293457,0.20459757745266,-0.28896021842957,9.79006004333496,-5.33740472793579,0.10394256561995,-0.30390009284019
120,614251768,-1.03533267974854,-1.30037271976471,22.86906814575195,0.19037804007530,-0.28530955314636,9.80840682983398,-5.37869501113892,0.03145428374410,-0.27062723040581
121,614260101,-1.03488636016846,-1.30006682872772,22.86926651000977,0.22159582376480,-0.29126024246216,9.79123973846436,-5.33550930023193,0.12899330258369,-0.26711806654930
122,614268434,-1.03525578975677,-1.30056083202362,22.86970329284668,0.21868182718754,-0.28205856680870,9.80261611938477,-5.40297698974609,0.03099322505295,-0.25287652015686
123,614276767,-1.03487539291382,-1.30072379112244,22.86980628967285,0.21698632836342,-0.28584593534470,9.80670547485352,-5.34416723251343,0.07259075343609,-0.27964344620705
124,614285100,-1.03490948677063,-1.30063104629517,22.86936759948730,0.21386876702309,-0.28143697977066,9.80060005187988,-5.36558055877686,0.10432677716017,-0.34693199396133
125,614293433,-1.03420209884644,-1.30096280574799,22.86872863769531,0.21589264273643,-0.28588703274727,9.75791454315186,-5.30738449096680,0.05363620445132,-0.36952376365662
126,614301766,-1.03397607803345,-1.30014336109161,22.86850738525391,0.21417097747326,-0.28641268610954,9.79338169097900,-5.33366537094116,0.19187624752522,-0.31826969981194
127,614310099,-1.03307044506073,-1.30103433132172,22.86906814575195,0.22158308327198,-0.29162076115608,9.77366161346436,-5.27890157699585,-0.01645714603364,-0.22715982794762
128,614318432,-1.03265416622162,-1.30115509033203,22.86938095092773,0.21483679115772,-0.28879514336586,9.74531745910645,-5.30920362472534,0.07699639350176,-0.26345524191856
129,614326765,-1.03259205818176,-1.30084335803986,22.86931610107422,0.21491627395153,-0.29037743806839,9.78237152099609,-5.38289499282837,0.13050450384617,-0.29890528321266
130,614335098,-1.03303158283234,-1.30103957653046,22.86911582946777,0.24261298775673,-0.29277467727661,9.76704883575439,-5.41360712051392,0.06839001178741,-0.31942233443260
131,614343431,-1.03325664997101,-1.30133771896362,22.86958122253418,0.21065366268158,-0.27962553501129,9.76303386688232,-5.41575813293457,0.05565973743796,-0.23635533452034
132,614351764,-1.03397011756897,-1.30028855800629,22.86972045898438,0.19307880103588,-0.26761522889137,9.80336093902588,-5.44503593444824,0.21718311309814,-0.30223518610001
133,614360097,-1.03337657451630,-1.30105996131897,22.86847686767578,0.20577941834927,-0.27519139647484,9.80159378051758,-5.32285594940186,0.00312493671663,-0.44193518161774
134,614368430,-1.03368806838989,-1.30138432979584,22.86907577514648,0.18260906636715,-0.30574405193329,9.77018356323242,-5.39503669738770,0.05317515507340,-0.22946511209011
135,614376763,-1.03310954570770,-1.30084776878357,22.86877822875977,0.21935194730759,-0.27438628673553,9.78343582153320,-5.32219028472900,0.15732264518738,-0.32792624831200
136,614385096,-1.03300309181213,-1.29986286163330,22.86892127990723,0.22985905408859,-0.28584870696068,9.79615688323975,-5.34757375717163,0.20929391682148,-0.27790164947510
137,614393429,-1.03292405605316,-1.29916870594025,22.86885070800781,0.23783761262894,-0.27693840861320,9.78891468048096,-5.38130664825439,0.17663575708866,-0.30026283860207
138,614401762,-1.03285312652588,-1.29884111881256,22.86934089660645,0.22487750649452,-0.28229191899300,9.80027103424072,-5.35072374343872,0.13086311519146,-0.24990528821945
139,614410095,-1.03214800357819,-1.29943072795868,22.86973762512207,0.23025496304035,-0.29058536887169,9.79346942901611,-5.30495119094849,0.02041454613209,-0.24596066772938
140,614418428,-1.03284943103790,-1.29989421367645,22.87012100219727,0.22461655735970,-0.29954332113266,9.80705928802490,-5.44301223754883,0.03486097231507,-0.25034070014954
141,614426761,-1.03319573402405,-1.29923582077026,22.86965751647949,0.23297974467278,-0.28612810373306,9.79196739196777,-5.43230628967285,0.17258873581886,-0.34595865011215
142,614435094,-1.03352379798889,-1.29835176467896,22.86982917785645,0.20157267153263,-0.29277259111404,9.81052494049072,-5.39880228042603,0.19804927706718,-0.27969464659691
143,614443427,-1.03362572193146,-1.29881203174591,22.87048149108887,0.21147455275059,-0.28341674804688,9.80584144592285,-5.39972400665283,0.03626975417137,-0.21588957309723
144,614451760,-1.03349733352661,-1.29804849624634,22.87012100219727,0.22083684802055,-0.28470101952553,9.81190109252930,-5.34473085403442,0.18337230384350,-0.33604595065117
145,614460093,-1.03303182125092,-1.29806840419769,22.86994934082031,0.20220343768597,-0.29450553655624,9.80977058410645,-5.33471536636353,0.09110984206200,-0.31199422478676
146,614468426,-1.03260731697083,-1.29896938800812,22.86924552917480,0.21820159256458,-0.27656427025795,9.79760169982910,-5.31081724166870,-0.01530450675637,-0.38199788331985
147,614476759,-1.03274118900299,-1.29840707778931,22.86955261230469,0.23446583747864,-0.28680229187012,9.80055713653564,-5.40515422821045,0.15985845029354,-0.25377303361893
148,614485092,-1.03348529338837,-1.29799914360046,22.86988067626953,0.21466074883938,-0.28368502855301,9.80186653137207,-5.44623947143555,0.13962319493294,-0.26806581020355
149,614493425,-1.03381109237671,-1.29788911342621,22.86971092224121,0.22948993742466,-0.28562641143799,9.79068565368652,-5.43089675903320,0.10686259716749,-0.31181490421295
150,614501758,-1.03410422801971,-1.29799282550812,22.87084007263184,0.21369881927967,-0.27807709574699,9.77349853515625,-5.39104127883911,0.07666341215372,-0.16338041424751
151,614510091,-1.03350281715393,-1.29785692691803,22.87105560302734,0.23505811393261,-0.29483214020729,9.80061531066895,-5.31719493865967,0.10699065029621,-0.26622155308723
152,614518424,-1.03327429294586,-1.29787838459015,22.87127113342285,0.20876963436604,-0.27679458260536,9.79570102691650,-5.33179521560669,0.08975227922201,-0.28074482083321
153,614526757,-1.03299975395203,-1.29861128330231,22.87152481079102,0.20443700253963,-0.26143783330917,9.77923965454102,-5.35689687728882,0.00468740519136,-0.26245623826981
154,614535090,-1.03292703628540,-1.29887616634369,22.87194061279297,0.19810488820076,-0.28416347503662,9.78680038452148,-5.35021209716797,0.05873344466090,-0.24964915215969
155,614543423,-1.03235626220703,-1.29854619503021,22.87253952026367,0.22599932551384,-0.28084075450897,9.81559181213379,-5.32049942016602,0.12996664643288,-0.21863028407097
156,614551756,-1.03159606456757,-1.29778575897217,22.87221336364746,0.20947448909283,-0.28555485606194,9.79086303710938,-5.26873302459717,0.18393583595753,-0.33425298333168
157,614560089,-1.03106319904327,-1.29790079593658,22.87204170227051,0.21560864150524,-0.27815410494804,9.77632331848145,-5.32659578323364,0.07930167019367,-0.31227594614029
158,614568422,-1.03117811679840,-1.29813873767853,22.87216949462891,0.23348782956600,-0.29261893033981,9.77892208099365,-5.37072896957397,0.06352330744267,-0.28207677602768
159,614576755,-1.03169202804565,-1.29883825778961,22.87209510803223,0.22007219493389,-0.27481678128242,9.79803466796875,-5.45197725296021,0.00742812827229,-0.30208146572113
160,614585088,-1.03214681148529,-1.29973042011261,22.87301635742188,0.20844915509224,-0.25992029905319,9.78983402252197,-5.41201925277710,-0.01699504442513,-0.20615620911121
161,614593421,-1.03314447402954,-1.29964792728424,22.87376785278320,0.22206155955791,-0.28712865710258,9.78882598876953,-5.50771379470825,0.10099692642689,-0.20131506025791
162,614601754,-1.03327226638794,-1.29925680160522,22.87387084960938,0.21807904541492,-0.29772758483887,9.79326915740967,-5.37485265731812,0.13811196386814,-0.27644163370132
163,614610087,-1.03288805484772,-1.29830873012543,22.87418365478516,0.20564004778862,-0.29287210106850,9.79817867279053,-5.34339857101440,0.20742407441139,-0.25167262554169
164,614618420,-1.03326606750488,-1.29777932167053,22.87481117248535,0.20945657789707,-0.29262533783913,9.80936622619629,-5.40359210968018,0.15250715613365,-0.21827168762684
165,614626753,-1.03330683708191,-1.29800105094910,22.87501716613770,0.22098979353905,-0.28824713826180,9.77822971343994,-5.39542055130005,0.06641770899296,-0.26788648962975
166,614635086,-1.03352808952332,-1.29805147647858,22.87511825561523,0.19801612198353,-0.27721139788628,9.78450679779053,-5.38489341735840,0.08519294857979,-0.28412592411041
167,614643419,-1.03379714488983,-1.29724013805389,22.87555122375488,0.20698690414429,-0.28532013297081,9.78429889678955,-5.42011308670044,0.18872569501400,-0.23802027106285
168,614651752,-1.03392875194550,-1.29782843589783,22.87630462646484,0.22076274454594,-0.30738326907158,9.78859329223633,-5.37369918823242,0.02064507268369,-0.21076670289040
169,614660085,-1.03378868103027,-1.29828357696533,22.87661170959473,0.22276885807514,-0.27528032660484,9.79372692108154,-5.37282896041870,0.03701256960630,-0.25546357035637
170,614668418,-1.03356778621674,-1.29868137836456,22.87667655944824,0.22750778496265,-0.29698294401169,9.79139328002930,-5.33430576324463,0.04321121424437,-0.29311650991440
171,614676751,-1.03280985355377,-1.29859352111816,22.87646293640137,0.23177812993526,-0.29160407185555,9.77350711822510,-5.29872655868530,0.10363519191742,-0.31770613789558
172,614685084,-1.03304207324982,-1.29913485050201,22.87552261352539,0.22819925844669,-0.29595792293549,9.76861381530762,-5.39016962051392,0.03009672462940,-0.41063457727432
173,614693417,-1.03294193744659,-1.29935348033905,22.87560272216797,0.21043300628662,-0.29088833928108,9.79088973999023,-5.37741470336914,0.06529068946838,-0.28215363621712
174,614701750,-1.03367531299591,-1.29990673065186,22.87574768066406,0.20372332632542,-0.28514540195465,9.80097103118896,-5.44616222381592,0.02451282367110,-0.28110340237617
175,614710083,-1.03411877155304,-1.30062627792358,22.87531661987305,0.21825627982616,-0.29502755403519,9.80637454986572,-5.44465112686157,0.00791479833424,-0.34498530626297
176,614718416,-1.03445959091187,-1.29996943473816,22.87532234191895,0.20582021772861,-0.29354134202003,9.78559017181396,-5.40097951889038,0.16956625878811,-0.29424354434013
177,614726749,-1.03358626365662,-1.29977309703827,22.87551689147949,0.22466509044170,-0.28719353675842,9.79922962188721,-5.28489542007446,0.11557141691446,-0.26783522963524
178,614735082,-1.03337395191193,-1.30075454711914,22.87577819824219,0.21787051856518,-0.28243777155876,9.82818508148193,-5.33238410949707,-0.02565265633166,-0.26801458001137
179,614743415,-1.03272986412048,-1.30039465427399,22.87528991699219,0.22614763677120,-0.27158749103546,9.78791427612305,-5.31483888626099,0.13652388751507,-0.34998008608818
180,614751748,-1.03311657905579,-1.29942655563354,22.87537765502930,0.23166579008102,-0.30958682298660,9.80109214782715,-5.40489864349365,0.20819251239300,-0.28517609834671
181,614760081,-1.03292918205261,-1.29907083511353,22.87604141235352,0.22753702104092,-0.28676408529282,9.77021312713623,-5.36681032180786,0.13293786346912,-0.21248288452625
182,614768414,-1.03312766551971,-1.29876732826233,22.87704277038574,0.22280527651310,-0.27530139684677,9.79498767852783,-5.37890005111694,0.12707222998142,-0.18287283182144
183,614776747,-1.03319418430328,-1.29875993728638,22.87700653076172,0.22775246202946,-0.29106199741364,9.78326606750488,-5.39862251281738,0.09395300596952,-0.29529371857643
184,614785080,-1.03337633609772,-1.29808866977692,22.87706184387207,0.20492433011532,-0.31085163354874,9.80712699890137,-5.38041114807129,0.17120555043221,-0.29670250415802
185,614793413,-1.03266847133636,-1.29787135124207,22.87695312500000,0.18641781806946,-0.28297206759453,9.78335952758789,-5.30438756942749,0.11902935057878,-0.30643591284752
186,614801746,-1.03268647193909,-1.29697477817535,22.87725067138672,0.20970231294632,-0.29603844881058,9.82389831542969,-5.36030340194702,0.19915066659451,-0.26163658499718
187,614810079,-1.03296387195587,-1.29798555374146,22.87747573852539,0.20694305002689,-0.28379467129707,9.81671333312988,-5.42298221588135,-0.02987900562584,-0.26642647385597
188,614818412,-1.03297448158264,-1.29758667945862,22.87714004516602,0.21723510324955,-0.30431947112083,9.81516838073730,-5.36222410202026,0.13923896849155,-0.33704486489296
189,614826745,-1.03327012062073,-1.29696440696716,22.87784767150879,0.21592865884304,-0.29806795716286,9.78678989410400,-5.42405748367310,0.16605708003044,-0.20510597527027
190,614835078,-1.03384280204773,-1.29738581180573,22.87764739990234,0.21498507261276,-0.28516179323196,9.80200099945068,-5.42772054672241,0.04187927022576,-0.31663039326668
191,614843411,-1.03447890281677,-1.29707443714142,22.87765502929688,0.22325193881989,-0.27319124341011,9.78423213958740,-5.46675682067871,0.12963365018368,-0.29099050164223
192,614851744,-1.03435969352722,-1.29737472534180,22.87889099121094,0.20381443202496,-0.29964774847031,9.80405998229980,-5.34076023101807,0.05348252505064,-0.15041960775852
193,614860077,-1.03442394733429,-1.29880571365356,22.87904357910156,0.22076132893562,-0.29884317517281,9.80982589721680,-5.39703464508057,-0.07931447774172,-0.27718442678452
194,614868410,-1.03434169292450,-1.29904007911682,22.87942123413086,0.22050462663174,-0.27619236707687,9.79653072357178,-5.34862279891968,0.06270364671946,-0.25034067034721
195,614876743,-1.03398597240448,-1.29921376705170,22.87958335876465,0.20729565620422,-0.28996810317039,9.77657604217529,-5.34621620178223,0.07069529592991,-0.27331671118736
196,614885076,-1.03497195243835,-1.29987025260925,22.88049697875977,0.20531867444515,-0.29865127801895,9.80175304412842,-5.47561931610107,0.01132149249315,-0.19273433089256
197,614893409,-1.03469192981720,-1.29933404922485,22.87989044189453,0.19790159165859,-0.26990056037903,9.81641960144043,-5.35771703720093,0.15832160413265,-0.36332511901855
198,614901742,-1.03477585315704,-1.29934346675873,22.87952232360840,0.20035944879055,-0.29888552427292,9.77168178558350,-5.36893606185913,0.09126351773739,-0.33619967103004
199,614910075,-1.03519928455353,-1.29933989048004,22.88028526306152,0.20100861787796,-0.29122546315193,9.77488994598389,-5.43873405456543,0.09144282341003,-0.20108455419540
200,614918408,-1.03523731231689,-1.29879140853882,22.88051986694336,0.21212078630924,-0.29344522953033,9.77869415283203,-5.36373567581177,0.15791174769402,-0.26770716905594
201,614926741,-1.03557264804840,-1.29904818534851,22.88068580627441,0.23434163630009,-0.29332801699638,9.80838584899902,-5.42910385131836,0.06039837002754,-0.27198478579521
202,614935074,-1.03558969497681,-1.29904007911682,22.88079452514648,0.25122812390327,-0.29187163710594,9.79289245605469,-5.36171245574951,0.09221124649048,-0.27877253293991
203,614943407,-1.03557610511780,-1.29975223541260,22.88056373596191,0.21362051367760,-0.28031066060066,9.78645801544189,-5.38919687271118,0.00794041343033,-0.32236796617508
204,614951740,-1.03585934638977,-1.29900872707367,22.87977790832520,0.20587807893753,-0.29365471005440,9.79539680480957,-5.39398574829102,0.18157929182053,-0.38399577140808
205,614960073,-1.03556704521179,-1.29853856563568,22.87947463989258,0.21115456521511,-0.30164659023285,9.78856849670410,-5.35571908950806,0.15004819631577,-0.32656872272491
206,614968406,-1.03580200672150,-1.29878759384155,22.87912940979004,0.19814071059227,-0.27349001169205,9.79841423034668,-5.38840246200562,0.06165346503258,-0.34006738662720
207,614976739,-1.03594446182251,-1.29882705211639,22.87955284118652,0.20114709436893,-0.29249727725983,9.79516696929932,-5.40599966049194,0.08772876113653,-0.24024870991707
208,614985072,-1.03573095798492,-1.29819893836975,22.87877082824707,0.22439594566822,-0.30852511525154,9.78581237792969,-5.33586740493774,0.16979677975178,-0.38927230238914
209,614993405,-1.03540229797363,-1.29889750480652,22.87850379943848,0.21206785738468,-0.26719760894775,9.78913021087646,-5.35110855102539,0.00832462683320,-0.32674801349640
210,615001738,-1.03712797164917,-1.29907655715942,22.87797927856445,0.22803543508053,-0.28483644127846,9.81176853179932,-5.56775379180908,0.07102826982737,-0.35179871320724
211,615010071,-1.03718304634094,-1.29895663261414,22.87746429443359,0.23917381465435,-0.28759753704071,9.79073429107666,-5.39706039428711,0.10852752625942,-0.35359171032906
212,615018404,-1.03752791881561,-1.29925847053528,22.87767410278320,0.21006764471531,-0.28824856877327,9.79203510284424,-5.40110731124878,0.05576219037175,-0.27142125368118
213,615026737,-1.03810811042786,-1.30031836032867,22.87753677368164,0.22964201867580,-0.27099549770355,9.80916595458984,-5.45912313461304,-0.03405412286520,-0.31004750728607
214,615035070,-1.03732419013977,-1.30107319355011,22.87755584716797,0.21923378109932,-0.30475878715515,9.79562377929688,-5.26499223709106,0.00040982771316,-0.29557543992996
215,615043403,-1.03673708438873,-1.30175828933716,22.87686538696289,0.21572276949883,-0.30899626016617,9.79744720458984,-5.32088327407837,0.01150079257786,-0.37500521540642
216,615051736,-1.03638887405396,-1.30136811733246,22.87714958190918,0.21335536241531,-0.28854560852051,9.80498886108398,-5.31688690185547,0.13864983618259,-0.27177980542183
217,615060069,-1.03617382049561,-1.30153429508209,22.87739181518555,0.22195853292942,-0.30502226948738,9.78134250640869,-5.36376190185547,0.07184793800116,-0.26342961192131
218,615068402,-1.03634607791901,-1.30230295658112,22.87713432312012,0.20861941576004,-0.28507214784622,9.79042530059814,-5.38181972503662,0.00002561423389,-0.34011864662170
219,615076735,-1.03630149364471,-1.30194008350372,22.87756156921387,0.22542639076710,-0.28478482365608,9.77402591705322,-5.38376665115356,0.13524316251278,-0.23917292058468
220,615085068,-1.03662955760956,-1.30213439464569,22.87702560424805,0.21791343390942,-0.29325026273727,9.79513072967529,-5.39729070663452,0.07033669203520,-0.36230054497719
221,615093401,-1.03696322441101,-1.30286836624146,22.87717628479004,0.20928815007210,-0.28921362757683,9.78484630584717,-5.42964172363281,0.00343230762519,-0.27628797292709
222,615101734,-1.03731596469879,-1.30257952213287,22.87645530700684,0.22092890739441,-0.28256350755692,9.81473445892334,-5.40300273895264,0.12720029056072,-0.38471302390099
223,615110067,-1.03756868839264,-1.30159080028534,22.87661170959473,0.21831683814526,-0.30148071050644,9.78239154815674,-5.42039489746094,0.21159921586514,-0.27137002348900
224,615118400,-1.03768372535706,-1.30162107944489,22.87738990783691,0.22128924727440,-0.28191754221916,9.78097152709961,-5.37141990661621,0.08573085069656,-0.20180174708366
225,615126733,-1.03736627101898,-1.30142652988434,22.87748908996582,0.22382941842079,-0.27258047461510,9.79468059539795,-5.35200500488281,0.11659599840641,-0.27946409583092
226,615135066,-1.03761374950409,-1.30102837085724,22.87817001342773,0.21176233887672,-0.29825538396835,9.82163810729980,-5.38860750198364,0.13772773742676,-0.22334331274033
227,615143399,-1.03743910789490,-1.30154180526733,22.87839889526367,0.19280362129211,-0.27915140986443,9.79028415679932,-5.36855173110962,0.02999426983297,-0.26512011885643
228,615151732,-1.03784370422363,-1.30142319202423,22.87852096557617,0.17856058478355,-0.27663859724998,9.80545139312744,-5.40817737579346,0.10619662702084,-0.28051429986954
229,615160065,-1.03752577304840,-1.30201911926270,22.87842559814453,0.19447714090347,-0.29442462325096,9.81219482421875,-5.35223531723022,0.02149034291506,-0.30520641803741
230,615168398,-1.03710341453552,-1.30246222019196,22.87895011901855,0.20968541502953,-0.29034230113029,9.79387664794922,-5.30551528930664,0.03767854347825,-0.24386033415794
231,615176731,-1.03613603115082,-1.30234277248383,22.87930679321289,0.23359879851341,-0.29457026720047,9.79677391052246,-5.27316427230835,0.10501836240292,-0.24806106090546
232,615185064,-1.03543817996979,-1.30140340328217,22.87963104248047,0.22459350526333,-0.29455906152725,9.79921436309814,-5.27359914779663,0.20460648834705,-0.25574532151222
233,615193397,-1.03476881980896,-1.30183494091034,22.87877655029297,0.22228866815567,-0.27106070518494,9.78028774261475,-5.31314802169800,0.04162313416600,-0.39570152759552
234,615201730,-1.03447270393372,-1.30192816257477,22.87936592102051,0.23301623761654,-0.28262132406235,9.77542686462402,-5.32055091857910,0.08012133091688,-0.22695493698120
235,615210063,-1.03486728668213,-1.30270898342133,22.87935256958008,0.21831184625626,-0.28977495431900,9.79501724243164,-5.43837594985962,-0.00183141790330,-0.29355195164680
236,615218396,-1.03527677059174,-1.30318164825439,22.87974357604980,0.21840080618858,-0.29572543501854,9.80498600006104,-5.40648603439331,0.03463044762611,-0.26117554306984
237,615226729,-1.03543400764465,-1.30375814437866,22.87937545776367,0.19141532480717,-0.29218614101410,9.79380035400391,-5.41032886505127,0.02318088337779,-0.33643016219139
238,615235062,-1.03623461723328,-1.30409014225006,22.87931632995605,0.21411968767643,-0.28446033596992,9.78275299072266,-5.45264339447021,0.05204812809825,-0.29357758164406
239,615243395,-1.03637373447418,-1.30441880226135,22.87965965270996,0.20803855359554,-0.30306264758110,9.77922534942627,-5.40615272521973,0.05232987925410,-0.25174948573112
240,615251728,-1.03655207157135,-1.30365991592407,22.87922286987305,0.21108210086823,-0.28284665942192,9.79643821716309,-5.37925863265991,0.18367968499660,-0.34618920087814
241,615260061,-1.03660202026367,-1.30352699756622,22.87846565246582,0.20048303902149,-0.27848815917969,9.82445621490479,-5.39729118347168,0.11021806299686,-0.38169050216675
242,615268394,-1.03661108016968,-1.30367898941040,22.87842941284180,0.23033519089222,-0.31034061312675,9.77689075469971,-5.36066198348999,0.07236021012068,-0.30333656072617
243,615276727,-1.03728890419006,-1.30325424671173,22.87863159179688,0.21948753297329,-0.27427595853806,9.78237819671631,-5.47177743911743,0.14305551350117,-0.26832193136215
244,615285060,-1.03803479671478,-1.30285525321960,22.87891769409180,0.23077009618282,-0.27241739630699,9.78040599822998,-5.44716167449951,0.13803511857986,-0.26967945694923
245,615293393,-1.03815579414368,-1.30257368087769,22.87840461730957,0.22592128813267,-0.30101591348648,9.78773307800293,-5.40646076202393,0.12784065306187,-0.35161942243576
246,615301726,-1.03812396526337,-1.30236411094666,22.87844276428223,0.22109033167362,-0.29149061441422,9.77934455871582,-5.35530948638916,0.11713390052319,-0.29134914278984
247,615310059,-1.03793799877167,-1.30164825916290,22.87812232971191,0.20838081836700,-0.29269525408745,9.78998184204102,-5.36944818496704,0.17932526767254,-0.32874593138695
248,615318392,-1.03844022750854,-1.30123329162598,22.87687873840332,0.20861062407494,-0.29073271155357,9.77632141113281,-5.42241859436035,0.14318357408047,-0.44777530431747
249,615326725,-1.03892779350281,-1.30114233493805,22.87653541564941,0.19462895393372,-0.28154340386391,9.81015014648438,-5.44880056381226,0.10486467927694,-0.33353576064110
250,615335058,-1.03960883617401,-1.30067741870880,22.87647056579590,0.20268896222115,-0.30847343802452,9.79204368591309,-5.44039964675903,0.14899802207947,-0.30833137035370
251,615343391,-1.03993487358093,-1.30090367794037,22.87617301940918,0.21491251885891,-0.28803372383118,9.79885292053223,-5.42912960052490,0.06488086283207,-0.32790061831474
252,615351724,-1.03931558132172,-1.30051755905151,22.87627029418945,0.23387607932091,-0.27992472052574,9.78138732910156,-5.28335857391357,0.13877792656422,-0.28837785124779
253,615360057,-1.03875303268433,-1.29995429515839,22.87666702270508,0.22634436190128,-0.28750938177109,9.79438209533691,-5.32188224792480,0.15924370288849,-0.24309191107750
254,615368390,-1.03903520107269,-1.29948878288269,22.87683486938477,0.21552072465420,-0.28703129291534,9.78376102447510,-5.39339733123779,0.14592428505421,-0.28317818045616
255,615376723,-1.03922963142395,-1.30009829998016,22.87643432617188,0.21201689541340,-0.28903785347939,9.80101871490479,-5.41460561752319,0.02118297107518,-0.34055402874947
256,615385056,-1.03861856460571,-1.29953527450562,22.87612152099609,0.23113019764423,-0.27804288268089,9.77660274505615,-5.28510046005249,0.15901316702366,-0.32795184850693
257,615393389,-1.03886413574219,-1.29991590976715,22.87578964233398,0.22916597127914,-0.28560790419579,9.78299522399902,-5.42085599899292,0.04707896336913,-0.33340770006180
258,615401722,-1.03870630264282,-1.29957985877991,22.87595748901367,0.20142963528633,-0.29593586921692,9.79127407073975,-5.33807039260864,0.13283541798592,-0.27692827582359
259,615410055,-1.03842020034790,-1.29922103881836,22.87559127807617,0.21850928664207,-0.28775700926781,9.79626369476318,-5.35753726959229,0.13724106550217,-0.33415049314499
260,615418388,-1.03915524482727,-1.30001842975616,22.87597465515137,0.21256242692471,-0.26485565304756,9.80436038970947,-5.44728994369507,-0.00590408174321,-0.25075057148933
261,615426721,-1.03901374340057,-1.30085361003876,22.87575531005859,0.20990423858166,-0.29045769572258,9.80697536468506,-5.37359762191772,-0.00672373641282,-0.32116410136223
262,615435054,-1.03880381584167,-1.30141246318817,22.87556457519531,0.21059088408947,-0.28332608938217,9.79262161254883,-5.33492040634155,0.02384685538709,-0.32062619924545
263,615443387,-1.03831982612610,-1.30208039283752,22.87554931640625,0.21441766619682,-0.28717550635338,9.78392219543457,-5.33199977874756,0.01298641599715,-0.29480701684952
264,615451720,-1.03840219974518,-1.30268716812134,22.87554359436035,0.23062230646610,-0.30154290795326,9.82917404174805,-5.36939668655396,0.01898014545441,-0.30282428860664
265,615460053,-1.03824627399445,-1.30273640155792,22.87567138671875,0.21525360643864,-0.28357738256454,9.79496288299561,-5.37042140960693,0.08588452637196,-0.27608305215836
266,615468386,-1.03866457939148,-1.30240070819855,22.87523269653320,0.22353585064411,-0.26812633872032,9.79376125335693,-5.41109657287598,0.13191330432892,-0.35028749704361
267,615476719,-1.03920841217041,-1.30249202251434,22.87457847595215,0.21754713356495,-0.28298863768578,9.77897739410400,-5.45740747451782,0.08450137078762,-0.36977991461754
268,615485052,-1.03842818737030,-1.30221748352051,22.87510108947754,0.22522369027138,-0.28114771842957,9.80209255218506,-5.26276493072510,0.12233360111713,-0.23143741488457
269,615493385,-1.03791379928589,-1.30224382877350,22.87513732910156,0.19212615489960,-0.28748151659966,9.79019546508789,-5.32762002944946,0.08842033892870,-0.28696909546852
270,615501718,-1.03791499137878,-1.30221831798553,22.87406158447266,0.21275889873505,-0.28311687707901,9.79718685150146,-5.36273717880249,0.09823059290648,-0.42549091577530
271,615510051,-1.03723454475403,-1.30317604541779,22.87366104125977,0.18747729063034,-0.28158810734749,9.78924465179443,-5.31012487411499,-0.02224596403539,-0.34145057201385
272,615518384,-1.03727293014526,-1.30256891250610,22.87323188781738,0.20489904284477,-0.26788651943207,9.79619979858398,-5.36376142501831,0.16598024964333,-0.35297694802284
273,615526717,-1.03627562522888,-1.30244350433350,22.87332916259766,0.22843359410763,-0.27752497792244,9.78167343139648,-5.27111482620239,0.10681135207415,-0.28020691871643
274,615535050,-1.03602743148804,-1.30185413360596,22.87310600280762,0.22967654466629,-0.29381716251373,9.78407192230225,-5.32849073410034,0.16380302608013,-0.31547772884369
275,615543383,-1.03627347946167,-1.30058526992798,22.87323188781738,0.23036076128483,-0.28150841593742,9.80318450927734,-5.41998529434204,0.24448788166046,-0.27587810158730
276,615551716,-1.03584182262421,-1.30058944225311,22.87321090698242,0.22108632326126,-0.28634285926819,9.79344463348389,-5.30738544464111,0.09075124561787,-0.30648714303970
277,615560049,-1.03589975833893,-1.30061960220337,22.87372398376465,0.22139561176300,-0.28537395596504,9.81554794311523,-5.39549779891968,0.08849719166756,-0.23084831237793
278,615568382,-1.03597986698151,-1.30143439769745,22.87375640869141,0.20894506573677,-0.28371089696884,9.80360794067383,-5.36786079406738,-0.00680057983845,-0.29157966375351
279,615576715,-1.03584015369415,-1.30096590518951,22.87391090393066,0.20682707428932,-0.29421725869179,9.75541687011719,-5.37239360809326,0.14951027929783,-0.27254825830460
280,615585048,-1.03585624694824,-1.30163681507111,22.87426948547363,0.22526311874390,-0.29868906736374,9.80167865753174,-5.35956096649170,0.00988709460944,-0.26150852441788
281,615593381,-1.03561985492706,-1.30238842964172,22.87418174743652,0.21173605322838,-0.28261053562164,9.81649875640869,-5.36130189895630,0.00186983915046,-0.30325973033905
282,615601714,-1.03568387031555,-1.30218029022217,22.87326240539551,0.19282376766205,-0.30028453469276,9.78515052795410,-5.36942243576050,0.11946479976177,-0.40213066339493
283,615610047,-1.03552663326263,-1.30308437347412,22.87360763549805,0.23166203498840,-0.29910212755203,9.77682971954346,-5.36993503570557,-0.01712311804295,-0.25338882207870
284,615618380,-1.03562521934509,-1.30285918712616,22.87386322021484,0.21231287717819,-0.28868940472603,9.80561828613281,-5.36937189102173,0.11785110086203,-0.26558122038841
285,615626713,-1.03531420230865,-1.30263280868530,22.87464141845703,0.20417772233486,-0.27105417847633,9.80586814880371,-5.35103130340576,0.11803040653467,-0.19806206226349
286,615635046,-1.03522312641144,-1.30344104766846,22.87465286254883,0.22191925346851,-0.28844961524010,9.75980949401855,-5.34859800338745,-0.00500758271664,-0.29068315029144
287,615643379,-1.03459870815277,-1.30399644374847,22.87569808959961,0.22977823019028,-0.28561350703239,9.79076766967773,-5.31237983703613,0.02461528033018,-0.16665901243687
288,615651712,-1.03404617309570,-1.30424582958221,22.87641906738281,0.19981953501701,-0.26704159379005,9.81857109069824,-5.28755903244019,0.05863098427653,-0.21127900481224
289,615660045,-1.03385877609253,-1.30463671684265,22.87652015686035,0.21659128367901,-0.30593904852867,9.79505348205566,-5.36788606643677,0.04533720016479,-0.28230729699135
290,615668378,-1.03325104713440,-1.30447745323181,22.87749481201172,0.21552702784538,-0.29484534263611,9.78836917877197,-5.28197526931763,0.10822015255690,-0.17360046505928
291,615676711,-1.03318357467651,-1.30469048023224,22.87765502929688,0.19313706457615,-0.30819410085678,9.78518962860107,-5.38179445266724,0.06618718802929,-0.27411076426506
292,615685044,-1.03284835815430,-1.30382931232452,22.87772178649902,0.18729466199875,-0.31921008229256,9.77760314941406,-5.31763029098511,0.19528292119503,-0.28376731276512
293,615693377,-1.03281426429749,-1.30345129966736,22.87797927856445,0.21810802817345,-0.29014497995377,9.78795051574707,-5.38530349731445,0.13734352588654,-0.25976675748825
294,615701710,-1.03235876560211,-1.30477261543274,22.87831687927246,0.23121181130409,-0.29272413253784,9.83134746551514,-5.30292797088623,-0.06699404120445,-0.25866538286209
295,615710043,-1.03295123577118,-1.30536818504333,22.87819480895996,0.22256724536419,-0.28916630148888,9.80232810974121,-5.46288919448853,0.02059384435415,-0.30712747573853
296,615718376,-1.03332757949829,-1.30540513992310,22.87830352783203,0.23894390463829,-0.29809117317200,9.79949283599854,-5.40202951431274,0.08724209666252,-0.28033500909805
297,615726709,-1.03298258781433,-1.30562067031860,22.87813758850098,0.21998837590218,-0.27686035633087,9.78392791748047,-5.35021209716797,0.06644332408905,-0.31271138787270
298,615735042,-1.03336524963379,-1.30531978607178,22.87791824340820,0.20557689666748,-0.27592995762825,9.77359390258789,-5.40494918823242,0.12863470613956,-0.32247042655945
299,615743375,-1.03268969058990,-1.30468869209290,22.87755584716797,0.20146869122982,-0.28955978155136,9.78721332550049,-5.30989551544189,0.16902834177017,-0.33245995640755
300,615751708,-1.03337359428406,-1.30475842952728,22.87696075439453,0.21675272285938,-0.28095960617065,9.81616497039795,-5.44255113601685,0.08437329530716,-0.36962622404099
301,615760041,-1.03333282470703,-1.30479252338409,22.87756538391113,0.22148834168911,-0.26279106736183,9.80611419677734,-5.38317728042603,0.08765190839767,-0.21852786839008
302,615768374,-1.03409838676453,-1.30559527873993,22.87728881835938,0.22240620851517,-0.28910040855408,9.80301475524902,-5.45125961303711,-0.00511003937572,-0.33289539813995
303,615776707,-1.03428483009338,-1.30551254749298,22.87689781188965,0.20793338119984,-0.29139763116837,9.79960250854492,-5.41319751739502,0.10401941090822,-0.33922213315964
304,615785040,-1.03526890277863,-1.30518615245819,22.87709426879883,0.22519710659981,-0.27945831418037,9.80595207214355,-5.47656631469727,0.13078628480434,-0.29485824704170
305,615793373,-1.03413522243500,-1.30546009540558,22.87709999084473,0.24344561994076,-0.28649547696114,9.80939292907715,-5.25451707839966,0.05962993949652,-0.29201507568359
306,615801706,-1.03654611110687,-1.30239045619965,22.87842559814453,0.21231846511364,-0.29013273119926,9.78547573089600,-5.41304302215576,0.09095614403486,-0.27249702811241
307,615810039,-1.03654456138611,-1.30303704738617,22.87898826599121,0.21827182173729,-0.28689509630203,9.79169750213623,-5.38788986206055,0.01285834610462,-0.22559736669064
308,615818372,-1.03645980358124,-1.30286562442780,22.87881469726562,0.22529175877571,-0.29902333021164,9.77891921997070,-5.35062170028687,0.11418826133013,-0.31542652845383
309,615826705,-1.03628778457642,-1.30295455455780,22.87853431701660,0.24286729097366,-0.28241088986397,9.82390308380127,-5.36919164657593,0.08176063001156,-0.32672238349915
310,615835038,-1.03693139553070,-1.30310773849487,22.87858581542969,0.22424134612083,-0.29211470484734,9.77714252471924,-5.43694114685059,0.07261635363102,-0.29224559664726
311,615843371,-1.03667712211609,-1.30264806747437,22.87829399108887,0.22961772978306,-0.30081251263618,9.80434131622314,-5.36002159118652,0.14751239120960,-0.32580024003983
312,615851704,-1.03620970249176,-1.30250465869904,22.87822151184082,0.20976400375366,-0.29759311676025,9.80037784576416,-5.30277395248413,0.11001312732697,-0.30279865860939
313,615860037,-1.03593480587006,-1.30323612689972,22.87834930419922,0.21194955706596,-0.29605099558830,9.80038452148438,-5.35533475875854,0.00309932231903,-0.27772235870361
314,615868370,-1.03531742095947,-1.30284321308136,22.87823295593262,0.20484328269958,-0.29680940508842,9.80070781707764,-5.28579187393188,0.13911090791225,-0.31330052018166
315,615876703,-1.03591942787170,-1.30308699607849,22.87846183776855,0.22393912076950,-0.28473773598671,9.80723094940186,-5.46099328994751,0.06398436427116,-0.26576048135757
316,615885036,-1.03629624843597,-1.30222249031067,22.87839126586914,0.23875702917576,-0.28469681739807,9.79037189483643,-5.40456581115723,0.19379732012749,-0.30717870593071
317,615893369,-1.03570020198822,-1.30312228202820,22.87807655334473,0.22699064016342,-0.26671275496483,9.79382896423340,-5.31934690475464,-0.01461291965097,-0.33148664236069
318,615901702,-1.03614032268524,-1.30246198177338,22.87886238098145,0.21930837631226,-0.28016754984856,9.80737590789795,-5.40932989120483,0.16966868937016,-0.20615617930889
319,615910035,-1.03579485416412,-1.30272495746613,22.87936592102051,0.23002016544342,-0.28928366303444,9.77596187591553,-5.34726619720459,0.05934818089008,-0.23202654719353
320,615918368,-1.03655779361725,-1.30309605598450,22.87950134277344,0.20872883498669,-0.28125166893005,9.80153083801270,-5.45051765441895,0.04774493351579,-0.27608302235603
321,615926701,-1.03707361221313,-1.30267906188965,22.87986564636230,0.21972349286079,-0.28490254282951,9.77211761474609,-5.45087528228760,0.14190284907818,-0.24670347571373
322,615935034,-1.03678345680237,-1.30326640605927,22.87965583801270,0.20319773256779,-0.29172110557556,9.78622436523438,-5.32441806793213,0.02003033272922,-0.32426342368126
323,615943367,-1.03647100925446,-1.30309915542603,22.87932014465332,0.18961399793625,-0.27195316553116,9.75577545166016,-5.35254287719727,0.11318929493427,-0.33220380544662
324,615951700,-1.03711688518524,-1.30221605300903,22.87934875488281,0.19819195568562,-0.28879728913307,9.76953411102295,-5.43617296218872,0.19792120158672,-0.28807052969933
325,615960033,-1.03756296634674,-1.30191373825073,22.87902641296387,0.20922619104385,-0.29071393609047,9.76730823516846,-5.44438266754150,0.12917259335518,-0.32952716946602
326,615968366,-1.03803563117981,-1.30197584629059,22.87823295593262,0.22072909772396,-0.28504690527916,9.78770923614502,-5.41929292678833,0.08557714521885,-0.38530209660530
327,615976699,-1.03781664371490,-1.30221748352051,22.87850570678711,0.21787974238396,-0.27232107520103,9.78274917602539,-5.36301851272583,0.06293416768312,-0.25884464383125
328,615985032,-1.03670847415924,-1.30155110359192,22.87964630126953,0.23791135847569,-0.27953463792801,9.78363990783691,-5.22231912612915,0.16946375370026,-0.16230458021164
329,615993365,-1.03650629520416,-1.30135154724121,22.88012886047363,0.23576159775257,-0.28865173459053,9.76539802551270,-5.36347913742065,0.11459808796644,-0.23433178663254
330,616001698,-1.03689837455750,-1.30269885063171,22.88001632690430,0.21411633491516,-0.28948599100113,9.79588127136230,-5.40710115432739,-0.06837719678879,-0.31921741366386
331,616010031,-1.03751587867737,-1.30429148674011,22.88064002990723,0.20332670211792,-0.29549309611320,9.79424858093262,-5.46196699142456,-0.09990832954645,-0.22001348435879
332,616018364,-1.03825640678406,-1.30455899238586,22.88021469116211,0.20975209772587,-0.28179636597633,9.76446437835693,-5.45003032684326,0.06014223024249,-0.34875065088272
333,616026697,-1.03823876380920,-1.30444967746735,22.87998390197754,0.21147958934307,-0.29067137837410,9.77996063232422,-5.38935041427612,0.10512081533670,-0.31993460655212
334,616035030,-1.03821122646332,-1.30447697639465,22.88017463684082,0.19752590358257,-0.28084662556648,9.80539894104004,-5.35410499572754,0.08936806023121,-0.27111384272575
335,616043363,-1.03777122497559,-1.30464541912079,22.87973785400391,0.19913452863693,-0.29074627161026,9.79629611968994,-5.33935165405273,0.07228336483240,-0.34478041529655
336,616051696,-1.03762650489807,-1.30375432968140,22.88026237487793,0.23108899593353,-0.31783938407898,9.79774665832520,-5.33988857269287,0.19820293784142,-0.23197531700134
337,616060029,-1.03781664371490,-1.30319106578827,22.87936592102051,0.24597027897835,-0.27286931872368,9.78190040588379,-5.41442680358887,0.16098548471928,-0.39851906895638
338,616068362,-1.03798341751099,-1.30354547500610,22.87873458862305,0.21841315925121,-0.27954125404358,9.79347610473633,-5.38066720962524,0.05033197626472,-0.37011292576790
339,616076695,-1.03782474994659,-1.30409681797028,22.87892150878906,0.22041614353657,-0.28086373209953,9.76531410217285,-5.37016534805298,0.02653634548187,-0.27016612887383
340,616085028,-1.03766310214996,-1.30457782745361,22.87910270690918,0.21860897541046,-0.28768351674080,9.77283573150635,-5.33830118179321,0.03322166204453,-0.27364969253540
341,616093361,-1.03740096092224,-1.30527365207672,22.87904739379883,0.22284735739231,-0.28360825777054,9.80139827728271,-5.35817766189575,0.00791479833424,-0.30136427283287
342,616101694,-1.03762996196747,-1.30574154853821,22.87908744812012,0.21169804036617,-0.29447636008263,9.80285453796387,-5.38719892501831,0.03621852770448,-0.29250174760818
343,616110027,-1.03758645057678,-1.30604135990143,22.87934875488281,0.22369316220284,-0.27714115381241,9.78332614898682,-5.38514947891235,0.05596710368991,-0.26189273595810
344,616118360,-1.03754687309265,-1.30610346794128,22.87903976440430,0.20135125517845,-0.29224917292595,9.80474376678467,-5.35402822494507,0.08355364203453,-0.33676320314407
345,616126693,-1.03679096698761,-1.30621254444122,22.87918090820312,0.21325327455997,-0.27791559696198,9.82323741912842,-5.29957199096680,0.08004448562860,-0.27592936158180
346,616135026,-1.03656733036041,-1.30553865432739,22.87975502014160,0.21815356612206,-0.29412478208542,9.80166816711426,-5.32890081405640,0.17030905187130,-0.22370192408562
347,616143359,-1.03597402572632,-1.30619502067566,22.87930488586426,0.22637672722340,-0.27694001793861,9.77706623077393,-5.31998682022095,0.01488187164068,-0.34652218222618
348,616151692,-1.03544509410858,-1.30733025074005,22.87962722778320,0.22066059708595,-0.28987655043602,9.77216625213623,-5.29224729537964,-0.04591351747513,-0.26230254769325
349,616160025,-1.03515064716339,-1.30724322795868,22.87938499450684,0.21394716203213,-0.28445038199425,9.79685020446777,-5.35400247573853,0.10371204465628,-0.32054930925369
350,616168358,-1.03502178192139,-1.30771350860596,22.88002014160156,0.21776990592480,-0.28613302111626,9.79218387603760,-5.34214305877686,0.03478413075209,-0.22331769764423
351,616176691,-1.03435564041138,-1.30768549442291,22.87971305847168,0.22830884158611,-0.30043250322342,9.76517009735107,-5.31063842773438,0.09497758001089,-0.32948875427246
352,616185024,-1.03491044044495,-1.30725550651550,22.88005828857422,0.22330532968044,-0.29617834091187,9.80815696716309,-5.42352008819580,0.14295305311680,-0.25095549225807
353,616193357,-1.03434979915619,-1.30641674995422,22.88035583496094,0.21753782033920,-0.30490857362747,9.80933952331543,-5.32193374633789,0.19210678339005,-0.25328639149666
354,616201690,-1.03424596786499,-1.30662822723389,22.88065147399902,0.23291310667992,-0.28993928432465,9.77592468261719,-5.34708690643311,0.06598227471113,-0.26127803325653
355,616210023,-1.03407609462738,-1.30701196193695,22.88087081909180,0.21492360532284,-0.28854578733444,9.78026676177979,-5.36857748031616,0.04605439677835,-0.26617035269737
356,616218356,-1.03366744518280,-1.30703842639923,22.88100814819336,0.18536682426929,-0.30228385329247,9.81711292266846,-5.30907535552979,0.08754945546389,-0.27523776888847
357,616226689,-1.03300726413727,-1.30613112449646,22.88208007812500,0.20630697906017,-0.28620892763138,9.79922485351562,-5.30787134170532,0.19932997226715,-0.16250950098038
358,616235022,-1.03245818614960,-1.30588567256927,22.88198089599609,0.21577200293541,-0.28281816840172,9.81104087829590,-5.29386091232300,0.11964410543442,-0.30284991860390
359,616243355,-1.03238463401794,-1.30582177639008,22.88182067871094,0.22500771284103,-0.28229722380638,9.76985740661621,-5.38197374343872,0.10130430012941,-0.31135386228561
360,616251688,-1.03079617023468,-1.30562293529510,22.88201522827148,0.22107090055943,-0.29406011104584,9.78297424316406,-5.16737747192383,0.11600688099861,-0.27362409234047
361,616260021,-1.02990305423737,-1.30608105659485,22.88244438171387,0.21721853315830,-0.30239462852478,9.76726341247559,-5.28143739700317,0.03598799556494,-0.24081219732761
362,616268354,-1.02940607070923,-1.30581104755402,22.88265228271484,0.21536110341549,-0.26761150360107,9.79104042053223,-5.29703664779663,0.12305079400539,-0.26804015040398
363,616276687,-1.02951562404633,-1.30507707595825,22.88264465332031,0.24470265209675,-0.27118000388145,9.80722236633301,-5.40338659286499,0.17968384921551,-0.29099050164223
364,616285020,-1.02902066707611,-1.30567383766174,22.88299942016602,0.22421167790890,-0.28144294023514,9.78006076812744,-5.29880380630493,0.01905699074268,-0.25082740187645
365,616293353,-1.02878367900848,-1.30606961250305,22.88319206237793,0.20811438560486,-0.27969208359718,9.78964042663574,-5.36079120635986,0.04528597369790,-0.27111387252808
366,616301686,-1.02815544605255,-1.30606758594513,22.88309860229492,0.20318935811520,-0.27306750416756,9.80396270751953,-5.28176975250244,0.09052070230246,-0.31440189480782
367,616310019,-1.02894580364227,-1.30655610561371,22.88339042663574,0.21144241094589,-0.29887944459915,9.78819084167480,-5.48345756530762,0.03355464711785,-0.25884467363358
368,616318352,-1.02898716926575,-1.30619049072266,22.88336944580078,0.22473987936974,-0.29446142911911,9.80384254455566,-5.36342859268188,0.13578106462955,-0.29798322916031
369,616326685,-1.02834284305573,-1.30594336986542,22.88421249389648,0.21489754319191,-0.27299210429192,9.82363414764404,-5.31104755401611,0.11915741115808,-0.18994233012199
370,616335018,-1.02827727794647,-1.30713117122650,22.88455581665039,0.22551226615906,-0.28663641214371,9.79912853240967,-5.34882783889771,-0.05034477636218,-0.25085300207138
371,616343351,-1.02754116058350,-1.30775988101959,22.88494873046875,0.24658823013306,-0.27070397138596,9.75945758819580,-5.30118608474731,0.01526608504355,-0.24706208705902
372,616351684,-1.02724146842957,-1.30701804161072,22.88566589355469,0.22378337383270,-0.29478406906128,9.76833534240723,-5.31996107101440,0.17937648296356,-0.20810285210609
373,616360017,-1.02621650695801,-1.30744922161102,22.88680839538574,0.22213576734066,-0.29739809036255,9.80152034759521,-5.26371240615845,0.03831889480352,-0.15526066720486
374,616368350,-1.02674877643585,-1.30844891071320,22.88735198974609,0.20840899646282,-0.28247496485710,9.79596328735352,-5.41998529434204,-0.03018637746572,-0.23755921423435
375,616376683,-1.02606570720673,-1.30880522727966,22.88723182678223,0.21584267914295,-0.24728502333164,9.82134056091309,-5.30833196640015,0.04994775727391,-0.30582115054131
376,616385016,-1.02549898624420,-1.30868196487427,22.88717269897461,0.20679791271687,-0.29223740100861,9.81980609893799,-5.29014587402344,0.10614536702633,-0.30810078978539
377,616393349,-1.02447903156281,-1.30840075016022,22.88752365112305,0.19598142802715,-0.28968665003777,9.78912925720215,-5.26647853851318,0.12538167834282,-0.24865017831326
378,616401682,-1.02471661567688,-1.30827009677887,22.88805961608887,0.21264982223511,-0.29042419791222,9.80264282226562,-5.38635349273682,0.10637591779232,-0.24040238559246
379,616410015,-1.02446424961090,-1.30875933170319,22.88838386535645,0.20156435668468,-0.30009421706200,9.82468128204346,-5.35840845108032,0.03222270682454,-0.25574535131454
380,616418348,-1.02460777759552,-1.30827844142914,22.88817214965820,0.22368738055229,-0.29767140746117,9.77306270599365,-5.37703037261963,0.14943344891071,-0.31565704941750
381,616426681,-1.02353525161743,-1.30936813354492,22.88843154907227,0.20106396079063,-0.27797344326973,9.80108356475830,-5.25930738449097,-0.03853661939502,-0.26442855596542
382,616435014,-1.02294683456421,-1.30796265602112,22.88922500610352,0.22097063064575,-0.28694391250610,9.79045677185059,-5.28699541091919,0.25878059864044,-0.19675573706627
383,616443347,-1.02223169803619,-1.30900156497955,22.88868904113770,0.18864275515079,-0.27364921569824,9.76840496063232,-5.30502796173096,-0.03159515932202,-0.35881704092026
384,616451680,-1.02220511436462,-1.30835449695587,22.88897514343262,0.22754177451134,-0.27119600772858,9.78811550140381,-5.35295200347900,0.16754269599915,-0.26627278327942
385,616460013,-1.02235281467438,-1.30819880962372,22.88971900939941,0.22386287152767,-0.27468603849411,9.78896522521973,-5.40615320205688,0.10952647775412,-0.20175051689148
386,616468346,-1.02270114421844,-1.30843245983124,22.89050292968750,0.21963340044022,-0.29209882020950,9.77508831024170,-5.39708566665649,0.06037275120616,-0.19053146243095
387,616476679,-1.02361321449280,-1.30813407897949,22.89015960693359,0.20364768803120,-0.28546971082687,9.78450679779053,-5.49910688400269,0.13012030720711,-0.33207574486732
388,616485012,-1.02296793460846,-1.30744183063507,22.89075469970703,0.21658302843571,-0.28686097264290,9.79549026489258,-5.28005456924438,0.17294731736183,-0.22252368927002
389,616493345,-1.02183234691620,-1.30686962604523,22.89006233215332,0.20655125379562,-0.31196627020836,9.82096481323242,-5.25595092773438,0.16201002895832,-0.37415993213654
390,616501678,-1.02198362350464,-1.30736947059631,22.89059257507324,0.21710778772831,-0.27954408526421,9.77564239501953,-5.37480163574219,0.03086515516043,-0.23502342402935
391,616510011,-1.02174067497253,-1.30740487575531,22.89069938659668,0.22619633376598,-0.28822991251945,9.78709983825684,-5.36056041717529,0.08757507801056,-0.28025817871094
392,616518344,-1.02192401885986,-1.30727589130402,22.89111900329590,0.21713565289974,-0.29188182950020,9.80486583709717,-5.37872076034546,0.10481344908476,-0.24642172455788
393,616526677,-1.02077937126160,-1.30793178081512,22.89115905761719,0.22490352392197,-0.28650459647179,9.78962135314941,-5.25257015228271,0.01301203109324,-0.28945365548134
394,616535010,-1.02083325386047,-1.30770790576935,22.89050674438477,0.21078902482986,-0.28059807419777,9.80823326110840,-5.36729669570923,0.12141148000956,-0.37769472599030
395,616543343,-1.02016901969910,-1.30790507793427,22.89052391052246,0.22692480683327,-0.29402419924736,9.81081485748291,-5.31061172485352,0.06782649457455,-0.28983786702156
396,616551676,-1.02079343795776,-1.30832529067993,22.89091300964355,0.20879076421261,-0.29460632801056,9.80386352539062,-5.43215179443359,0.04041926190257,-0.26007413864136
397,616560009,-1.02070534229279,-1.30834341049194,22.89021873474121,0.21545864641666,-0.27281874418259,9.80339336395264,-5.38263988494873,0.09228809922934,-0.37513327598572
398,616568342,-1.02003204822540,-1.30869281291962,22.89050483703613,0.21562927961349,-0.27332994341850,9.79244518280029,-5.27580308914185,0.04759125411510,-0.26496645808220
399,616576675,-1.01966834068298,-1.30906653404236,22.89016342163086,0.23137421905994,-0.29625064134598,9.78122997283936,-5.34734344482422,0.04928179085255,-0.33304908871651
400,616585008,-1.01879966259003,-1.30894100666046,22.89066505432129,0.21739698946476,-0.28778788447380,9.80751895904541,-5.25285196304321,0.10445483773947,-0.23656027019024
401,616593341,-1.01876807212830,-1.30907332897186,22.89120292663574,0.19749265909195,-0.28474342823029,9.79137802124023,-5.38499593734741,0.07522901147604,-0.22746720910072
402,616601674,-1.01911807060242,-1.30929756164551,22.89046478271484,0.21740902960300,-0.29678547382355,9.79771900177002,-5.40238809585571,0.06641771644354,-0.39006638526917
403,616610007,-1.01853275299072,-1.31002259254456,22.89074134826660,0.23240560293198,-0.29417544603348,9.78266048431396,-5.31870698928833,0.00409827800468,-0.25948503613472
404,616618340,-1.01844418048859,-1.31024539470673,22.89143562316895,0.22025977075100,-0.28520750999451,9.79212093353271,-5.34647274017334,0.06413804739714,-0.21394291520119
405,616626673,-1.01810514926910,-1.31019651889801,22.89176940917969,0.20377844572067,-0.29322662949562,9.82572269439697,-5.34880304336548,0.09761585295200,-0.25187757611275
406,616635006,-1.01744449138641,-1.31001257896423,22.89200782775879,0.22066807746887,-0.28665119409561,9.81180477142334,-5.27979803085327,0.11324052512646,-0.27024298906326
407,616643339,-1.01853168010712,-1.31052362918854,22.89281272888184,0.23027771711349,-0.27953648567200,9.79536628723145,-5.51801061630249,0.02863671630621,-0.19632029533386
408,616651672,-1.01879000663757,-1.31116938591003,22.89360427856445,0.21291404962540,-0.30862277746201,9.80001640319824,-5.38845396041870,0.01298641785979,-0.20159685611725
409,616660005,-1.01848649978638,-1.31119215488434,22.89332580566406,0.21859814226627,-0.26966592669487,9.83540248870850,-5.35351657867432,0.09041825681925,-0.32544171810150
410,616668338,-1.01879060268402,-1.31174743175507,22.89360046386719,0.22868022322655,-0.29358890652657,9.79561614990234,-5.39611291885376,0.02346264198422,-0.27587813138962
411,616676671,-1.01815617084503,-1.31197977066040,22.89350700378418,0.19649161398411,-0.27968376874924,9.78434753417969,-5.31417274475098,0.06503454595804,-0.30390009284019
412,616685004,-1.01791000366211,-1.31219780445099,22.89373207092285,0.20588995516300,-0.28258576989174,9.81370162963867,-5.32731342315674,0.06490647792816,-0.26788648962975
413,616693337,-1.01729679107666,-1.31150925159454,22.89413452148438,0.23156926035881,-0.28406709432602,9.79755878448486,-5.31496667861938,0.17422804236412,-0.24240031838417
414,616701670,-1.01753628253937,-1.31182551383972,22.89476966857910,0.21265922486782,-0.29954248666763,9.77182292938232,-5.38586664199829,0.05112601444125,-0.22001346945763
415,616710003,-1.01682448387146,-1.31227958202362,22.89490127563477,0.22589391469955,-0.29899039864540,9.79971790313721,-5.30372285842896,0.03854942321777,-0.27800413966179
416,616718336,-1.01696145534515,-1.31276214122772,22.89459800720215,0.21695013344288,-0.29977881908417,9.79540634155273,-5.37492942810059,0.03455360233784,-0.32731151580811
417,616726669,-1.01620602607727,-1.31313514709473,22.89571380615234,0.20484265685081,-0.29180297255516,9.82190132141113,-5.29672908782959,0.04528596624732,-0.15935896337032
418,616735002,-1.01667141914368,-1.31439292430878,22.89627456665039,0.20148526132107,-0.29251939058304,9.82535743713379,-5.41314649581909,-0.06164065748453,-0.22951637208462
419,616743335,-1.01655387878418,-1.31527316570282,22.89516067504883,0.21613977849483,-0.29714924097061,9.78088569641113,-5.37797784805298,-0.01120622828603,-0.42874389886856
420,616751668,-1.01661634445190,-1.31521868705750,22.89473724365234,0.18946021795273,-0.28624320030212,9.79963207244873,-5.36665630340576,0.09871727228165,-0.34782850742340
421,616760001,-1.01665163040161,-1.31508946418762,22.89562988281250,0.20386491715908,-0.29999744892120,9.82931232452393,-5.39229631423950,0.10655523091555,-0.18648442625999
422,616768334,-1.01637005805969,-1.31443786621094,22.89533996582031,0.19692707061768,-0.28725430369377,9.77019882202148,-5.32575035095215,0.16928447782993,-0.32334133982658
423,616776667,-1.01645874977112,-1.31418538093567,22.89580535888672,0.20774689316750,-0.29906705021858,9.81407737731934,-5.39969873428345,0.12194937467575,-0.23771291971207
424,616785000,-1.01633143424988,-1.31423735618591,22.89619445800781,0.20699973404408,-0.27694100141525,9.81427001953125,-5.34109306335449,0.08327187597752,-0.25016140937805
425,616793333,-1.01511335372925,-1.31411910057068,22.89675712585449,0.23206588625908,-0.29188999533653,9.77784729003906,-5.24270868301392,0.10629907250404,-0.22544367611408
426,616801666,-1.01492941379547,-1.31449103355408,22.89749717712402,0.22201165556908,-0.27414798736572,9.78086566925049,-5.33235883712769,0.04418455809355,-0.21194496750832
427,616809999,-1.01498365402222,-1.31379854679108,22.89700698852539,0.23232495784760,-0.29609221220016,9.79005241394043,-5.39805841445923,0.17684066295624,-0.35038989782333
428,616818332,-1.01487731933594,-1.31436133384705,22.89686393737793,0.22156348824501,-0.29547944664955,9.79483509063721,-5.34608840942383,0.02384685352445,-0.31371036171913
429,616826665,-1.01453435420990,-1.31544220447540,22.89705085754395,0.22213560342789,-0.28788751363754,9.78126716613770,-5.34793186187744,-0.03879275545478,-0.27249699831009
430,616834998,-1.01404869556427,-1.31525409221649,22.89738273620605,0.20396624505520,-0.28979352116585,9.77322864532471,-5.29916191101074,0.11377841234207,-0.24742069840431
431,616843331,-1.01343023777008,-1.31534576416016,22.89700126647949,0.21585677564144,-0.27188426256180,9.77233409881592,-5.31606817245483,0.08265713602304,-0.33732667565346
432,616851664,-1.01366007328033,-1.31568300724030,22.89717102050781,0.20827633142471,-0.28305742144585,9.76836776733398,-5.38440704345703,0.04979407787323,-0.27966904640198
433,616859997,-1.01397514343262,-1.31600737571716,22.89679336547852,0.21964091062546,-0.27846124768257,9.75485897064209,-5.42731046676636,0.05414849519730,-0.33806949853897
434,616868330,-1.01442384719849,-1.31732726097107,22.89682388305664,0.21291989088058,-0.27820143103600,9.81018352508545,-5.41352939605713,-0.06653297692537,-0.30267059803009
435,616876663,-1.01385390758514,-1.31796109676361,22.89656448364258,0.22256192564964,-0.27258273959160,9.78761100769043,-5.32085800170898,0.01731522381306,-0.32341817021370
436,616884996,-1.01320755481720,-1.31746256351471,22.89645767211914,0.21505606174469,-0.28018543124199,9.77190876007080,-5.28136110305786,0.15061169862747,-0.30574432015419
437,616893329,-1.01325678825378,-1.31774926185608,22.89634132385254,0.20108993351460,-0.26417714357376,9.74801826477051,-5.39629173278809,0.05758080258965,-0.30758854746819
438,616901662,-1.01263391971588,-1.31711626052856,22.89637947082520,0.23501478135586,-0.29464334249496,9.78298282623291,-5.28435754776001,0.16761954128742,-0.29501193761826
439,616909995,-1.01236963272095,-1.31737387180328,22.89620208740234,0.23372595012188,-0.29079166054726,9.83178901672363,-5.35886907577515,0.06091065332294,-0.31470930576324
440,616918328,-1.01214087009430,-1.31904888153076,22.89699172973633,0.23395118117332,-0.28996956348419,9.79903221130371,-5.32992553710938,-0.10948805510998,-0.21955242753029
441,616926661,-1.01145803928375,-1.31883037090302,22.89704513549805,0.20656709372997,-0.29630824923515,9.80929851531982,-5.30602741241455,0.11892689764500,-0.28456133604050
442,616934994,-1.01149141788483,-1.31940114498138,22.89775466918945,0.21104949712753,-0.28073325753212,9.80610466003418,-5.35950994491577,0.01987664774060,-0.22236998379230
443,616943327,-1.01185882091522,-1.31873047351837,22.89824295043945,0.21063223481178,-0.29604417085648,9.80859279632568,-5.43248510360718,0.17187151312828,-0.23243638873100
444,616951660,-1.01283657550812,-1.31876122951508,22.89765357971191,0.23491086065769,-0.28439208865166,9.77946376800537,-5.47713041305542,0.09008526802063,-0.36463144421577
445,616959993,-1.01246035099030,-1.31990170478821,22.89777183532715,0.21392899751663,-0.26910632848740,9.80107402801514,-5.34452581405640,-0.04588790610433,-0.28023254871368
446,616968326,-1.01211500167847,-1.32047545909882,22.89835357666016,0.22711394727230,-0.26824983954430,9.79677581787109,-5.31517171859741,0.02061945945024,-0.22667320072651
447,616976659,-1.01191842556000,-1.32052600383759,22.89836883544922,0.22288535535336,-0.28853070735931,9.79933834075928,-5.36545276641846,0.08683226257563,-0.29134914278984
448,616984992,-1.01229560375214,-1.32168781757355,22.89876365661621,0.21847856044769,-0.26273527741432,9.75734424591064,-5.40379667282104,-0.04878231510520,-0.25159582495689
449,616993325,-1.01198363304138,-1.32321321964264,22.89899253845215,0.21935409307480,-0.25823310017586,9.81268596649170,-5.35233736038208,-0.09207037091255,-0.26770716905594
450,617001658,-1.01111888885498,-1.32332074642181,22.89866065979004,0.21004942059517,-0.26950865983963,9.80608844757080,-5.25505495071411,0.07960903644562,-0.33724981546402
451,617009991,-1.01103305816650,-1.32364773750305,22.89904594421387,0.19702936708927,-0.27660289406776,9.78263950347900,-5.37954044342041,0.05250918492675,-0.24624246358871
452,617018324,-1.01039445400238,-1.32325720787048,22.90044975280762,0.21733768284321,-0.27979084849358,9.80300235748291,-5.27841472625732,0.13508947193623,-0.13794545829296
453,617026657,-1.00980174541473,-1.32335543632507,22.90089035034180,0.21132960915565,-0.29490309953690,9.78991413116455,-5.31704092025757,0.07945536077023,-0.23858378827572
454,617034990,-1.00943732261658,-1.32386302947998,22.90058326721191,0.22887565195560,-0.26968231797218,9.75572490692139,-5.31617021560669,0.03101883828640,-0.33740350604057
455,617043323,-1.00906252861023,-1.32397186756134,22.90071868896484,0.23208941519260,-0.29015547037125,9.77888011932373,-5.34416675567627,0.07814902812243,-0.27680021524429
456,617051656,-1.00905978679657,-1.32336437702179,22.90102958679199,0.21634235978127,-0.27506831288338,9.78252792358398,-5.35904884338379,0.16472515463829,-0.24872705340385
457,617059989,-1.00864052772522,-1.32425951957703,22.90096855163574,0.21788568794727,-0.28668028116226,9.77583885192871,-5.33914661407471,-0.01581678912044,-0.30159482359886
458,617068322,-1.00827407836914,-1.32428777217865,22.90158271789551,0.21444997191429,-0.29020965099335,9.79504489898682,-5.31248283386230,0.08644805103540,-0.22541809082031
459,617076655,-1.00797748565674,-1.32404839992523,22.90019798278809,0.20085303485394,-0.26483312249184,9.77799606323242,-5.35769128799438,0.12407536059618,-0.45715007185936
460,617084988,-1.00764477252960,-1.32486402988434,22.89958000183105,0.21909572184086,-0.27573567628860,9.79840373992920,-5.31921863555908,-0.00518688280135,-0.38609620928764
461,617093321,-1.00718116760254,-1.32484638690948,22.90085983276367,0.22208480536938,-0.29641878604889,9.77746105194092,-5.33020734786987,0.09077686071396,-0.13820160925388
462,617101654,-1.00748217105865,-1.32475090026855,22.90175056457520,0.20348218083382,-0.26564401388168,9.81230735778809,-5.39017009735107,0.10122746229172,-0.19685819745064
463,617109987,-1.00725364685059,-1.32469105720520,22.90232849121094,0.20489296317101,-0.27988684177399,9.80560684204102,-5.36104631423950,0.09887094795704,-0.22275419533253
464,617118320,-1.00685691833496,-1.32436704635620,22.90173530578613,0.21720373630524,-0.29579451680183,9.79753971099854,-5.31319999694824,0.13201577961445,-0.38064035773277
465,617126653,-1.00580656528473,-1.32489740848541,22.90136909484863,0.24099522829056,-0.30305692553520,9.80882740020752,-5.26437807083130,0.02799635939300,-0.33819755911827
466,617134986,-1.00596427917480,-1.32470750808716,22.90124130249023,0.22588524222374,-0.26964527368546,9.78421020507812,-5.37700462341309,0.11421387642622,-0.31043174862862
467,617143319,-1.00598275661469,-1.32413780689240,22.90131378173828,0.23876470327377,-0.27530395984650,9.81243419647217,-5.39252662658691,0.15955105423927,-0.28281956911087
468,617151652,-1.00678634643555,-1.32443177700043,22.90073204040527,0.22408822178841,-0.27710905671120,9.79419422149658,-5.45502519607544,0.05786255374551,-0.37323778867722
469,617159985,-1.00612187385559,-1.32528889179230,22.90126991271973,0.21098603308201,-0.28958454728127,9.78106594085693,-5.30989503860474,-0.01148798502982,-0.22920899093151
470,617168318,-1.00565969944000,-1.32477664947510,22.90083312988281,0.21600684523582,-0.26110318303108,9.79140853881836,-5.30405521392822,0.15294258296490,-0.34641972184181
471,617176651,-1.00507688522339,-1.32485628128052,22.90140724182129,0.19861753284931,-0.29146578907967,9.81444168090820,-5.31747674942017,0.08091536164284,-0.22452157735825
472,617184984,-1.00481140613556,-1.32532417774200,22.90182304382324,0.21385073661804,-0.28009518980980,9.80004692077637,-5.32459735870361,0.03424623236060,-0.24777927994728
473,617193317,-1.00438737869263,-1.32553732395172,22.90160751342773,0.20870722830296,-0.27709510922432,9.79993438720703,-5.33986330032349,0.06780087947845,-0.31803914904594
474,617201650,-1.00406336784363,-1.32520139217377,22.90228271484375,0.23578439652920,-0.29366579651833,9.81243991851807,-5.31747627258301,0.13045328855515,-0.22874791920185
475,617209983,-1.00383734703064,-1.32541275024414,22.90220451354980,0.20309370756149,-0.28534826636314,9.77759361267090,-5.36286544799805,0.06623841077089,-0.30115938186646
476,617218316,-1.00376725196838,-1.32642447948456,22.90316772460938,0.20868133008480,-0.29344502091408,9.80064201354980,-5.34834146499634,-0.03128778561950,-0.18356440961361
477,617226649,-1.00318038463593,-1.32777464389801,22.90380096435547,0.22312408685684,-0.30383673310280,9.76663970947266,-5.31678533554077,-0.07175828516483,-0.22050012648106
478,617234982,-1.00326776504517,-1.32763838768005,22.90254211425781,0.23154917359352,-0.28743380308151,9.79902362823486,-5.37341833114624,0.11032050102949,-0.44977319240570
479,617243315,-1.00366318225861,-1.32843422889709,22.90210342407227,0.21493005752563,-0.29561260342598,9.79239654541016,-5.43893909454346,-0.00231808796525,-0.34654778242111
480,617251648,-1.00396060943604,-1.32830822467804,22.90265655517578,0.20260843634605,-0.29149541258812,9.80923652648926,-5.39265441894531,0.10483906418085,-0.24188803136349
481,617259981,-1.00321090221405,-1.32805240154266,22.90205764770508,0.21764449775219,-0.28125712275505,9.78070640563965,-5.30082750320435,0.12440833449364,-0.36401671171188
482,617268314,-1.00339877605438,-1.32733321189880,22.90274620056152,0.21402435004711,-0.28211379051208,9.77932071685791,-5.38046216964722,0.17650769650936,-0.22144785523415
483,617276647,-1.00332915782928,-1.32714343070984,22.90244293212891,0.20323175191879,-0.28331103920937,9.80646514892578,-5.38197374343872,0.11580196022987,-0.32777255773544
484,617284980,-1.00441050529480,-1.32764470577240,22.90238189697266,0.21471983194351,-0.27579569816589,9.80643939971924,-5.48873329162598,0.03232516720891,-0.31581071019173
485,617293313,-1.00445330142975,-1.32821226119995,22.90202522277832,0.22542533278465,-0.28767260909081,9.78925228118896,-5.39606189727783,0.02561423555017,-0.33701929450035
486,617301646,-1.00406575202942,-1.32881581783295,22.90311050415039,0.21630837023258,-0.29375416040421,9.78781032562256,-5.30887031555176,0.01652118191123,-0.18043950200081
487,617309979,-1.00386595726013,-1.32891976833344,22.90339088439941,0.22621548175812,-0.28106439113617,9.79569339752197,-5.36593914031982,0.07978833466768,-0.25833234190941
488,617318312,-1.00349652767181,-1.32982969284058,22.90425872802734,0.23157040774822,-0.29000836610794,9.78376293182373,-5.31158590316772,-0.02037612348795,-0.19731925427914
489,617326645,-1.00219655036926,-1.32968997955322,22.90339660644531,0.22466908395290,-0.28728616237640,9.79933643341064,-5.23625421524048,0.11211349815130,-0.39626500010490
490,617334978,-1.00184142589569,-1.32985019683838,22.90279579162598,0.21940660476685,-0.28241312503815,9.77999019622803,-5.31550455093384,0.07100266218185,-0.37003603577614
491,617343311,-1.00186502933502,-1.33010661602020,22.90234184265137,0.21737490594387,-0.29686996340752,9.80422019958496,-5.39398670196533,0.06244750693440,-0.34631726145744
492,617351644,-1.00175893306732,-1.33008766174316,22.90255737304688,0.21089862287045,-0.28435570001602,9.83558273315430,-5.34250211715698,0.09346634149551,-0.27979710698128
493,617359977,-1.00188732147217,-1.33060705661774,22.90242004394531,0.22232419252396,-0.27191311120987,9.79305648803711,-5.40497446060181,0.03009672462940,-0.30845940113068
494,617368310,-1.00091135501862,-1.33060765266418,22.90191459655762,0.20724453032017,-0.28507190942764,9.77076148986816,-5.24281120300293,0.09221124649048,-0.36675745248795
495,617376643,-0.99999529123306,-1.32974255084991,22.90158081054688,0.21268446743488,-0.29030409455299,9.77833652496338,-5.28200101852417,0.19735766947269,-0.33061572909355
496,617384976,-1.00004720687866,-1.33043777942657,22.90134620666504,0.20497390627861,-0.30077448487282,9.75605678558350,-5.36242961883545,0.00706952949986,-0.32441711425781
497,617393309,-0.99973022937775,-1.33144676685333,22.90188217163086,0.22955316305161,-0.29152524471283,9.76910591125488,-5.35049343109131,-0.02985339052975,-0.23038722574711
498,617401642,-0.99940502643585,-1.33185720443726,22.90172958374023,0.23772962391376,-0.28239792585373,9.80817222595215,-5.31929588317871,0.04280138760805,-0.32134342193604
499,617409975,-0.99916690587997,-1.33147144317627,22.90167808532715,0.21580421924591,-0.28209760785103,9.78886222839355,-5.36086702346802,0.13793264329433,-0.29695862531662
500,617418308,-0.99893897771835,-1.33144378662109,22.90219497680664,0.23450191318989,-0.27788203954697,9.80185890197754,-5.32841444015503,0.09362003952265,-0.24260525405407
501,617426641,-0.99868947267532,-1.33123850822449,22.90225219726562,0.23998020589352,-0.28164550662041,9.79784584045410,-5.35938119888306,0.11774863302708,-0.28535535931587
502,617434974,-0.99890971183777,-1.33150696754456,22.90282058715820,0.22354157269001,-0.28630843758583,9.80556869506836,-5.38368940353394,0.05711974576116,-0.23456238210201
503,617443307,-0.99920141696930,-1.33142781257629,22.90345764160156,0.20880569517612,-0.29023748636246,9.78740692138672,-5.42405796051025,0.10104816406965,-0.21442958712578
504,617451640,-0.99912625551224,-1.33136415481567,22.90382003784180,0.21826349198818,-0.28515625000000,9.77977561950684,-5.34649705886841,0.09702672064304,-0.25244107842445
505,617459973,-0.99855917692184,-1.33143901824951,22.90442848205566,0.21285034716129,-0.29386851191521,9.81840419769287,-5.32057619094849,0.08268275856972,-0.22055135667324
506,617468306,-0.99804323911667,-1.33181822299957,22.90481567382812,0.18468126654625,-0.26962524652481,9.82718181610107,-5.29460334777832,0.04438947141171,-0.26737421751022
507,617476639,-0.99767678976059,-1.33193516731262,22.90455818176270,0.22268317639828,-0.28255146741867,9.79290866851807,-5.34660100936890,0.07971150428057,-0.32300835847855
508,617484972,-0.99761134386063,-1.33113241195679,22.90406036376953,0.22454701364040,-0.29018577933311,9.82766437530518,-5.34972524642944,0.18780358135700,-0.37077891826630
509,617493305,-0.99729567766190,-1.32973587512970,22.90345573425293,0.22971853613853,-0.29456943273544,9.80421733856201,-5.35443830490112,0.26057362556458,-0.36053314805031
510,617501638,-0.99753177165985,-1.32964134216309,22.90377616882324,0.22630110383034,-0.29084879159927,9.81608867645264,-5.38555955886841,0.10202150791883,-0.27677464485168
511,617509971,-0.99782800674438,-1.32914984226227,22.90390777587891,0.18870072066784,-0.26476582884789,9.78364753723145,-5.42444133758545,0.15263521671295,-0.27505844831467
512,617518304,-0.99877709150314,-1.32932651042938,22.90403556823730,0.20987363159657,-0.28836265206337,9.77234554290771,-5.47259664535522,0.06992685794830,-0.29493513703346
513,617526637,-0.99887239933014,-1.32835590839386,22.90431213378906,0.21761742234230,-0.27782556414604,9.75985431671143,-5.40041589736938,0.20714232325554,-0.25602710247040
514,617534970,-0.99868655204773,-1.32775437831879,22.90430259704590,0.22471195459366,-0.28943538665771,9.78536891937256,-5.33586788177490,0.16469953954220,-0.31225034594536
515,617543303,-0.99811273813248,-1.32686436176300,22.90448379516602,0.21214005351067,-0.28541123867035,9.79733753204346,-5.32142114639282,0.19874083995819,-0.26932087540627
516,617551636,-0.99866110086441,-1.32633519172668,22.90447425842285,0.21545244753361,-0.29206344485283,9.77381801605225,-5.42221355438232,0.15399278700352,-0.29834184050560
517,617559969,-0.99735361337662,-1.32690834999084,22.90469932556152,0.21769933402538,-0.28748556971550,9.78447055816650,-5.23154067993164,0.02384685352445,-0.26716929674149
518,617568302,-0.99668180942535,-1.32730329036713,22.90435028076172,0.22581896185875,-0.27526271343231,9.80322456359863,-5.27858114242554,0.04427420347929,-0.34320509433746
519,617576635,-0.99601608514786,-1.32747519016266,22.90420722961426,0.22387503087521,-0.27872908115387,9.77209472656250,-5.31040716171265,0.07195039093494,-0.30961206555367
520,617584968,-0.99668651819229,-1.32765138149261,22.90422821044922,0.21460132300854,-0.29423785209656,9.81432914733887,-5.43781232833862,0.06959387660027,-0.29852110147476
521,617593301,-0.99675297737122,-1.32717549800873,22.90403556823730,0.19650608301163,-0.28722724318504,9.78893947601318,-5.39885330200195,0.15061169862747,-0.31447875499725
522,617601634,-0.99641114473343,-1.32742309570312,22.90369606018066,0.23492729663849,-0.29241734743118,9.78735446929932,-5.31737470626831,0.06173030287027,-0.34065651893616
523,617609967,-0.99537253379822,-1.32726013660431,22.90336227416992,0.21734976768494,-0.27939879894257,9.80374622344971,-5.26627349853516,0.11367597430944,-0.33135855197906
524,617618300,-0.99513936042786,-1.32706463336945,22.90410423278809,0.23335829377174,-0.29669719934464,9.80686664581299,-5.32938766479492,0.11216472834349,-0.21058744192123
525,617626633,-0.99499344825745,-1.32633411884308,22.90453338623047,0.21736985445023,-0.28569939732552,9.81022644042969,-5.37152290344238,0.17904353141785,-0.23945470154285
526,617634966,-0.99440371990204,-1.32651758193970,22.90417861938477,0.22301077842712,-0.27738040685654,9.77059364318848,-5.28924942016602,0.07079774141312,-0.34787970781326
527,617643299,-0.99440789222717,-1.32711768150330,22.90401077270508,0.20677290856838,-0.27634099125862,9.76828384399414,-5.39091253280640,0.02133665792644,-0.31194296479225
528,617651632,-0.99457287788391,-1.32721471786499,22.90395164489746,0.21402275562286,-0.28412941098213,9.76542854309082,-5.37872076034546,0.07807219028473,-0.31452998518944
529,617659965,-0.99418997764587,-1.32715308666229,22.90356636047363,0.21992166340351,-0.27972725033760,9.77878379821777,-5.34442329406738,0.10125306993723,-0.33958074450493
530,617668298,-0.99361813068390,-1.32635426521301,22.90279579162598,0.19408100843430,-0.29337975382805,9.81207561492920,-5.29173469543457,0.18816217780113,-0.39447203278542
531,617676631,-0.99286437034607,-1.32629251480103,22.90300178527832,0.21541304886341,-0.26468384265900,9.82279300689697,-5.29824018478394,0.09992112964392,-0.26752787828445
532,617684964,-0.99272972345352,-1.32685196399689,22.90307998657227,0.22059075534344,-0.27329513430595,9.79137325286865,-5.34106731414795,0.02261736989021,-0.29708671569824
533,617693297,-0.99194836616516,-1.32653856277466,22.90317535400391,0.21363204717636,-0.27131620049477,9.80988025665283,-5.29616546630859,0.13053013384342,-0.27910548448563
534,617701630,-0.99214625358582,-1.32687318325043,22.90350914001465,0.20610065758228,-0.27364709973335,9.76849937438965,-5.38261365890503,0.05076741799712,-0.26181590557098
535,617709963,-0.99256467819214,-1.32734370231628,22.90320777893066,0.21890169382095,-0.28032487630844,9.76698207855225,-5.44062995910645,0.03644905611873,-0.32943746447563
536,617718296,-0.99127912521362,-1.32825863361359,22.90229797363281,0.22201792895794,-0.30397421121597,9.76842021942139,-5.20641374588013,-0.01732802949846,-0.42351859807968
537,617726629,-0.99149137735367,-1.32896566390991,22.90290260314941,0.23261731863022,-0.28085801005363,9.81920337677002,-5.41378641128540,0.00671093026176,-0.22180646657944
538,617734962,-0.99086034297943,-1.32856941223145,22.90361404418945,0.21753956377506,-0.29497575759888,9.80311107635498,-5.28110456466675,0.13596035540104,-0.22664755582809
539,617743295,-0.99135375022888,-1.32934546470642,22.90427207946777,0.23106296360493,-0.28309622406960,9.81954669952393,-5.44731521606445,-0.00075561989797,-0.21514676511288
540,617751628,-0.99200439453125,-1.32898736000061,22.90398597717285,0.21523688733578,-0.26546949148178,9.79499912261963,-5.43860626220703,0.13544808328152,-0.34572812914848
541,617759961,-0.99161368608475,-1.32893514633179,22.90459632873535,0.20936422049999,-0.27592781186104,9.77778339385986,-5.34075975418091,0.09728286415339,-0.22001348435879
542,617768294,-0.99159139394760,-1.32890355587006,22.90446853637695,0.24258655309677,-0.27280244231224,9.77420139312744,-5.35500192642212,0.09433723241091,-0.32564657926559
543,617776627,-0.99150091409683,-1.32907295227051,22.90451431274414,0.21477772295475,-0.28952059149742,9.79040336608887,-5.37877130508423,0.07141248881817,-0.28517606854439
544,617784960,-0.99103152751923,-1.32922637462616,22.90481376647949,0.21328076720238,-0.28560745716095,9.79222011566162,-5.30067348480225,0.07179669290781,-0.26681068539619
545,617793293,-0.99057900905609,-1.32870662212372,22.90446853637695,0.22247201204300,-0.28828474879265,9.79227161407471,-5.33604669570923,0.15655419230461,-0.33161464333534
546,617801626,-1.02439880371094,-1.31249082088470,22.89311790466309,0.19443404674530,-0.25915709137917,9.82183074951172,-5.37977027893066,0.14228707551956,-0.22242119908333
547,617809959,-1.02507114410400,-1.31233346462250,22.89380645751953,0.23008829355240,-0.28614336252213,9.80072879791260,-5.46726894378662,0.10855314135551,-0.20882007479668
548,617818292,-1.02517580986023,-1.31281661987305,22.89350509643555,0.20848846435547,-0.28013134002686,9.79891777038574,-5.37229156494141,0.03424623608589,-0.34644535183907
549,617826625,-1.02426207065582,-1.31275546550751,22.89375877380371,0.20717397332191,-0.26900115609169,9.78960132598877,-5.27546882629395,0.09800005704165,-0.26099619269371
550,617834958,-1.02433061599731,-1.31238329410553,22.89386558532715,0.23203667998314,-0.30202969908714,9.82777309417725,-5.36529874801636,0.13447473943233,-0.29823935031891
551,617843291,-1.02399921417236,-1.31158304214478,22.89356803894043,0.24034674465656,-0.27274057269096,9.81448841094971,-5.34816265106201,0.18716321885586,-0.32513427734375
552,617851624,-1.02421712875366,-1.31016778945923,22.89465522766113,0.23473830521107,-0.27095204591751,9.79419803619385,-5.37987327575684,0.25875502824783,-0.18174581229687
553,617859957,-1.02380931377411,-1.31023240089417,22.89499092102051,0.22005359828472,-0.27509486675262,9.80598735809326,-5.33709716796875,0.08329748362303,-0.25136530399323
554,617868290,-1.02394926548004,-1.31063556671143,22.89546775817871,0.20534177124500,-0.28039693832397,9.79949760437012,-5.37372589111328,0.04093154519796,-0.24916248023510
555,617876623,-1.02302229404449,-1.31108248233795,22.89578628540039,0.21099536120892,-0.28352928161621,9.80478763580322,-5.27508497238159,0.03593676909804,-0.25349128246307
556,617884956,-1.02263522148132,-1.31116521358490,22.89647483825684,0.20235197246075,-0.26954242587090,9.78151893615723,-5.31007432937622,0.07927606254816,-0.21850225329399
557,617893289,-1.02242481708527,-1.31160950660706,22.89691925048828,0.20748996734619,-0.28694775700569,9.78964424133301,-5.36079072952271,0.03739678487182,-0.23917292058468
558,617901622,-1.02211368083954,-1.31037449836731,22.89727973937988,0.20570230484009,-0.28817763924599,9.79120540618896,-5.31862926483154,0.23939064145088,-0.25853729248047
559,617909955,-1.02255344390869,-1.31055414676666,22.89694786071777,0.21302181482315,-0.28896379470825,9.78496932983398,-5.44175720214844,0.06887668371201,-0.33225506544113
560,617918288,-1.02253329753876,-1.31074821949005,22.89681625366211,0.21135415136814,-0.29489624500275,9.81215286254883,-5.35717868804932,0.06877421587706,-0.33822315931320
561,617926621,-1.02220880985260,-1.31098139286041,22.89638328552246,0.21423281729221,-0.26825466752052,9.80417251586914,-5.34806060791016,0.06324154883623,-0.34326916933060
562,617934954,-1.02223670482635,-1.31071221828461,22.89649009704590,0.21869061887264,-0.29746502637863,9.77889251708984,-5.36143064498901,0.12294832617044,-0.30046772956848
563,617943287,-1.02197265625000,-1.31178700923920,22.89632797241211,0.23031118512154,-0.29062616825104,9.80441284179688,-5.35630846023560,-0.03735836595297,-0.31299316883087
564,617951620,-1.02113068103790,-1.31183469295502,22.89569091796875,0.19800746440887,-0.27530267834663,9.79057121276855,-5.25823163986206,0.08672980219126,-0.38937482237816
565,617959953,-1.02137327194214,-1.31225478649139,22.89593887329102,0.19859060645103,-0.26748314499855,9.81106853485107,-5.41440105438232,0.03988136351109,-0.26222571730614
566,617968286,-1.02191615104675,-1.31151068210602,22.89604377746582,0.18755228817463,-0.26978507637978,9.79705047607422,-5.42190599441528,0.17947892844677,-0.28197431564331
567,617976619,-1.02120673656464,-1.31103241443634,22.89543342590332,0.22533735632896,-0.29894256591797,9.83519840240479,-5.30367088317871,0.14956152439117,-0.36294090747833
568,617984952,-1.02160799503326,-1.31125807762146,22.89618492126465,0.22215080261230,-0.28131002187729,9.79938411712646,-5.40220832824707,0.06106434017420,-0.20377404987812
569,617993285,-1.02163326740265,-1.31075739860535,22.89710044860840,0.20538008213043,-0.29199799895287,9.79509544372559,-5.38602066040039,0.14963835477829,-0.18046510219574
570,618001618,-1.02163457870483,-1.31074762344360,22.89714813232422,0.20570765435696,-0.28993698954582,9.81777763366699,-5.35899782180786,0.09195511043072,-0.29398739337921
571,618009951,-1.02102327346802,-1.31146585941315,22.89786911010742,0.22638948261738,-0.27091267704964,9.77035140991211,-5.31033039093018,0.00286879460327,-0.20602810382843
572,618018284,-1.02054667472839,-1.31079030036926,22.89821052551270,0.22468203306198,-0.27891600131989,9.80650234222412,-5.30000734329224,0.17199960350990,-0.25384986400604
573,618026617,-1.02060711383820,-1.31080567836761,22.89886665344238,0.22842752933502,-0.26776608824730,9.75459766387939,-5.39129734039307,0.08701156824827,-0.21322569251060
574,618034950,-1.02056801319122,-1.31106019020081,22.89999389648438,0.21964049339294,-0.26684138178825,9.77857303619385,-5.35016012191772,0.05842606723309,-0.17006571590900
575,618043283,-1.02069354057312,-1.31072282791138,22.90089416503906,0.21982921659946,-0.26991087198257,9.80086231231689,-5.39918661117554,0.12842977046967,-0.18105421960354
576,618051616,-1.02041506767273,-1.31112563610077,22.90119361877441,0.21038381755352,-0.27783948183060,9.77727317810059,-5.32362413406372,0.04187927395105,-0.26716926693916
577,618059949,-1.02113556861877,-1.31220662593842,22.90151786804199,0.20843577384949,-0.28945687413216,9.78058910369873,-5.47239255905151,-0.03825486451387,-0.25408041477203
578,618068282,-1.02129173278809,-1.31301712989807,22.90131378173828,0.20164999365807,-0.28274801373482,9.78039836883545,-5.37761926651001,-0.00703110685572,-0.32731151580811
579,618076615,-1.02102839946747,-1.31351387500763,22.90207862854004,0.22142857313156,-0.30399551987648,9.79314994812012,-5.35251712799072,0.02948198467493,-0.20123824477196
580,618084948,-1.02067387104034,-1.31270217895508,22.90228271484375,0.22197599709034,-0.29289299249649,9.80114650726318,-5.31337833404541,0.18726566433907,-0.27431562542915
581,618093281,-1.02007114887238,-1.31261980533600,22.90227127075195,0.21793046593666,-0.25035271048546,9.79520320892334,-5.31570959091187,0.10173974186182,-0.29393616318703
582,618101614,-1.01949608325958,-1.31285059452057,22.90334129333496,0.23134823143482,-0.28814604878426,9.77911472320557,-5.28343534469604,0.05983485281467,-0.18154087662697
583,618109947,-1.01990795135498,-1.31246471405029,22.90303421020508,0.22621522843838,-0.28344506025314,9.79045772552490,-5.43776130676270,0.13724108040333,-0.32638940215111
584,618118280,-1.01953148841858,-1.31312716007233,22.90285682678223,0.21513456106186,-0.29090130329132,9.79030704498291,-5.31184196472168,0.01173132099211,-0.32595396041870
585,618126613,-1.01849341392517,-1.31361615657806,22.90338897705078,0.22470270097256,-0.28807425498962,9.80015754699707,-5.26104879379272,0.03178726881742,-0.22908091545105
586,618134946,-1.01901423931122,-1.31429100036621,22.90315437316895,0.22935505211353,-0.26365172863007,9.79259490966797,-5.42182922363281,0.01024569384754,-0.33471402525902
587,618143279,-1.01853716373444,-1.31456184387207,22.90333938598633,0.22928462922573,-0.27285543084145,9.79354190826416,-5.32918262481689,0.05783694237471,-0.27078089118004
588,618151612,-1.01873207092285,-1.31495189666748,22.90347862243652,0.19266685843468,-0.28019258379936,9.80390357971191,-5.37782430648804,0.04221225529909,-0.28735330700874
589,618159945,-1.01826882362366,-1.31495678424835,22.90328216552734,0.21265399456024,-0.28945252299309,9.79954433441162,-5.33279418945312,0.09064877778292,-0.31547772884369
590,618168278,-1.01780688762665,-1.31532216072083,22.90340614318848,0.21649622917175,-0.28972226381302,9.80265426635742,-5.30118608474731,0.04707895964384,-0.28978663682938
591,618176611,-1.01788508892059,-1.31557929515839,22.90364265441895,0.22694595158100,-0.30229523777962,9.75891876220703,-5.39580488204956,0.05952747538686,-0.26368573307991
592,618184944,-1.01753282546997,-1.31621146202087,22.90389823913574,0.22049660980701,-0.28999164700508,9.79458618164062,-5.31235408782959,0.01383168622851,-0.27603182196617
593,618193277,-1.01755666732788,-1.31633543968201,22.90355682373047,0.23188534379005,-0.28550571203232,9.80074119567871,-5.39119482040405,0.07574129849672,-0.33030837774277
594,618201610,-1.01884937286377,-1.31682980060577,22.90363883972168,0.22592249512672,-0.29913786053658,9.77257728576660,-5.50945520401001,0.03135182708502,-0.31340298056602
595,618209943,-1.01851809024811,-1.31717097759247,22.90359115600586,0.22294647991657,-0.28743579983711,9.78481674194336,-5.34798288345337,0.05025513097644,-0.29724037647247
596,618218276,-1.01809167861938,-1.31746804714203,22.90354156494141,0.21771471202374,-0.28877156972885,9.80089569091797,-5.30733394622803,0.05412288382649,-0.30420747399330
597,618226609,-1.01706218719482,-1.31722640991211,22.90344429016113,0.20884673297405,-0.28711858391762,9.81469440460205,-5.26381492614746,0.12033567577600,-0.30192780494690
598,618234942,-1.01709759235382,-1.31718468666077,22.90338897705078,0.21071895956993,-0.28722521662712,9.80613327026367,-5.36240434646606,0.09646321088076,-0.30469417572021
599,618243275,-1.01670062541962,-1.31869316101074,22.90219116210938,0.21449875831604,-0.28565511107445,9.77952957153320,-5.34168243408203,-0.08879174292088,-0.43939942121506
600,618251608,-1.01573812961578,-1.31880259513855,22.90249824523926,0.21451331675053,-0.29558333754539,9.78818130493164,-5.24117183685303,0.07743182778358,-0.26947456598282
601,618259941,-1.01509261131287,-1.31839668750763,22.90246200561523,0.21633009612560,-0.29904115200043,9.78707313537598,-5.31079196929932,0.14087828993797,-0.29460215568542
602,618268274,-1.01514983177185,-1.31770789623260,22.90234184265137,0.21869884431362,-0.28289180994034,9.78421974182129,-5.36391544342041,0.17302417755127,-0.31406897306442
603,618276607,-1.01478314399719,-1.31793093681335,22.90181159973145,0.20385281741619,-0.28864365816116,9.77123355865479,-5.34421825408936,0.06626401841640,-0.35489803552628
604,618284940,-1.01462221145630,-1.31787788867950,22.90175819396973,0.22930943965912,-0.29791975021362,9.76681709289551,-5.33740472793579,0.09633513540030,-0.31337738037109
605,618293273,-1.01377308368683,-1.31871891021729,22.90153312683105,0.22495558857918,-0.26905205845833,9.76807594299316,-5.28615045547485,-0.00936200283468,-0.32019072771072
606,618301606,-1.01397919654846,-1.31913387775421,22.90225219726562,0.21217404305935,-0.28213310241699,9.79855346679688,-5.37933540344238,0.03829327970743,-0.21783627569675
607,618309939,-1.01441216468811,-1.31926870346069,22.90201568603516,0.21747359633446,-0.29622781276703,9.80799102783203,-5.43981075286865,0.07507532835007,-0.31870514154434
608,618318272,-1.01464307308197,-1.31857204437256,22.90241050720215,0.20839060842991,-0.29512304067612,9.80099678039551,-5.38143587112427,0.17361329495907,-0.25292778015137
609,618326605,-1.01462376117706,-1.31804132461548,22.90266990661621,0.19241003692150,-0.28025132417679,9.80212402343750,-5.38443183898926,0.15437699854374,-0.25828111171722
610,618334938,-1.01428294181824,-1.31838440895081,22.90220832824707,0.22476522624493,-0.29865220189095,9.78358936309814,-5.31673383712769,0.04928178712726,-0.35771557688713
611,618343271,-1.01377177238464,-1.31772446632385,22.90202903747559,0.21941432356834,-0.29657864570618,9.78058719635010,-5.32605838775635,0.17084695398808,-0.31307002902031
612,618351604,-1.01380789279938,-1.31774997711182,22.90233230590820,0.20141948759556,-0.28721198439598,9.77459621429443,-5.35915040969849,0.08637119829655,-0.26775839924812
613,618359937,-1.01396811008453,-1.31760179996490,22.90307998657227,0.21782700717449,-0.30214801430702,9.80994796752930,-5.40425682067871,0.10814329236746,-0.20192979276180
614,618368270,-1.01386427879333,-1.31703972816467,22.90363121032715,0.23820605874062,-0.29030197858810,9.78197097778320,-5.34242486953735,0.15706649422646,-0.23338411748409
615,618376603,-1.01398134231567,-1.31806528568268,22.90342521667480,0.23096558451653,-0.29217275977135,9.77984333038330,-5.40241384506226,-0.03277341648936,-0.31801354885101
616,618384936,-1.01377761363983,-1.31856131553650,22.90336418151855,0.24071323871613,-0.28725016117096,9.80196189880371,-5.33158969879150,0.03186410665512,-0.32884833216667
617,618393269,-1.01383292675018,-1.31898260116577,22.90260887145996,0.23518623411655,-0.29192405939102,9.79037475585938,-5.39542007446289,0.04157190024853,-0.38361155986786
618,618401602,-1.01341748237610,-1.31881856918335,22.90182304382324,0.21635970473289,-0.30890688300133,9.77473831176758,-5.30856275558472,0.11275386065245,-0.38983586430550
619,618409935,-1.01341509819031,-1.31889462471008,22.90236091613770,0.20933392643929,-0.30603569746017,9.78755092620850,-5.38497018814087,0.08129958063364,-0.22741597890854
620,618418268,-1.01326394081116,-1.31921768188477,22.90214538574219,0.20415584743023,-0.30246365070343,9.79262924194336,-5.33883905410767,0.05163829401135,-0.32682481408119
621,618426601,-1.01304733753204,-1.31939458847046,22.90198326110840,0.20864899456501,-0.28126153349876,9.79074192047119,-5.36184024810791,0.06977317482233,-0.31030362844467
622,618434934,-1.01344275474548,-1.31998944282532,22.90270233154297,0.20306165516376,-0.29287743568420,9.80308246612549,-5.40256738662720,0.01736645214260,-0.21214991807938
623,618443267,-1.01268112659454,-1.32011032104492,22.90300941467285,0.22488677501678,-0.29840338230133,9.77956199645996,-5.29560232162476,0.07599744200706,-0.25400361418724
624,618451600,-1.01208901405334,-1.32008826732635,22.90321540832520,0.23096200823784,-0.28380417823792,9.77820110321045,-5.28292322158813,0.09223686158657,-0.26658016443253
625,618459933,-1.01224994659424,-1.32001888751984,22.90348815917969,0.22912214696407,-0.28958004713058,9.78603363037109,-5.40653753280640,0.09835867583752,-0.25884467363358
626,618468266,-1.01131367683411,-1.32007956504822,22.90382575988770,0.21418850123882,-0.30450469255447,9.79407882690430,-5.24342584609985,0.08132519572973,-0.25625759363174
627,618476599,-1.01170217990875,-1.32069683074951,22.90431594848633,0.20406320691109,-0.28358367085457,9.80014801025391,-5.43368816375732,0.01757136359811,-0.23271812498569
628,618484932,-1.01086235046387,-1.32035696506500,22.90460395812988,0.22072795033455,-0.28279593586922,9.79968166351318,-5.25351762771606,0.12809678912163,-0.26161098480225
629,618493265,-1.01015579700470,-1.31961846351624,22.90436363220215,0.23125168681145,-0.29795140028000,9.79580211639404,-5.30274868011475,0.18034984171391,-0.31873074173927
630,618501598,-1.01032388210297,-1.31915163993835,22.90372467041016,0.21332517266273,-0.28476834297180,9.79183769226074,-5.37749099731445,0.14746114611626,-0.37779715657234
631,618509931,-1.01011216640472,-1.31869590282440,22.90292549133301,0.22998316586018,-0.28155794739723,9.79429244995117,-5.36463260650635,0.14828081429005,-0.38512286543846
632,618518264,-1.00977051258087,-1.31826317310333,22.90258789062500,0.21614362299442,-0.26363322138786,9.82106399536133,-5.31519746780396,0.14151866734028,-0.33650705218315
633,618526597,-1.00973153114319,-1.31861579418182,22.90262413024902,0.20620308816433,-0.28823697566986,9.80422973632812,-5.38125658035278,0.04841090738773,-0.28707152605057
634,618534930,-1.00967240333557,-1.31835901737213,22.90376472473145,0.22617802023888,-0.29517358541489,9.79357719421387,-5.34706163406372,0.11992583423853,-0.16094703972340
635,618543263,-1.00934910774231,-1.31806361675262,22.90424156188965,0.22646938264370,-0.28598824143410,9.78516197204590,-5.34700918197632,0.12481816112995,-0.23353777825832
636,618551596,-1.00895428657532,-1.31844234466553,22.90501022338867,0.21419326961040,-0.27522379159927,9.79664421081543,-5.30735874176025,0.04395402967930,-0.20484985411167
637,618559929,-1.00841557979584,-1.31863486766815,22.90445518493652,0.21623916924000,-0.27652579545975,9.80774688720703,-5.32336854934692,0.06859491765499,-0.35827910900116
638,618568262,-1.00827908515930,-1.31868433952332,22.90485572814941,0.24110472202301,-0.29966047406197,9.78175163269043,-5.34027290344238,0.08365608751774,-0.24726702272892
639,618576595,-1.00744175910950,-1.31791996955872,22.90500259399414,0.20859587192535,-0.28144618868828,9.76301097869873,-5.28663682937622,0.18180982768536,-0.27206158638000
640,618584928,-1.00738310813904,-1.31839597225189,22.90472030639648,0.19784443080425,-0.28805515170097,9.80610370635986,-5.34923839569092,0.03486097231507,-0.33632773160934
641,618593261,-1.00766801834106,-1.31876480579376,22.90475654602051,0.19200648367405,-0.30679655075073,9.81217098236084,-5.42052316665649,0.04689966514707,-0.28778874874115
642,618601594,-1.00718510150909,-1.31905686855316,22.90500640869141,0.19798679649830,-0.29610854387283,9.80928325653076,-5.29841899871826,0.05386672914028,-0.27733808755875
643,618609927,-1.00651741027832,-1.31953930854797,22.90530395507812,0.19505380094051,-0.27646872401237,9.80245876312256,-5.30502843856812,0.03322166204453,-0.25653937458992
644,618618260,-1.00649154186249,-1.31876695156097,22.90556907653809,0.22378388047218,-0.29439100623131,9.78626918792725,-5.35392570495605,0.18224528431892,-0.26260995864868
645,618626593,-1.00566864013672,-1.31835961341858,22.90641212463379,0.20599243044853,-0.28174957633018,9.80340862274170,-5.28589391708374,0.13816316425800,-0.18971180915833
646,618634926,-1.00607728958130,-1.31817543506622,22.90708923339844,0.22201710939407,-0.29295784235001,9.78035354614258,-5.40507698059082,0.11098647117615,-0.21932187676430
647,618643259,-1.00556147098541,-1.31802511215210,22.90738677978516,0.21738207340240,-0.28272616863251,9.83769893646240,-5.32362461090088,0.10816891491413,-0.25538673996925
648,618651592,-1.00483894348145,-1.31739711761475,22.90783119201660,0.19678217172623,-0.28743335604668,9.79480266571045,-5.26829719543457,0.16539110243320,-0.24204170703888
649,618659925,-1.00441551208496,-1.31826591491699,22.90858650207520,0.20465077459812,-0.27684640884399,9.80373859405518,-5.33379316329956,-0.01568871922791,-0.20210912823677
650,618668258,-1.00369489192963,-1.31798827648163,22.90898895263672,0.22033183276653,-0.30580842494965,9.79377937316895,-5.26937341690063,0.12292270362377,-0.25026386976242
651,618676591,-1.00301301479340,-1.31833446025848,22.90871620178223,0.21884088218212,-0.29296579957008,9.77169609069824,-5.30507993698120,0.05053688958287,-0.32439148426056
652,618684924,-1.00313496589661,-1.31802344322205,22.90896606445312,0.20847308635712,-0.28607121109962,9.80899524688721,-5.37016487121582,0.12650869786739,-0.27464866638184
653,618693257,-1.00248289108276,-1.31798613071442,22.90897178649902,0.19860088825226,-0.31402593851089,9.81493377685547,-5.30948495864868,0.09664250165224,-0.28947925567627
654,618701590,-1.00196969509125,-1.31818473339081,22.90880393981934,0.21717771887779,-0.30217739939690,9.78611850738525,-5.29414176940918,0.06590542197227,-0.32436585426331
655,618709923,-1.00128054618835,-1.31778085231781,22.90740585327148,0.20869994163513,-0.28155520558357,9.78363323211670,-5.30897235870361,0.14285057783127,-0.45822575688362
656,618718256,-1.00058484077454,-1.31792378425598,22.90720748901367,0.21092726290226,-0.27881860733032,9.80986213684082,-5.27359962463379,0.07279565930367,-0.32331570982933
657,618726589,-1.00045907497406,-1.31741452217102,22.90700721740723,0.21264721453190,-0.28179779648781,9.79722499847412,-5.37195825576782,0.15304505825043,-0.31424826383591
658,618734922,-1.00049948692322,-1.31748366355896,22.90677070617676,0.20517154037952,-0.28619363903999,9.78574848175049,-5.36178970336914,0.08242660760880,-0.32393041253090
659,618743255,-0.99986028671265,-1.31709563732147,22.90708160400391,0.21798330545425,-0.29484114050865,9.80628108978271,-5.30820465087891,0.13770212233067,-0.25277405977249
660,618751588,-0.99959200620651,-1.31733620166779,22.90652084350586,0.22313275933266,-0.30220550298691,9.77855205535889,-5.32485437393188,0.06242189183831,-0.36770519614220
661,618759921,-0.99884474277496,-1.31675839424133,22.90595054626465,0.21879060566425,-0.27257487177849,9.80116748809814,-5.29875278472900,0.16152338683605,-0.35886827111244
662,618768254,-0.99997800588608,-1.31729590892792,22.90566825866699,0.21303644776344,-0.28574860095978,9.80532741546631,-5.49106454849243,0.02630581893027,-0.33719858527184
663,618776587,-0.99981343746185,-1.31673514842987,22.90505409240723,0.22162880003452,-0.30427867174149,9.78766727447510,-5.36978101730347,0.15896193683147,-0.36419600248337
664,618784920,-0.99957418441772,-1.31589484214783,22.90494155883789,0.21691076457500,-0.27503985166550,9.77887248992920,-5.32690334320068,0.19059553742409,-0.30756294727325
665,618793253,-0.99983322620392,-1.31463134288788,22.90506744384766,0.21631440520287,-0.29317477345467,9.77958393096924,-5.41821765899658,0.24243871867657,-0.27359843254089
666,618801586,-0.99975079298019,-1.31385457515717,22.90484809875488,0.22188824415207,-0.29060050845146,9.78754997253418,-5.34644651412964,0.18367968499660,-0.31893569231033
667,618809919,-0.99961578845978,-1.31276035308838,22.90461540222168,0.22225555777550,-0.28128230571747,9.80447864532471,-5.37106180191040,0.22238278388977,-0.31745001673698
668,618818252,-0.99982285499573,-1.31280755996704,22.90460586547852,0.19996945559978,-0.28018003702164,9.76246070861816,-5.38066720962524,0.08501365035772,-0.30044218897820
669,618826585,-0.99826258420944,-1.31305265426636,22.90431213378906,0.20710031688213,-0.29932045936584,9.79053211212158,-5.20126533508301,0.06237066537142,-0.32569780945778
670,618834918,-0.99758064746857,-1.31189155578613,22.90435028076172,0.22195096313953,-0.29473647475243,9.79483699798584,-5.27569961547852,0.23065619170666,-0.29834178090096
671,618843251,-0.99629497528076,-1.31212711334229,22.90463066101074,0.21857953071594,-0.28768554329872,9.80226039886475,-5.23215532302856,0.06214013323188,-0.25820428133011
672,618851584,-0.99629229307175,-1.31199669837952,22.90425872802734,0.21109332144260,-0.29187977313995,9.78423023223877,-5.35738420486450,0.10478784143925,-0.34483164548874
673,618859917,-0.99589729309082,-1.31174015998840,22.90347480773926,0.22252450883389,-0.27811446785927,9.77962112426758,-5.34137439727783,0.12417779117823,-0.38560947775841
674,618868250,-0.99532282352448,-1.31171488761902,22.90333366394043,0.20673534274101,-0.26505336165428,9.80784320831299,-5.28714895248413,0.09305651485920,-0.31926864385605
675,618876583,-0.99595516920090,-1.31149983406067,22.90303230285645,0.21334031224251,-0.29203927516937,9.80566978454590,-5.46358013153076,0.11695459485054,-0.32708096504211
676,618884916,-0.99584329128265,-1.31212556362152,22.90363311767578,0.20673370361328,-0.27546545863152,9.81743717193604,-5.33940315246582,0.01334501709789,-0.22610968351364
677,618893249,-0.99565261602402,-1.31172573566437,22.90352249145508,0.22722654044628,-0.26466977596283,9.80582141876221,-5.36368465423584,0.13859862089157,-0.30377203226089
678,618901582,-0.99539196491241,-1.31194114685059,22.90443611145020,0.23364968597889,-0.29205936193466,9.78123092651367,-5.32326602935791,0.06336962431669,-0.18715043365955
679,618909915,-0.99468165636063,-1.31262528896332,22.90415763854980,0.21209584176540,-0.28971982002258,9.80377674102783,-5.30062246322632,0.00996393710375,-0.32690167427063
680,618918248,-0.99435365200043,-1.31308555603027,22.90406036376953,0.23126094043255,-0.26454773545265,9.79332351684570,-5.31821966171265,0.03539887443185,-0.31245523691177
681,618926581,-0.99401366710663,-1.31363546848297,22.90397071838379,0.23270650207996,-0.28384101390839,9.79241371154785,-5.34690761566162,0.02479458041489,-0.30364397168159
682,618934914,-0.99358803033829,-1.31361055374146,22.90464782714844,0.22355839610100,-0.29519519209862,9.81523513793945,-5.30341434478760,0.09192948788404,-0.22034645080566
683,618943247,-0.99342638254166,-1.31420445442200,22.90527343750000,0.20943401753902,-0.27402770519257,9.78849124908447,-5.36560630798340,0.01805803552270,-0.21701662242413
684,618951580,-0.99344342947006,-1.31472742557526,22.90549659729004,0.19608923792839,-0.30047404766083,9.79292297363281,-5.35845994949341,0.02715108729899,-0.27495601773262
685,618959913,-0.99250984191895,-1.31370770931244,22.90510749816895,0.19481787085533,-0.27662870287895,9.77061748504639,-5.27513551712036,0.21508271992207,-0.33507260680199
686,618968246,-0.99163538217545,-1.31287002563477,22.90496253967285,0.21700727939606,-0.28159630298615,9.81941795349121,-5.25200653076172,0.18990392982960,-0.30492466688156
687,618976579,-0.99070805311203,-1.31351959705353,22.90471839904785,0.22967542707920,-0.28523036837578,9.80274772644043,-5.27626323699951,0.01267904601991,-0.32275214791298
688,618984912,-0.99113792181015,-1.31382691860199,22.90515327453613,0.23137052357197,-0.29104799032211,9.78571128845215,-5.40681886672974,0.05263724923134,-0.24480804800987
689,618993245,-0.99048757553101,-1.31307756900787,22.90554428100586,0.21559877693653,-0.27785673737526,9.81821155548096,-5.30820465087891,0.18081088364124,-0.24298945069313
690,619001578,-0.98987048864365,-1.31273198127747,22.90550231933594,0.20220835506916,-0.29493391513824,9.80713081359863,-5.28297376632690,0.13227190077305,-0.30354145169258
691,619009911,-0.98999238014221,-1.31285142898560,22.90465164184570,0.21869574487209,-0.29440128803253,9.79644680023193,-5.40407800674438,0.07802096009254,-0.39370357990265
