sep=,
DeviceTag:,Xsens DOT
FirmwareVersion:,3.0.0
AppVersion:,2023.6.0
StartTime: ,2025-03-06_12:24:10_000 PST
© Movella Technologies B. V. 2005-2025

PacketCounter,SampleTimeFine,Euler_X,Euler_Y,Euler_Z,Acc_X,Acc_Y,Acc_Z,Gyr_X,Gyr_Y,Gyr_Z
0,874366363,-1.04992771148682,-1.26760089397430,22.82789993286133,0.00000000000000,0.00000000000000,0.00000000000000,0.00000000000000,0.00000000000000,0.00000000000000
1,874374696,-1.05020916461945,-1.26800501346588,22.82670021057129,0.20124429464340,-0.28395453095436,9.78039932250977,-5.40602540969849,0.04523474350572,-0.43097233772278
2,874383029,-1.05019104480743,-1.26756596565247,22.82652664184570,0.20888976752758,-0.29521963000298,9.81055259704590,-5.39562559127808,0.14746114611626,-0.31855142116547
3,874391362,-1.04963326454163,-1.26764130592346,22.82712364196777,0.19590622186661,-0.28513410687447,9.79804992675781,-5.29946994781494,0.08117152005434,-0.23407571017742
4,874399695,-1.04891693592072,-1.26752364635468,22.82699394226074,0.21221183240414,-0.29395803809166,9.79844760894775,-5.31248235702515,0.10852752625942,-0.31296753883362
5,874408028,-1.04937458038330,-1.26761150360107,22.82755279541016,0.21442760527134,-0.27464842796326,9.79243373870850,-5.42057418823242,0.08012133091688,-0.22178085148335
6,874416361,-1.04921650886536,-1.26827239990234,22.82750320434570,0.22878713905811,-0.28796514868736,9.78785705566406,-5.38002634048462,0.01426712796092,-0.30461731553078
7,874424694,-1.04920053482056,-1.26746380329132,22.82691001892090,0.22480973601341,-0.26956942677498,9.79852390289307,-5.36914062500000,0.19136396050453,-0.35914996266365
8,874433027,-1.04903054237366,-1.26747608184814,22.82625579833984,0.22051584720612,-0.29038730263710,9.78162097930908,-5.37900209426880,0.09287721663713,-0.37538942694664
9,874441360,-1.04901266098022,-1.26731717586517,22.82557678222656,0.22371873259544,-0.27465507388115,9.79104614257812,-5.36896133422852,0.11439318209887,-0.36268475651741
10,874449693,-1.04812455177307,-1.26705527305603,22.82616043090820,0.18808524310589,-0.28035193681717,9.80998325347900,-5.29096651077271,0.12451080232859,-0.22595600783825
11,874458026,-1.04793632030487,-1.26749992370605,22.82511329650879,0.19957272708416,-0.30355522036552,9.81047534942627,-5.34990453720093,0.04162313416600,-0.41173604130745
12,874466359,-1.04724609851837,-1.26848375797272,22.82556724548340,0.20444491505623,-0.30766516923904,9.78579425811768,-5.31330156326294,-0.02596002630889,-0.24468000233173
13,874474692,-1.04767608642578,-1.26893150806427,22.82576942443848,0.20723295211792,-0.27228191494942,9.80173969268799,-5.41919088363647,0.03788345307112,-0.27510967850685
14,874483025,-1.04744052886963,-1.26937043666840,22.82560539245605,0.21198709309101,-0.27076929807663,9.79108905792236,-5.37026786804199,0.04218664765358,-0.31873074173927
15,874491358,-1.04777789115906,-1.26967370510101,22.82457923889160,0.22137781977654,-0.29472407698631,9.79897117614746,-5.41173791885376,0.05827238783240,-0.41347783803940
16,874499691,-1.04751741886139,-1.26848804950714,22.82378768920898,0.20907744765282,-0.27006399631500,9.79759502410889,-5.36957597732544,0.23851975798607,-0.38911864161491
17,874508024,-1.04697144031525,-1.26822412014008,22.82347679138184,0.22127707302570,-0.28750798106194,9.78796482086182,-5.30290269851685,0.12463887780905,-0.31501671671867
18,874516357,-1.04633200168610,-1.26899886131287,22.82275772094727,0.21142344176769,-0.29872858524323,9.79539871215820,-5.32290697097778,0.00197229604237,-0.38599371910095
19,874524690,-1.04637861251831,-1.26819133758545,22.82283401489258,0.21515482664108,-0.30499994754791,9.79324626922607,-5.37467336654663,0.18823900818825,-0.27836269140244
20,874533023,-1.04696726799011,-1.26742589473724,22.82286643981934,0.21742044389248,-0.29808813333511,9.80589008331299,-5.46826791763306,0.18654847145081,-0.29129788279533
21,874541356,-1.04641175270081,-1.26790225505829,22.82333374023438,0.22833555936813,-0.29085338115692,9.78723907470703,-5.29939222335815,0.03317043557763,-0.22247242927551
22,874549689,-1.04605293273926,-1.26826417446136,22.82297134399414,0.22527793049812,-0.28063890337944,9.80672931671143,-5.35602664947510,0.05197127908468,-0.34196284413338
23,874558022,-1.04606187343597,-1.26837420463562,22.82302284240723,0.22574497759342,-0.27440476417542,9.77138996124268,-5.37052392959595,0.07843079417944,-0.28456133604050
24,874566355,-1.04550731182098,-1.26831495761871,22.82304000854492,0.21777452528477,-0.30042576789856,9.79560661315918,-5.33176946640015,0.10181658715010,-0.29473024606705
25,874574688,-1.04537916183472,-1.26829040050507,22.82278060913086,0.21145614981651,-0.28209888935089,9.81948852539062,-5.35479688644409,0.09569478034973,-0.31432509422302
26,874583021,-1.04477715492249,-1.26738727092743,22.82311820983887,0.21010662615299,-0.26604872941971,9.80133628845215,-5.32510995864868,0.20081560313702,-0.25320953130722
27,874591354,-1.04439210891724,-1.26737320423126,22.82259178161621,0.21285155415535,-0.29606062173843,9.77274703979492,-5.32470035552979,0.09577161818743,-0.34980076551437
28,874599687,-1.04345679283142,-1.26684129238129,22.82272148132324,0.22889254987240,-0.32059228420258,9.79546260833740,-5.28599643707275,0.15681035816669,-0.28094971179962
29,874608020,-1.04348039627075,-1.26665055751801,22.82252120971680,0.22173528373241,-0.28285887837410,9.78179550170898,-5.37208652496338,0.11646793037653,-0.31217351555824
30,874616353,-1.04359519481659,-1.26736712455750,22.82328224182129,0.21546526253223,-0.31092822551727,9.80621051788330,-5.40912437438965,0.00617303093895,-0.20569512248039
31,874624686,-1.04373741149902,-1.26793110370636,22.82407379150391,0.21216256916523,-0.30336800217628,9.77807331085205,-5.38394641876221,0.02356509864330,-0.19117185473442
32,874633019,-1.04437649250031,-1.26752197742462,22.82431030273438,0.21092638373375,-0.27964398264885,9.77567481994629,-5.47395420074463,0.14210778474808,-0.26855245232582
33,874641352,-1.04421436786652,-1.26871204376221,22.82379722595215,0.21120123565197,-0.30075734853745,9.78820800781250,-5.35000705718994,-0.04996056482196,-0.34165546298027
34,874649685,-1.04334485530853,-1.26953494548798,22.82310104370117,0.21337212622166,-0.26784238219261,9.81799793243408,-5.29516601562500,-0.00362441432662,-0.38317608833313
35,874658018,-1.04332697391510,-1.27012789249420,22.82331466674805,0.20682190358639,-0.28238674998283,9.83142662048340,-5.36665630340576,0.02156718447804,-0.26834753155708
36,874666351,-1.04335820674896,-1.27052545547485,22.82375335693359,0.22198469936848,-0.29659536480904,9.80288887023926,-5.40039014816284,0.04408210143447,-0.24575579166412
37,874674684,-1.04322791099548,-1.27085149288177,22.82327842712402,0.23883748054504,-0.27851739525795,9.79806804656982,-5.35502767562866,0.05548043549061,-0.35377100110054
38,874683017,-1.04198133945465,-1.27097415924072,22.82314491271973,0.21242320537567,-0.27384424209595,9.79011344909668,-5.24852323532104,0.08042869716883,-0.31283944845200
39,874691350,-1.04183363914490,-1.27202570438385,22.82281112670898,0.22814196348190,-0.28768640756607,9.74680519104004,-5.35213279724121,-0.03418219462037,-0.33653262257576
40,874699683,-1.04147589206696,-1.27308142185211,22.82234382629395,0.21014343202114,-0.29638099670410,9.78684425354004,-5.35615396499634,-0.03049374744296,-0.35535904765129
41,874708016,-1.04111087322235,-1.27285635471344,22.82234764099121,0.20344062149525,-0.26712918281555,9.79676342010498,-5.32480287551880,0.11964409053326,-0.27303496003151
42,874716349,-1.04032003879547,-1.27359545230865,22.82196426391602,0.23101839423180,-0.27569791674614,9.79186534881592,-5.30420923233032,0.00535337487236,-0.34490853548050
43,874724682,-1.03940594196320,-1.27422440052032,22.82221984863281,0.23033632338047,-0.31445622444153,9.79348087310791,-5.26017808914185,0.01764820702374,-0.26353204250336
44,874733015,-1.03914630413055,-1.27443301677704,22.82240486145020,0.19727656245232,-0.28425630927086,9.82299327850342,-5.36719369888306,0.06785210967064,-0.27495598793030
45,874741348,-1.03950142860413,-1.27403855323792,22.82164955139160,0.21566970646381,-0.29458761215210,9.81251239776611,-5.41393995285034,0.14090390503407,-0.37052267789841
46,874749681,-1.03931820392609,-1.27354145050049,22.82133483886719,0.23015749454498,-0.29198676347733,9.78380203247070,-5.37697839736938,0.15430015325546,-0.33456030488014
47,874758014,-1.03816306591034,-1.27401196956635,22.82030868530273,0.20279887318611,-0.27385476231575,9.77987670898438,-5.23474216461182,0.03880556300282,-0.40587031841278
48,874766347,-1.03857064247131,-1.27442800998688,22.82012367248535,0.21788115799427,-0.30847686529160,9.81084728240967,-5.44749450683594,0.04413332790136,-0.31990897655487
49,874774680,-1.03871405124664,-1.27537095546722,22.82050514221191,0.21419727802277,-0.29652655124664,9.80273056030273,-5.38548278808594,-0.02088840864599,-0.25361934304237
50,874783013,-1.03894436359406,-1.27402043342590,22.82071876525879,0.20483951270580,-0.28376340866089,9.79625988006592,-5.42464685440063,0.25532272458076,-0.26844999194145
51,874791346,-1.03887903690338,-1.27440953254700,22.82130813598633,0.22804875671864,-0.28259477019310,9.77722930908203,-5.36086797714233,0.04495298862457,-0.22426544129848
52,874799679,-1.03868603706360,-1.27378618717194,22.82106781005859,0.21613395214081,-0.30759191513062,9.81180667877197,-5.37600564956665,0.17018097639084,-0.32428902387619
53,874808012,-1.03811550140381,-1.27388644218445,22.82104873657227,0.20908370614052,-0.27534362673759,9.78300476074219,-5.30069923400879,0.08022379130125,-0.29959690570831
54,874816345,-1.03832125663757,-1.27382659912109,22.82037925720215,0.20773546397686,-0.28985577821732,9.80197143554688,-5.42538976669312,0.10202150791883,-0.37690070271492
55,874824678,-1.03824210166931,-1.27498209476471,22.81999969482422,0.22834980487823,-0.29916894435883,9.78586959838867,-5.36020135879517,-0.04476087912917,-0.33540561795235
56,874833011,-1.03775441646576,-1.27503597736359,22.81938171386719,0.21433037519455,-0.30320724844933,9.77381801605225,-5.34119510650635,0.08964981883764,-0.37244376540184
57,874841344,-1.03826832771301,-1.27495646476746,22.81913566589355,0.22903531789780,-0.28132539987564,9.78372001647949,-5.42997455596924,0.10209833085537,-0.31511911749840
58,874849677,-1.03777909278870,-1.27499675750732,22.81875419616699,0.21178327500820,-0.31881597638130,9.78621482849121,-5.34052944183350,0.09011088311672,-0.34321793913841
59,874858010,-1.03770160675049,-1.27474617958069,22.81898307800293,0.20472055673599,-0.29347142577171,9.79518699645996,-5.35884332656860,0.12202621251345,-0.25799939036369
60,874866343,-1.03761017322540,-1.27518784999847,22.81971931457520,0.20725989341736,-0.29253432154655,9.79045963287354,-5.38489341735840,0.03852381557226,-0.20864076912403
61,874874676,-1.03739142417908,-1.27545166015625,22.81960678100586,0.20613636076450,-0.29099673032761,9.78924369812012,-5.34286069869995,0.06167908385396,-0.29157966375351
62,874883009,-1.03701114654541,-1.27492868900299,22.81807136535645,0.20679515600204,-0.28490737080574,9.79681587219238,-5.35605192184448,0.15932054817677,-0.48261067271233
63,874891342,-1.03661966323853,-1.27487266063690,22.81789970397949,0.21032963693142,-0.28591653704643,9.81074714660645,-5.32293319702148,0.09956253319979,-0.30702504515648
64,874899675,-1.03728854656219,-1.27482426166534,22.81806373596191,0.20029041171074,-0.28694427013397,9.79303932189941,-5.47823143005371,0.09917832165956,-0.27790164947510
65,874908008,-1.03718531131744,-1.27502775192261,22.81820678710938,0.22459286451340,-0.28267657756805,9.80511951446533,-5.35584688186646,0.06805701553822,-0.26862928271294
66,874916341,-1.03700387477875,-1.27490103244781,22.81849098205566,0.22334922850132,-0.28797852993011,9.78990364074707,-5.37536478042603,0.10857874155045,-0.26386502385139
67,874924674,-1.03670859336853,-1.27505266666412,22.81799888610840,0.21626918017864,-0.27693355083466,9.76739025115967,-5.33499765396118,0.07671464234591,-0.33709615468979
68,874933007,-1.03691840171814,-1.27479875087738,22.81867790222168,0.20582397282124,-0.29828527569771,9.76825618743896,-5.42190599441528,0.12097603082657,-0.21501868963242
69,874941340,-1.03721499443054,-1.27326822280884,22.81883621215820,0.22566583752632,-0.25990921258926,9.82295703887939,-5.40461635589600,0.27704355120659,-0.26524820923805
70,874949673,-1.03717732429504,-1.27340030670166,22.81990051269531,0.21050229668617,-0.26480463147163,9.78159999847412,-5.39027261734009,0.07543392479420,-0.17047555744648
71,874958006,-1.03703081607819,-1.27333390712738,22.81942749023438,0.21269805729389,-0.29380366206169,9.77246284484863,-5.35264492034912,0.10094569623470,-0.33591786026955
72,874966339,-1.03618955612183,-1.27314972877502,22.81905746459961,0.21448861062527,-0.29490408301353,9.78453540802002,-5.29765129089355,0.11595565825701,-0.34155300259590
73,874974672,-1.03629648685455,-1.27285075187683,22.81861305236816,0.20593990385532,-0.27313986420631,9.77395915985107,-5.38343286514282,0.13037645816803,-0.33066698908806
74,874983005,-1.03575766086578,-1.27247464656830,22.81850433349609,0.21701107919216,-0.25705674290657,9.82149505615234,-5.33397245407104,0.13872671127319,-0.30933034420013
75,874991338,-1.03540754318237,-1.27240800857544,22.81901741027832,0.21333923935890,-0.27886658906937,9.78389072418213,-5.32331657409668,0.09992112964392,-0.23527958989143
76,874999671,-1.03510284423828,-1.27261435985565,22.81925582885742,0.22739656269550,-0.28370285034180,9.80587673187256,-5.36132860183716,0.06851808726788,-0.27031984925270
77,875008004,-1.03546452522278,-1.27358102798462,22.81893539428711,0.22146013379097,-0.29400774836540,9.81126594543457,-5.41260862350464,-0.02283509261906,-0.33192205429077
78,875016337,-1.03571033477783,-1.27294814586639,22.81894874572754,0.23152129352093,-0.29896035790443,9.78897857666016,-5.42751550674438,0.16997605562210,-0.29426914453506
79,875024670,-1.03525257110596,-1.27296018600464,22.81918334960938,0.24441051483154,-0.28001129627228,9.79037761688232,-5.31422424316406,0.09085369855165,-0.24944424629211
80,875033003,-1.03520071506500,-1.27358078956604,22.81888961791992,0.20362043380737,-0.28472745418549,9.80536174774170,-5.39306449890137,0.01941559091210,-0.33448350429535
81,875041336,-1.03528976440430,-1.27377796173096,22.81882286071777,0.21538835763931,-0.29387030005455,9.77799892425537,-5.37984752655029,0.06826193630695,-0.29572916030884
82,875049669,-1.03468322753906,-1.27381277084351,22.81841850280762,0.18762673437595,-0.29156678915024,9.80372810363770,-5.32554578781128,0.09064877778292,-0.34575375914574
83,875058002,-1.03542900085449,-1.27350950241089,22.81791114807129,0.20843183994293,-0.27249231934547,9.78890323638916,-5.45981550216675,0.12988978624344,-0.34119442105293
84,875066335,-1.03531968593597,-1.27335715293884,22.81806755065918,0.23352541029453,-0.27906423807144,9.80580139160156,-5.38471364974976,0.11224156618118,-0.27769669890404
85,875074668,-1.03535819053650,-1.27257645130157,22.81822013854980,0.20343986153603,-0.29828587174416,9.79289054870605,-5.37303352355957,0.18547268211842,-0.26542750000954
86,875083001,-1.03501534461975,-1.27241003513336,22.81765747070312,0.20476408302784,-0.29702812433243,9.76804828643799,-5.35833168029785,0.11462371796370,-0.36319708824158
87,875091334,-1.03509223461151,-1.27193236351013,22.81777763366699,0.21473117172718,-0.29032120108604,9.77240753173828,-5.37785005569458,0.14920292794704,-0.27659535408020
88,875099667,-1.03526103496552,-1.27177047729492,22.81805229187012,0.21863982081413,-0.27093234658241,9.76822280883789,-5.41706514358521,0.11416265368462,-0.26409557461739
89,875108000,-1.03536522388458,-1.27307724952698,22.81763458251953,0.22319757938385,-0.27637735009193,9.80102920532227,-5.38184547424316,-0.06333120167255,-0.34098950028419
90,875116333,-1.03560125827789,-1.27279055118561,22.81779098510742,0.21847344934940,-0.27461972832680,9.79808616638184,-5.42595291137695,0.12789188325405,-0.27843955159187
91,875124666,-1.03585314750671,-1.27284300327301,22.81801223754883,0.23371493816376,-0.27456280589104,9.79581069946289,-5.39695835113525,0.08598698675632,-0.25305584073067
92,875132999,-1.03558254241943,-1.27292430400848,22.81807518005371,0.22764433920383,-0.28488406538963,9.80299377441406,-5.36573457717896,0.08337434381247,-0.28947928547859
93,875141332,-1.03560459613800,-1.27214372158051,22.81834411621094,0.22355267405510,-0.27643689513206,9.79221248626709,-5.37072896957397,0.18537022173405,-0.24006941914558
94,875149665,-1.03526985645294,-1.27211737632751,22.81867408752441,0.21624723076820,-0.27734619379044,9.80046463012695,-5.35620546340942,0.09589969366789,-0.25730779767036
95,875157998,-1.03476262092590,-1.27095496654510,22.81893920898438,0.20415501296520,-0.29493743181229,9.80253314971924,-5.30725669860840,0.23063059151173,-0.23717501759529
96,875166331,-1.03465735912323,-1.27096569538116,22.81896591186523,0.22379788756371,-0.29503786563873,9.77472305297852,-5.38543081283569,0.09231369942427,-0.29342386126518
97,875174664,-1.03440403938293,-1.27025175094604,22.81982994079590,0.22882066667080,-0.27389842271805,9.79633998870850,-5.33602190017700,0.17655892670155,-0.19245256483555
98,875182997,-1.03432345390320,-1.26980900764465,22.82093048095703,0.22179156541824,-0.27781939506531,9.78831291198730,-5.38609743118286,0.14484851062298,-0.16402074694633
99,875191330,-1.03395664691925,-1.27036607265472,22.82087898254395,0.22355593740940,-0.29692101478577,9.75960636138916,-5.32467460632324,0.02761214785278,-0.28760945796967
100,875199663,-1.03386104106903,-1.27052640914917,22.82106018066406,0.21815235912800,-0.28883686661720,9.79114055633545,-5.38643074035645,0.07351286709309,-0.27500727772713
101,875207996,-1.03395879268646,-1.26997661590576,22.82196044921875,0.21665473282337,-0.27994370460510,9.81540012359619,-5.37808084487915,0.15655420720577,-0.18382057547569
102,875216329,-1.03391563892365,-1.27034461498260,22.82169342041016,0.21665267646313,-0.29242789745331,9.79900741577148,-5.39401197433472,0.05104916915298,-0.32992413640022
103,875224662,-1.03392517566681,-1.27003955841064,22.82234573364258,0.19871434569359,-0.27138024568558,9.79440975189209,-5.36837244033813,0.12748205661774,-0.20794917643070
104,875232995,-1.03401994705200,-1.27024435997009,22.82208061218262,0.21834951639175,-0.30812990665436,9.79493999481201,-5.41030263900757,0.07041352987289,-0.32841289043427
105,875241328,-1.03318941593170,-1.27050793170929,22.82160568237305,0.21023514866829,-0.27864867448807,9.79189968109131,-5.26916837692261,0.06096187233925,-0.34093827009201
106,875249661,-1.03304040431976,-1.27031183242798,22.82126045227051,0.22468915581703,-0.27191677689552,9.77275085449219,-5.38146114349365,0.11774864792824,-0.33868423104286
107,875257994,-1.03271329402924,-1.26971793174744,22.82117843627930,0.21037009358406,-0.29487347602844,9.77502346038818,-5.33000230789185,0.16477638483047,-0.29644635319710
108,875266327,-1.03325605392456,-1.27061951160431,22.82172584533691,0.22040148079395,-0.27936610579491,9.80107212066650,-5.46165943145752,-0.01604731939733,-0.23433184623718
109,875274660,-1.03284358978271,-1.27015614509583,22.82122230529785,0.20387826859951,-0.27721914649010,9.82175922393799,-5.32054996490479,0.15009941160679,-0.34554883837700
110,875282993,-1.03230512142181,-1.26997864246368,22.82089805603027,0.20730862021446,-0.28270021080971,9.77194499969482,-5.33443355560303,0.11498231440783,-0.33640456199646
111,875291326,-1.03294551372528,-1.26963996887207,22.82142066955566,0.21563693881035,-0.29808610677719,9.77430152893066,-5.44388341903687,0.13357824087143,-0.21665799617767
112,875299659,-1.03328466415405,-1.26941478252411,22.82102775573730,0.21627046167850,-0.28607022762299,9.79668045043945,-5.43973302841187,0.12018198519945,-0.34373018145561
113,875307992,-1.03289997577667,-1.26920592784882,22.82121658325195,0.21367780864239,-0.28350120782852,9.78288745880127,-5.32098531723022,0.11728759855032,-0.25011020898819
114,875316325,-1.03256940841675,-1.26977837085724,22.82019424438477,0.21392364799976,-0.28532540798187,9.78599071502686,-5.36125135421753,0.02771460264921,-0.42198169231415
115,875324658,-1.03218126296997,-1.27020859718323,22.81993484497070,0.22218018770218,-0.28931069374084,9.76558208465576,-5.32244634628296,0.04200734943151,-0.32308515906334
116,875332991,-1.03176200389862,-1.27038323879242,22.81945037841797,0.21947674453259,-0.29060569405556,9.80528736114502,-5.34859848022461,0.07341039925814,-0.35571768879890
117,875341324,-1.03200542926788,-1.27087128162384,22.81853103637695,0.22381725907326,-0.28515782952309,9.81356620788574,-5.39831590652466,0.03519396111369,-0.38071721792221
118,875349657,-1.03135836124420,-1.27144289016724,22.81871223449707,0.21360085904598,-0.30057039856911,9.82635498046875,-5.32014036178589,0.02479457668960,-0.27590373158455
119,875357990,-1.03196167945862,-1.27108669281006,22.81852912902832,0.21879853308201,-0.29270100593567,9.81252765655518,-5.44260311126709,0.13555052876472,-0.30407941341400
120,875366323,-1.03155899047852,-1.27057576179504,22.81786346435547,0.21896857023239,-0.28158733248711,9.78920555114746,-5.35162067413330,0.15668226778507,-0.37631151080132
121,875374656,-1.03141796588898,-1.27051651477814,22.81810569763184,0.22119373083115,-0.28689825534821,9.83478069305420,-5.35105705261230,0.09997235238552,-0.24695962667465
122,875382989,-1.03148674964905,-1.26980149745941,22.81770515441895,0.23016978800297,-0.28403177857399,9.80303287506104,-5.40735721588135,0.17960701882839,-0.34393516182899
123,875391322,-1.03174316883087,-1.26928603649139,22.81709671020508,0.22588731348515,-0.28362670540810,9.77657413482666,-5.39957046508789,0.15586262941360,-0.35238784551620
124,875399655,-1.03140127658844,-1.26953864097595,22.81745338439941,0.21514117717743,-0.28905111551285,9.76859378814697,-5.35653877258301,0.06173030287027,-0.25392675399780
125,875407988,-1.03188765048981,-1.26966619491577,22.81767463684082,0.21948687732220,-0.27526533603668,9.79669761657715,-5.42628669738770,0.07817465811968,-0.26232820749283
126,875416321,-1.03176379203796,-1.26995837688446,22.81824111938477,0.22421340644360,-0.27505555748940,9.77967929840088,-5.38238334655762,0.05765764787793,-0.22967001795769
127,875424654,-1.03151726722717,-1.27045977115631,22.81849479675293,0.23805122077465,-0.30435785651207,9.81031703948975,-5.33822441101074,0.03199218213558,-0.25853729248047
128,875432987,-1.03128957748413,-1.27032828330994,22.81815528869629,0.22545970976353,-0.29169386625290,9.79035282135010,-5.37152290344238,0.11021804809570,-0.33748033642769
129,875441320,-1.03151905536652,-1.26990520954132,22.81817436218262,0.22153131663799,-0.29884868860245,9.79367733001709,-5.39818763732910,0.14297866821289,-0.27823463082314
130,875449653,-1.03200924396515,-1.27026450634003,22.81842231750488,0.20901958644390,-0.28019860386848,9.78444957733154,-5.45482015609741,0.05140776559711,-0.26865491271019
131,875457986,-1.03248369693756,-1.27013874053955,22.81831741333008,0.23521889746189,-0.27673444151878,9.79357910156250,-5.42533826828003,0.10650398582220,-0.29616460204124
132,875466319,-1.03174173831940,-1.26958954334259,22.81762313842773,0.22005164623260,-0.28685376048088,9.79672145843506,-5.31084203720093,0.16044758260250,-0.37920594215393
133,875474652,-1.03191387653351,-1.26984345912933,22.81712913513184,0.21924090385437,-0.28171798586845,9.79037857055664,-5.38909387588501,0.06326715648174,-0.34900674223900
134,875482985,-1.03180527687073,-1.27060902118683,22.81700134277344,0.22810874879360,-0.28558683395386,9.80856513977051,-5.38507223129272,0.00243335217237,-0.31378713250160
135,875491318,-1.03231942653656,-1.27067112922668,22.81679344177246,0.23362416028976,-0.30203229188919,9.78505706787109,-5.43194675445557,0.08665294945240,-0.31514471769333
136,875499651,-1.03203892707825,-1.27086091041565,22.81708908081055,0.21257458627224,-0.27341407537460,9.78075981140137,-5.36355686187744,0.07010616362095,-0.26148292422295
137,875507984,-1.03265988826752,-1.27034926414490,22.81682205200195,0.21357890963554,-0.28824684023857,9.78457736968994,-5.44303750991821,0.15450505912304,-0.31429946422577
138,875516317,-1.03268063068390,-1.27092444896698,22.81659126281738,0.20861697196960,-0.27814275026321,9.80727386474609,-5.40113306045532,0.02382124029100,-0.32590270042419
139,875524650,-1.03250861167908,-1.27175426483154,22.81630134582520,0.20789366960526,-0.28539744019508,9.77217769622803,-5.34887933731079,-0.00590408034623,-0.31980648636818
140,875532983,-1.03230357170105,-1.27188420295715,22.81569671630859,0.20605388283730,-0.30655494332314,9.79630470275879,-5.37533950805664,0.08119712024927,-0.36944693326950
141,875541316,-1.03261709213257,-1.27285993099213,22.81545066833496,0.22405841946602,-0.31119623780251,9.81477165222168,-5.40648603439331,-0.02549896948040,-0.31196856498718
142,875549649,-1.03218233585358,-1.27244281768799,22.81552314758301,0.20756010711193,-0.31562408804893,9.81944179534912,-5.34631872177124,0.14331166446209,-0.28760945796967
143,875557982,-1.03268051147461,-1.27300667762756,22.81480598449707,0.22611178457737,-0.28956252336502,9.77438926696777,-5.43135786056519,0.02756091579795,-0.38289439678192
144,875566315,-1.03266644477844,-1.27319264411926,22.81406593322754,0.21397767961025,-0.30093076825142,9.79961967468262,-5.39834117889404,0.07379461079836,-0.38671094179153
145,875574648,-1.03289484977722,-1.27350473403931,22.81411361694336,0.22282181680202,-0.29122039675713,9.79163360595703,-5.39511299133301,0.05489130318165,-0.27485352754593
146,875582981,-1.03301250934601,-1.27367353439331,22.81431388854980,0.21512041985989,-0.25615131855011,9.78776264190674,-5.41214704513550,0.07187354564667,-0.27295807003975
147,875591314,-1.03343856334686,-1.27339196205139,22.81368446350098,0.22717304527760,-0.28793123364449,9.80894660949707,-5.42144489288330,0.12771259248257,-0.35177311301231
148,875599647,-1.03351736068726,-1.27378118038177,22.81446838378906,0.22949357330799,-0.27672168612480,9.77695369720459,-5.40517902374268,0.04497858881950,-0.20495226979256
149,875607980,-1.03406882286072,-1.27404546737671,22.81425666809082,0.22754575312138,-0.27415117621422,9.80381393432617,-5.43356132507324,0.06183277070522,-0.30187660455704
150,875616313,-1.03386414051056,-1.27449476718903,22.81426239013672,0.22734603285789,-0.29375317692757,9.77834892272949,-5.37326478958130,0.03985575214028,-0.29941761493683
151,875624646,-1.03389549255371,-1.27487182617188,22.81452560424805,0.20850607752800,-0.30333650112152,9.78680706024170,-5.37405872344971,0.04856459423900,-0.26814264059067
152,875632979,-1.03331685066223,-1.27494430541992,22.81368446350098,0.21490417420864,-0.28273138403893,9.82616329193115,-5.33089876174927,0.08665295690298,-0.39800679683685
153,875641312,-1.03252375125885,-1.27443683147430,22.81364822387695,0.21429395675659,-0.26395267248154,9.78659343719482,-5.27495622634888,0.15460750460625,-0.29252734780312
154,875649645,-1.03263378143311,-1.27425920963287,22.81365394592285,0.22604332864285,-0.28327953815460,9.78710269927979,-5.41055965423584,0.11452125012875,-0.29736849665642
155,875657978,-1.03248393535614,-1.27426671981812,22.81379699707031,0.21280251443386,-0.30367150902748,9.82355117797852,-5.35149192810059,0.09277475625277,-0.28330624103546
156,875666311,-1.03202581405640,-1.27433335781097,22.81389808654785,0.21416728198528,-0.28702855110168,9.77499008178711,-5.34306573867798,0.08437329530716,-0.28412592411041
157,875674644,-1.03228807449341,-1.27535867691040,22.81416320800781,0.21663562953472,-0.29761990904808,9.80608558654785,-5.39903259277344,-0.03026322089136,-0.25428533554077
158,875682977,-1.03256607055664,-1.27653264999390,22.81497573852539,0.22693258523941,-0.26944679021835,9.80146789550781,-5.43018007278442,-0.04921775683761,-0.20328737795353
159,875691310,-1.03244423866272,-1.27705097198486,22.81499099731445,0.21372628211975,-0.28365397453308,9.79738521575928,-5.35238933563232,0.03009672835469,-0.29831621050835
160,875699643,-1.03263080120087,-1.27732658386230,22.81516838073730,0.21065819263458,-0.28763130307198,9.78416824340820,-5.42016458511353,0.06085942685604,-0.27639040350914
161,875707976,-1.03172755241394,-1.27801167964935,22.81510353088379,0.21764563024044,-0.27579423785210,9.78362464904785,-5.25981903076172,0.01019446458668,-0.31283941864967
162,875716309,-1.03139483928680,-1.27795040607452,22.81544113159180,0.21534259617329,-0.27489867806435,9.81796169281006,-5.35717916488647,0.10051026195288,-0.25723096728325
163,875724642,-1.03157770633698,-1.27730953693390,22.81472778320312,0.23670549690723,-0.28138196468353,9.77618217468262,-5.39291095733643,0.17248626053333,-0.37213644385338
164,875732975,-1.03111922740936,-1.27829813957214,22.81471061706543,0.23520292341709,-0.30153262615204,9.79086875915527,-5.34245109558105,-0.02585757151246,-0.30187660455704
165,875741308,-1.03218615055084,-1.27825844287872,22.81574440002441,0.20799365639687,-0.26322227716446,9.77236175537109,-5.49413824081421,0.09641198068857,-0.15797579288483
166,875749641,-1.03248059749603,-1.27866601943970,22.81646919250488,0.22016830742359,-0.27359512448311,9.78538131713867,-5.43161392211914,0.04244279116392,-0.21204747259617
167,875757974,-1.03251934051514,-1.27897024154663,22.81661987304688,0.20018915832043,-0.29608371853828,9.79955577850342,-5.37072896957397,0.05581341683865,-0.26696437597275
168,875766307,-1.03219699859619,-1.27872467041016,22.81760597229004,0.22088542580605,-0.27808055281639,9.78290462493896,-5.35715293884277,0.12000268697739,-0.17792926728725
169,875774640,-1.03253328800201,-1.27935492992401,22.81767463684082,0.21922141313553,-0.27607199549675,9.79896259307861,-5.40802335739136,0.01662364043295,-0.27746620774269
170,875782973,-1.03232872486115,-1.28006374835968,22.81784629821777,0.22527079284191,-0.29696410894394,9.80830287933350,-5.37318801879883,0.00957972370088,-0.27792727947235
171,875791306,-1.05644989013672,-1.27216506004333,22.81995582580566,0.21964299678802,-0.29169884324074,9.78203487396240,-5.44349861145020,0.04674597829580,-0.18054191768169
172,875799639,-1.05566978454590,-1.27192115783691,22.81942367553711,0.22120629251003,-0.27568471431732,9.78693962097168,-5.30497741699219,0.12469010800123,-0.36135283112526
173,875807972,-1.05592775344849,-1.27170300483704,22.81908988952637,0.19379502534866,-0.27162402868271,9.80594062805176,-5.40110731124878,0.11936234682798,-0.33233189582825
174,875816305,-1.05560123920441,-1.27223706245422,22.81825447082520,0.20372039079666,-0.27671793103218,9.78397750854492,-5.35807514190674,0.03140305355191,-0.39836537837982
175,875824638,-1.05643439292908,-1.27245438098907,22.81902694702148,0.21247923374176,-0.29051008820534,9.78043270111084,-5.46493864059448,0.06362576037645,-0.18999360501766
176,875832971,-1.05653607845306,-1.27252542972565,22.81919479370117,0.21182978153229,-0.28931090235710,9.75991058349609,-5.40776681900024,0.08411714434624,-0.27744057774544
177,875841304,-1.05658686161041,-1.27235507965088,22.81887245178223,0.21087865531445,-0.26707908511162,9.80324459075928,-5.37416124343872,0.11395774781704,-0.31760370731354
178,875849637,-1.05671966075897,-1.27225708961487,22.81838035583496,0.24155806005001,-0.29018467664719,9.77660751342773,-5.41340208053589,0.10596608370543,-0.35520538687706
179,875857970,-1.05771064758301,-1.27239668369293,22.81812286376953,0.22217984497547,-0.28156012296677,9.78664684295654,-5.48768281936646,0.07650972157717,-0.32124090194702
180,875866303,-1.05758416652679,-1.27257573604584,22.81800651550293,0.21645882725716,-0.26696163415909,9.78602695465088,-5.38156366348267,0.07138687372208,-0.31145632266998
181,875874636,-1.05832910537720,-1.27151048183441,22.81796455383301,0.19412851333618,-0.28544077277184,9.82377719879150,-5.45617818832397,0.22051297128201,-0.29462775588036
182,875882969,-1.05871784687042,-1.27184820175171,22.81805038452148,0.22717344760895,-0.28134247660637,9.78590869903564,-5.44290971755981,0.05186882615089,-0.28778874874115
183,875891302,-1.05925977230072,-1.27210152149200,22.81814765930176,0.23349635303020,-0.29871839284897,9.79327678680420,-5.43317651748657,0.06311347335577,-0.28991472721100
184,875899635,-1.05845546722412,-1.27257061004639,22.81868553161621,0.22130964696407,-0.29642894864082,9.79444026947021,-5.29731750488281,0.03611607104540,-0.23330722749233
185,875907968,-1.05759894847870,-1.27236533164978,22.81855010986328,0.22953511774540,-0.28619137406349,9.80716228485107,-5.26586389541626,0.11710827797651,-0.29913583397865
186,875916301,-1.05767107009888,-1.27233397960663,22.81916618347168,0.22649823129177,-0.26220196485519,9.79934883117676,-5.40307998657227,0.09472144395113,-0.22439351677895
187,875924634,-1.05799674987793,-1.27194106578827,22.81854248046875,0.24461708962917,-0.28606760501862,9.75944995880127,-5.40725469589233,0.14100638031960,-0.36140409111977
188,875932967,-1.05743157863617,-1.27133297920227,22.81853866577148,0.23427346348763,-0.28924158215523,9.80470943450928,-5.32882404327393,0.16603149473667,-0.29524248838425
189,875941300,-1.05652594566345,-1.27034962177277,22.81822013854980,0.21157090365887,-0.28785207867622,9.77816581726074,-5.26051092147827,0.21213708817959,-0.31745001673698
190,875949633,-1.05692875385284,-1.27100598812103,22.81833457946777,0.21347287297249,-0.28617447614670,9.79446792602539,-5.44306373596191,0.01383168809116,-0.28620067238808
191,875957966,-1.05766785144806,-1.26999759674072,22.81839561462402,0.21522741019726,-0.29588291049004,9.78697872161865,-5.45891857147217,0.21400693058968,-0.29099053144455
192,875966299,-1.05746388435364,-1.26955819129944,22.81936645507812,0.22450351715088,-0.28238579630852,9.76684570312500,-5.36860322952271,0.14331166446209,-0.18064439296722
193,875974632,-1.05759704113007,-1.27017092704773,22.81927490234375,0.21729621291161,-0.27116218209267,9.80854225158691,-5.38315153121948,0.01862155087292,-0.30144113302231
194,875982965,-1.05819785594940,-1.26954686641693,22.81939315795898,0.22460672259331,-0.29772254824638,9.81953811645508,-5.46860074996948,0.16805501282215,-0.28153887391090
195,875991298,-1.05776739120483,-1.26977527141571,22.81847000122070,0.21941781044006,-0.28677621483803,9.78802871704102,-5.31622171401978,0.06613595783710,-0.39431837201118
196,875999631,-1.05793905258179,-1.26884078979492,22.81780433654785,0.21044594049454,-0.30470907688141,9.81136608123779,-5.41865301132202,0.20809005200863,-0.37572240829468
197,876007964,-1.05801045894623,-1.26819527149200,22.81695556640625,0.21570441126823,-0.29080170392990,9.80400943756104,-5.37910461425781,0.17182028293610,-0.36821740865707
198,876016297,-1.05823564529419,-1.26834595203400,22.81620216369629,0.22555002570152,-0.31022152304649,9.80768489837646,-5.42464685440063,0.07612551003695,-0.38755616545677
199,876024630,-1.05810320377350,-1.26838040351868,22.81494903564453,0.21824301779270,-0.28994506597519,9.81285572052002,-5.35302877426147,0.09100737422705,-0.43396914005280
200,876032963,-1.05763566493988,-1.26797676086426,22.81437873840332,0.22281216084957,-0.29585504531860,9.77980136871338,-5.34168243408203,0.14259444177151,-0.36511811614037
201,876041296,-1.05738759040833,-1.26761543750763,22.81440734863281,0.21146301925182,-0.30086994171143,9.79209423065186,-5.33814764022827,0.13644704222679,-0.29193827509880
202,876049629,-1.05684590339661,-1.26855754852295,22.81334686279297,0.20123147964478,-0.29310414195061,9.80266761779785,-5.33379364013672,-0.01868558488786,-0.42695090174675
203,876057962,-1.05765271186829,-1.26861739158630,22.81354331970215,0.21170100569725,-0.29377827048302,9.77348041534424,-5.46363210678101,0.08539786934853,-0.27052474021912
204,876066295,-1.05773544311523,-1.26890254020691,22.81278419494629,0.19219182431698,-0.28736445307732,9.78379631042480,-5.40781831741333,0.06065450981259,-0.38806846737862
205,876074628,-1.05795133113861,-1.26927793025970,22.81241798400879,0.21671847999096,-0.27518770098686,9.81192493438721,-5.39411449432373,0.04825721681118,-0.32523673772812
206,876082961,-1.05803906917572,-1.26960253715515,22.81250762939453,0.23713614046574,-0.28781184554100,9.78843688964844,-5.40738248825073,0.05325199291110,-0.28814733028412
207,876091294,-1.05859827995300,-1.26975262165070,22.81324958801270,0.22246482968330,-0.28905883431435,9.80250644683838,-5.43179368972778,0.07341039925814,-0.20364598929882
208,876099627,-1.05855119228363,-1.26981985569000,22.81311225891113,0.22830176353455,-0.28286972641945,9.82460498809814,-5.39122009277344,0.08534662425518,-0.31309556961060
209,876107960,-1.05868458747864,-1.26968991756439,22.81357383728027,0.22921420633793,-0.26447972655296,9.79175090789795,-5.38246011734009,0.10775909572840,-0.23156547546387
210,876116293,-1.05827915668488,-1.27070164680481,22.81316947937012,0.20683652162552,-0.29458543658257,9.80710124969482,-5.34818840026855,-0.02731758356094,-0.34793096780777
211,876124626,-1.05785429477692,-1.27063477039337,22.81235313415527,0.22387684881687,-0.27220967411995,9.80226898193359,-5.31906509399414,0.10184220224619,-0.38366281986237
212,876132959,-1.05815613269806,-1.27007865905762,22.81170463562012,0.21238781511784,-0.27905231714249,9.81457901000977,-5.43386793136597,0.16062687337399,-0.37428808212280
213,876141292,-1.05893957614899,-1.27062749862671,22.81094741821289,0.22004498541355,-0.28708139061928,9.79808807373047,-5.46406698226929,0.02963566780090,-0.38957965373993
214,876149625,-1.05866754055023,-1.27058386802673,22.81188964843750,0.20480169355869,-0.30815434455872,9.77888011932373,-5.36135387420654,0.09605338424444,-0.18330827355385
215,876157958,-1.05831170082092,-1.27063143253326,22.81212425231934,0.21573874354362,-0.28915742039680,9.78307151794434,-5.32377815246582,0.08601261675358,-0.25710287690163
216,876166291,-1.05787456035614,-1.27031779289246,22.81171989440918,0.22737495601177,-0.27786186337471,9.80733966827393,-5.34519147872925,0.13175962865353,-0.34501093626022
217,876174624,-1.05707728862762,-1.27011013031006,22.81166076660156,0.21947067975998,-0.29221656918526,9.80311870574951,-5.27049970626831,0.11805600672960,-0.29882845282555
218,876182957,-1.05715274810791,-1.27108180522919,22.81145858764648,0.23541577160358,-0.28938853740692,9.78338527679443,-5.40610170364380,-0.02391088753939,-0.32405850291252
219,876191290,-1.05777454376221,-1.27130818367004,22.81259918212891,0.22943040728569,-0.28865194320679,9.75567054748535,-5.44039964675903,0.06388190388680,-0.15887229144573
220,876199623,-1.05661261081696,-1.27225553989410,22.81248092651367,0.23637361824512,-0.29556158185005,9.77215766906738,-5.25718069076538,-0.02134946361184,-0.31371033191681
221,876207956,-1.05669546127319,-1.27234697341919,22.81190299987793,0.21046428382397,-0.27216494083405,9.79566764831543,-5.37736272811890,0.08329748362303,-0.34434497356415
222,876216289,-1.05615544319153,-1.27277624607086,22.81281280517578,0.20552660524845,-0.27725550532341,9.77887630462646,-5.32941246032715,0.04029119014740,-0.18861041963100
223,876224622,-1.05598235130310,-1.27347993850708,22.81225776672363,0.21221847832203,-0.28581058979034,9.79898643493652,-5.34823989868164,0.00952849630266,-0.36901149153709
224,876232955,-1.05583894252777,-1.27418196201324,22.81267166137695,0.20834052562714,-0.30018827319145,9.78750133514404,-5.37851572036743,0.00809409748763,-0.24982841312885
225,876241288,-1.05557739734650,-1.27478849887848,22.81271553039551,0.20773144066334,-0.26396033167839,9.79565525054932,-5.33620119094849,0.01967173442245,-0.28038620948792
226,876249621,-1.05527508258820,-1.27489638328552,22.81344604492188,0.20911270380020,-0.29422867298126,9.81507873535156,-5.35735797882080,0.07873815298080,-0.20905059576035
227,876257954,-1.05513679981232,-1.27516484260559,22.81368446350098,0.20813247561455,-0.26845607161522,9.80470275878906,-5.34836721420288,0.05929695442319,-0.25669306516647
228,876266287,-1.05517041683197,-1.27477288246155,22.81376838684082,0.23029607534409,-0.28241053223610,9.77747535705566,-5.39977502822876,0.13946950435638,-0.28750699758530
229,876274620,-1.05492031574249,-1.27575278282166,22.81406593322754,0.22047407925129,-0.29512080550194,9.78416252136230,-5.33855724334717,-0.02565265446901,-0.25874218344688
230,876282953,-1.05486738681793,-1.27576720714569,22.81410026550293,0.22084398567677,-0.28875347971916,9.80816459655762,-5.38927412033081,0.09162212908268,-0.29365441203117
231,876291286,-1.05451858043671,-1.27619230747223,22.81315994262695,0.20642988383770,-0.27622303366661,9.78245353698730,-5.32800436019897,0.04336490109563,-0.39672610163689
232,876299619,-1.05510818958282,-1.27653586864471,22.81251144409180,0.22384884953499,-0.29092681407928,9.79536247253418,-5.46865224838257,0.05297024175525,-0.37521013617516
233,876307952,-1.05480778217316,-1.27705955505371,22.81192970275879,0.22597323358059,-0.29689082503319,9.78791713714600,-5.33279466629028,0.03017357178032,-0.35392469167709
234,876316285,-1.05558669567108,-1.27622592449188,22.81176757812500,0.23250937461853,-0.29005905985832,9.78467082977295,-5.49009132385254,0.19441206753254,-0.31501668691635
235,876324618,-1.05583918094635,-1.27584457397461,22.81161880493164,0.21893765032291,-0.29926320910454,9.79867744445801,-5.39752149581909,0.13982811570168,-0.30997067689896
236,876332951,-1.05538654327393,-1.27544713020325,22.81119918823242,0.20141847431660,-0.29119586944580,9.80396461486816,-5.34204101562500,0.14072459936142,-0.34624043107033
237,876341284,-1.05570483207703,-1.27519595623016,22.81086349487305,0.23046450316906,-0.27532523870468,9.80721282958984,-5.40602493286133,0.12435711920261,-0.33340770006180
238,876349617,-1.05503511428833,-1.27395510673523,22.81081008911133,0.23428454995155,-0.28284609317780,9.79246807098389,-5.31665754318237,0.24118363857269,-0.30210712552071
239,876357950,-1.05523049831390,-1.27370274066925,22.81020164489746,0.21135297417641,-0.29797217249870,9.79499340057373,-5.39342308044434,0.12453641742468,-0.36560478806496
240,876366283,-1.05546867847443,-1.27358424663544,22.81145286560059,0.21712696552277,-0.27326157689095,9.80159759521484,-5.41985702514648,0.10522327572107,-0.14578342437744
241,876374616,-1.05558156967163,-1.27378201484680,22.81210517883301,0.21906383335590,-0.28250163793564,9.78856086730957,-5.37933540344238,0.06659701466560,-0.20502915978432
242,876382949,-1.05520081520081,-1.27429842948914,22.81198501586914,0.20575767755508,-0.26752471923828,9.79798507690430,-5.35018634796143,0.03050655312836,-0.31432509422302
243,876391282,-1.05535638332367,-1.27379143238068,22.81250190734863,0.21277391910553,-0.30149722099304,9.80062198638916,-5.38468837738037,0.15406963229179,-0.21827168762684
244,876399615,-1.05568945407867,-1.27281367778778,22.81324958801270,0.21235249936581,-0.28540548682213,9.80499267578125,-5.43427801132202,0.20788513123989,-0.20502915978432
245,876407948,-1.05602741241455,-1.27335250377655,22.81377410888672,0.21484981477261,-0.28068774938583,9.80901145935059,-5.40592241287231,0.02745845727623,-0.22572542726994
246,876416281,-1.05695664882660,-1.27375149726868,22.81367874145508,0.20077055692673,-0.28966477513313,9.77899551391602,-5.50722742080688,0.04577264189720,-0.31135386228561
247,876424614,-1.05690813064575,-1.27404105663300,22.81366539001465,0.20577484369278,-0.29861754179001,9.79353237152100,-5.36217355728149,0.05735027790070,-0.28694349527359
248,876432947,-1.05723130702972,-1.27369427680969,22.81331062316895,0.22882707417011,-0.28156110644341,9.82069396972656,-5.43548154830933,0.13549931347370,-0.33958074450493
249,876441280,-1.05738687515259,-1.27452051639557,22.81319046020508,0.21722775697708,-0.27515265345573,9.80975627899170,-5.38527727127075,-0.00646759383380,-0.30021163821220
250,876449613,-1.05756819248199,-1.27422618865967,22.81320762634277,0.21004658937454,-0.26606157422066,9.77705955505371,-5.41721916198730,0.12922382354736,-0.29516562819481
251,876457946,-1.05700802803040,-1.27362763881683,22.81244087219238,0.21788084506989,-0.28751799464226,9.78197860717773,-5.30346584320068,0.16533990204334,-0.38199788331985
252,876466279,-1.05742824077606,-1.27298116683960,22.81212615966797,0.20391122996807,-0.27961051464081,9.78940105438232,-5.44634151458740,0.17187151312828,-0.33504697680473
253,876474612,-1.05732023715973,-1.27285158634186,22.81203651428223,0.19905103743076,-0.27607375383377,9.78956508636475,-5.35477161407471,0.10837383568287,-0.29457649588585
254,876482945,-1.05693149566650,-1.27337408065796,22.81202697753906,0.21102222800255,-0.29063796997070,9.80037307739258,-5.34985303878784,0.03063462302089,-0.29980179667473
255,876491278,-1.05678427219391,-1.27320671081543,22.81182670593262,0.22443434596062,-0.28998145461082,9.79911518096924,-5.35169744491577,0.11247210949659,-0.32095918059349
256,876499611,-1.05669367313385,-1.27268707752228,22.81228828430176,0.21284571290016,-0.30554082989693,9.79082775115967,-5.38402271270752,0.15460751950741,-0.24019747972488
257,876507944,-1.05598807334900,-1.27280580997467,22.81171989440918,0.23033636808395,-0.28042334318161,9.77073478698730,-5.28279542922974,0.07963465899229,-0.35904756188393
258,876516277,-1.05573487281799,-1.27317476272583,22.81128120422363,0.23113808035851,-0.28474205732346,9.74501323699951,-5.36560630798340,0.05002460256219,-0.35156816244125
259,876524610,-1.05612170696259,-1.27357530593872,22.81119537353516,0.21604903042316,-0.27608188986778,9.80573081970215,-5.41593790054321,0.04346735775471,-0.29426914453506
260,876532943,-1.05571877956390,-1.27352058887482,22.81143951416016,0.21419115364552,-0.28361922502518,9.80363082885742,-5.34619092941284,0.10058710724115,-0.26855245232582
261,876541276,-1.05564153194427,-1.27413952350616,22.81116867065430,0.22332759201527,-0.29965472221375,9.77755928039551,-5.35943317413330,0.01775066554546,-0.31842336058617
262,876549609,-1.05605590343475,-1.27445018291473,22.81158638000488,0.21306541562080,-0.29402637481689,9.78505992889404,-5.44480514526367,0.05494253337383,-0.24770246446133
263,876557942,-1.05701220035553,-1.27493047714233,22.81231307983398,0.20874482393265,-0.28646510839462,9.78004169464111,-5.47984552383423,0.03309359401464,-0.20812848210335
264,876566275,-1.05689835548401,-1.27423191070557,22.81199836730957,0.19839701056480,-0.28578400611877,9.77263927459717,-5.38286972045898,0.17814700305462,-0.33379188179970
265,876574608,-1.05743420124054,-1.27361917495728,22.81196403503418,0.21226865053177,-0.29702579975128,9.78546714782715,-5.43215179443359,0.16590340435505,-0.28712278604507
266,876582941,-1.05741047859192,-1.27365243434906,22.81201553344727,0.22450785338879,-0.28241604566574,9.79604339599609,-5.39316701889038,0.08923999965191,-0.29224565625191
267,876591274,-1.05750203132629,-1.27420830726624,22.81152153015137,0.20070315897465,-0.26115876436234,9.80230140686035,-5.37948894500732,0.02761214785278,-0.34478041529655
268,876599607,-1.05741894245148,-1.27464866638184,22.81087875366211,0.21215380728245,-0.29260200262070,9.78636074066162,-5.38714790344238,0.04159751906991,-0.37574803829193
269,876607940,-1.05710220336914,-1.27381861209869,22.81102180480957,0.22203081846237,-0.28982990980148,9.78337192535400,-5.32754373550415,0.19162011146545,-0.26360890269279
270,876616273,-1.05616033077240,-1.27380585670471,22.81070899963379,0.22768548130989,-0.28468063473701,9.80795097351074,-5.28428077697754,0.09474705904722,-0.33550807833672
271,876624606,-1.05600881576538,-1.27346146106720,22.81103324890137,0.22634989023209,-0.29070034623146,9.78576850891113,-5.34708690643311,0.13280981779099,-0.25274845957756
272,876632939,-1.05555093288422,-1.27320659160614,22.81085395812988,0.21770931780338,-0.28850257396698,9.78589057922363,-5.34181022644043,0.12430589646101,-0.31896126270294
273,876641272,-1.05545794963837,-1.27426683902740,22.80975914001465,0.22071693837643,-0.27047395706177,9.81305503845215,-5.35907459259033,-0.03215867280960,-0.41696134209633
274,876649605,-1.05559134483337,-1.27392947673798,22.80910301208496,0.19820615649223,-0.28840285539627,9.79868221282959,-5.41337680816650,0.13565300405025,-0.37510770559311
275,876657938,-1.05539608001709,-1.27434647083282,22.80949974060059,0.22071325778961,-0.29162368178368,9.78839206695557,-5.34116983413696,0.04070102050900,-0.24716456234455
276,876666271,-1.05578196048737,-1.27403402328491,22.80972862243652,0.20192097127438,-0.29569542407990,9.81171894073486,-5.44086122512817,0.12976172566414,-0.26755350828171
277,876674604,-1.05590152740479,-1.27467966079712,22.80947113037109,0.21247708797455,-0.28545829653740,9.80561828613281,-5.38363790512085,0.01667486689985,-0.31335175037384
278,876682937,-1.05527496337891,-1.27498877048492,22.80996704101562,0.21900027990341,-0.27742847800255,9.81030654907227,-5.31886053085327,0.05476323887706,-0.23804591596127
279,876691270,-1.05508673191071,-1.27514648437500,22.80982589721680,0.22570504248142,-0.28087094426155,9.77017784118652,-5.34480762481689,0.07463987916708,-0.31657913327217
280,876699603,-1.05474174022675,-1.27463233470917,22.80991172790527,0.22497791051865,-0.29282796382904,9.78065395355225,-5.35507822036743,0.15294258296490,-0.28602135181427
281,876707936,-1.05526447296143,-1.27413439750671,22.80935859680176,0.22785623371601,-0.28242141008377,9.78359222412109,-5.42969274520874,0.15458190441132,-0.35546153783798
282,876716269,-1.05549097061157,-1.27429473400116,22.80945396423340,0.21143618226051,-0.28554812073708,9.78687953948975,-5.42285346984863,0.07412759214640,-0.28497114777565
283,876724602,-1.05535542964935,-1.27360439300537,22.80983352661133,0.23039108514786,-0.27902972698212,9.79924297332764,-5.34957170486450,0.17320345342159,-0.23973643779755
284,876732935,-1.05547416210175,-1.27369952201843,22.80963706970215,0.21056546270847,-0.30516225099564,9.79529857635498,-5.41043043136597,0.08311818540096,-0.32036998867989
285,876741268,-1.05517721176147,-1.27422988414764,22.80956077575684,0.22044396400452,-0.29356929659843,9.82245254516602,-5.33246088027954,0.02858548983932,-0.30259376764297
286,876749601,-1.05515062808990,-1.27508795261383,22.80925941467285,0.21289561688900,-0.29207870364189,9.78225421905518,-5.39332056045532,-0.00861919019371,-0.33376628160477
287,876757934,-1.05567121505737,-1.27570629119873,22.80892181396484,0.21611040830612,-0.29042100906372,9.75340843200684,-5.42956447601318,0.01772505231202,-0.31924298405647
288,876766267,-1.05559921264648,-1.27472579479218,22.80891227722168,0.21357293426991,-0.29047089815140,9.79959678649902,-5.38701963424683,0.21152234077454,-0.29626703262329
289,876774600,-1.05529808998108,-1.27567052841187,22.80884361267090,0.21793183684349,-0.28443205356598,9.80788421630859,-5.33094882965088,-0.02065787836909,-0.28794240951538
290,876782933,-1.05504882335663,-1.27614831924438,22.80898666381836,0.21981704235077,-0.29494717717171,9.79647350311279,-5.36601591110229,0.03491220623255,-0.28038620948792
291,876791266,-1.05568957328796,-1.27584600448608,22.80920600891113,0.22546868026257,-0.27660325169563,9.78920936584473,-5.44214153289795,0.12830170989037,-0.25105792284012
292,876799599,-1.05627465248108,-1.27555847167969,22.80855560302734,0.20877677202225,-0.28632953763008,9.78283977508545,-5.46752452850342,0.12937751412392,-0.37431362271309
293,876807932,-1.05628240108490,-1.27639019489288,22.80834388732910,0.22052635252476,-0.30646294355392,9.78750610351562,-5.36773204803467,-0.00662127928808,-0.31324931979179
294,876816265,-1.05609071254730,-1.27671897411346,22.80780792236328,0.21139378845692,-0.28334066271782,9.80228710174561,-5.37472438812256,0.05366182699800,-0.36194193363190
295,876824598,-1.05589389801025,-1.27699100971222,22.80715370178223,0.20854809880257,-0.28396892547607,9.78600597381592,-5.34585762023926,0.06203767657280,-0.36580970883369
296,876832931,-1.05613124370575,-1.27715206146240,22.80768203735352,0.21070696413517,-0.29200360178947,9.76743507385254,-5.42310953140259,0.07236021012068,-0.23515146970749
297,876841264,-1.05616927146912,-1.27729129791260,22.80777168273926,0.19934538006783,-0.26978570222855,9.79319286346436,-5.37149715423584,0.07571567595005,-0.27723568677902
298,876849597,-1.05627560615540,-1.27667224407196,22.80822944641113,0.20626495778561,-0.28295549750328,9.78722476959229,-5.40792036056519,0.16615954041481,-0.24135012924671
299,876857930,-1.05561101436615,-1.27694225311279,22.80736541748047,0.20548650622368,-0.28573194146156,9.75063991546631,-5.28802061080933,0.06206328794360,-0.38222843408585
300,876866263,-1.05446493625641,-1.27687275409698,22.80670166015625,0.21918299794197,-0.29372584819794,9.78755378723145,-5.26071548461914,0.10271307080984,-0.37772029638290
301,876874596,-1.05487871170044,-1.27596914768219,22.80670356750488,0.22591306269169,-0.28285098075867,9.78356361389160,-5.41527223587036,0.20061068236828,-0.28148764371872
302,876882929,-1.05393040180206,-1.27572154998779,22.80738258361816,0.22386585175991,-0.28327682614326,9.80597686767578,-5.28000354766846,0.12092480808496,-0.21573591232300
303,876891262,-1.05425369739532,-1.27603650093079,22.80698585510254,0.21659255027771,-0.27130517363548,9.77964591979980,-5.40571689605713,0.05471200495958,-0.32352057099342
304,876899595,-1.05408310890198,-1.27570044994354,22.80664825439453,0.20460687577724,-0.28808441758156,9.78747940063477,-5.37610816955566,0.13434666395187,-0.33699369430542
305,876907928,-1.05348789691925,-1.27504110336304,22.80636787414551,0.21886059641838,-0.28865858912468,9.81956672668457,-5.29793310165405,0.17263993620872,-0.32024198770523
306,876916261,-1.05305242538452,-1.27507269382477,22.80575752258301,0.20262686908245,-0.27540609240532,9.78576660156250,-5.34562730789185,0.09070000797510,-0.37088131904602
307,876924594,-1.05344724655151,-1.27523732185364,22.80534172058105,0.23031325638294,-0.28231745958328,9.77723884582520,-5.41563034057617,0.07461426407099,-0.34342283010483
308,876932927,-1.05347609519958,-1.27546513080597,22.80555534362793,0.21461030840874,-0.27493590116501,9.78526592254639,-5.39887809753418,0.06490647047758,-0.27042227983475
309,876941260,-1.05302107334137,-1.27435958385468,22.80552291870117,0.21018202602863,-0.28272926807404,9.80882549285889,-5.31394243240356,0.22591757774353,-0.27697953581810
310,876949593,-1.05251979827881,-1.27359032630920,22.80683898925781,0.21656206250191,-0.27993971109390,9.79136657714844,-5.33164167404175,0.18298810720444,-0.13743318617344
311,876957926,-1.05228638648987,-1.27360701560974,22.80734062194824,0.21690940856934,-0.28304815292358,9.78238677978516,-5.33776283264160,0.08883016556501,-0.22892720997334
312,876966259,-1.05146110057831,-1.27412366867065,22.80744743347168,0.20626479387283,-0.28440347313881,9.78242778778076,-5.29719018936157,0.03078830800951,-0.28558591008186
313,876974592,-1.05105078220367,-1.27246928215027,22.80812072753906,0.23153676092625,-0.26835837960243,9.78701686859131,-5.31514596939087,0.28995314240456,-0.20151999592781
314,876982925,-1.05111515522003,-1.27239966392517,22.80827522277832,0.21626074612141,-0.27747523784637,9.79541492462158,-5.40225982666016,0.09935761243105,-0.27902865409851
315,876991258,-1.05117714405060,-1.27270305156708,22.80833244323730,0.22656857967377,-0.29195967316628,9.80038738250732,-5.37449359893799,0.05668430775404,-0.28059113025665
316,876999591,-1.05120480060577,-1.27303791046143,22.80850028991699,0.22513289749622,-0.29237392544746,9.80265522003174,-5.39805936813354,0.05391796305776,-0.27751743793488
317,877007924,-1.05107235908508,-1.27355372905731,22.80781555175781,0.20178839564323,-0.29694104194641,9.78730964660645,-5.35208129882812,0.03219709172845,-0.36501562595367
318,877016257,-1.05061507225037,-1.27432096004486,22.80755996704102,0.20387715101242,-0.28843387961388,9.82736110687256,-5.34188652038574,-0.00014087829913,-0.32918131351471
319,877024590,-1.05045402050018,-1.27358281612396,22.80745697021484,0.20524391531944,-0.28280529379845,9.80455493927002,-5.34777832031250,0.18180982768536,-0.29227125644684
320,877032923,-1.05038547515869,-1.27303433418274,22.80729866027832,0.20995444059372,-0.27939945459366,9.78349208831787,-5.38807010650635,0.15885947644711,-0.31483736634254
321,877041256,-1.05097508430481,-1.27333068847656,22.80699920654297,0.23549574613571,-0.27600431442261,9.82013702392578,-5.43794059753418,0.05796501412988,-0.32864347100258
322,877049589,-1.05059134960175,-1.27336347103119,22.80736732482910,0.24215267598629,-0.27022331953049,9.80859375000000,-5.34870052337646,0.08806173503399,-0.25151899456978
323,877057922,-1.05027389526367,-1.27364337444305,22.80765914916992,0.20579493045807,-0.27987042069435,9.78131484985352,-5.32782506942749,0.05732466280460,-0.25502812862396
324,877066255,-1.04994153976440,-1.27402758598328,22.80742645263672,0.21575267612934,-0.27536660432816,9.78264045715332,-5.35687208175659,0.04805230721831,-0.32551851868629
325,877074588,-1.05016613006592,-1.27349638938904,22.80808830261230,0.21049970388412,-0.30017256736755,9.79153823852539,-5.39252662658691,0.15396717190742,-0.21471135318279
326,877082921,-1.05096054077148,-1.27349340915680,22.80798912048340,0.20331956446171,-0.28053426742554,9.78287696838379,-5.49175596237183,0.09515688568354,-0.30961206555367
327,877091254,-1.05115246772766,-1.27362680435181,22.80770683288574,0.20945417881012,-0.29811146855354,9.80024909973145,-5.39011907577515,0.07561322301626,-0.31622055172920
328,877099587,-1.05072689056396,-1.27323698997498,22.80875396728516,0.20123051106930,-0.27576005458832,9.76609611511230,-5.34198999404907,0.13818880915642,-0.17044994235039
329,877107920,-1.05083310604095,-1.27406203746796,22.80866241455078,0.20286518335342,-0.27974459528923,9.78290271759033,-5.38194847106934,-0.00690303696319,-0.29713794589043
330,877116253,-1.05154514312744,-1.27448487281799,22.80962944030762,0.22870323061943,-0.30437994003296,9.80373954772949,-5.47802591323853,0.04039364680648,-0.18312896788120
331,877124586,-1.05108165740967,-1.27512979507446,22.81012344360352,0.23324163258076,-0.30514395236969,9.78597545623779,-5.30994606018066,0.01452327147126,-0.22288228571415
332,877132919,-1.05116748809814,-1.27548658847809,22.81037712097168,0.22295293211937,-0.26461794972420,9.82567596435547,-5.40615320205688,0.05053688213229,-0.26627275347710
333,877141252,-1.05106210708618,-1.27443814277649,22.81051445007324,0.23402351140976,-0.27884811162949,9.79376506805420,-5.35374641418457,0.21741361916065,-0.27147242426872
334,877149585,-1.05113291740417,-1.27402842044830,22.81048202514648,0.21366415917873,-0.27972245216370,9.81211757659912,-5.40525674819946,0.14187724888325,-0.29941761493683
335,877157918,-1.05196154117584,-1.27542805671692,22.81058883666992,0.20848281681538,-0.28840419650078,9.79135417938232,-5.46647500991821,-0.07588216662407,-0.27283000946045
336,877166251,-1.05197215080261,-1.27495455741882,22.81100845336914,0.21731325984001,-0.29789659380913,9.80042362213135,-5.39616346359253,0.14907485246658,-0.24637052416801
337,877174584,-1.05173492431641,-1.27462732791901,22.81098175048828,0.19763895869255,-0.28988581895828,9.81980895996094,-5.33899307250977,0.13260489702225,-0.29877722263336
338,877182917,-1.05208456516266,-1.27544903755188,22.81071090698242,0.21936516463757,-0.28168261051178,9.79806804656982,-5.43863201141357,-0.00375248561613,-0.33102557063103
339,877191250,-1.05233526229858,-1.27583670616150,22.81116485595703,0.21846649050713,-0.30614858865738,9.78299331665039,-5.39529323577881,0.04251963272691,-0.23246198892593
340,877199583,-1.05185914039612,-1.27631866931915,22.81207275390625,0.20192612707615,-0.30890956521034,9.79757595062256,-5.33591938018799,0.03445114940405,-0.18909710645676
341,877207916,-1.05212593078613,-1.27700984477997,22.81264686584473,0.20473505556583,-0.27771955728531,9.79638004302979,-5.39903259277344,0.00745374243706,-0.22505946457386
342,877216249,-1.05199801921844,-1.27782857418060,22.81303787231445,0.24615994095802,-0.29732123017311,9.79417610168457,-5.37920713424683,-0.00567355332896,-0.25108352303505
343,877224582,-1.05197799205780,-1.27798092365265,22.81273269653320,0.22686365246773,-0.29497325420380,9.78347015380859,-5.36621999740601,0.07589496672153,-0.32157388329506
344,877232915,-1.05221676826477,-1.27850306034088,22.81306076049805,0.23745244741440,-0.27753600478172,9.79943466186523,-5.42398023605347,0.02896969392896,-0.25879341363907
345,877241248,-1.05178427696228,-1.27760231494904,22.81305694580078,0.21523550152779,-0.28301373124123,9.80805206298828,-5.31617116928101,0.20127667486668,-0.28886458277702
346,877249581,-1.05098986625671,-1.27649962902069,22.81289672851562,0.20397455990314,-0.27855387330055,9.76098155975342,-5.30093050003052,0.22540526092052,-0.31271138787270
347,877257914,-1.05179178714752,-1.27577364444733,22.81324768066406,0.22409750521183,-0.29623493552208,9.80258560180664,-5.46227407455444,0.17953015863895,-0.24662669003010
348,877266247,-1.05122447013855,-1.27602756023407,22.81342697143555,0.21040540933609,-0.29084536433220,9.79248332977295,-5.32767057418823,0.06265241652727,-0.27516090869904
349,877274580,-1.05145657062531,-1.27617156505585,22.81349182128906,0.22468243539333,-0.25934451818466,9.76794815063477,-5.39403724670410,0.07407636195421,-0.29037576913834
350,877282913,-1.05097424983978,-1.27611148357391,22.81339645385742,0.23093585669994,-0.26750135421753,9.81217098236084,-5.33837795257568,0.10115060955286,-0.30879241228104
351,877291246,-1.05155694484711,-1.27615165710449,22.81307411193848,0.21502560377121,-0.26729226112366,9.80321693420410,-5.43804359436035,0.08767753839493,-0.33407372236252
352,877299579,-1.05230855941772,-1.27607154846191,22.81274795532227,0.19918733835220,-0.28889775276184,9.80449008941650,-5.48650503158569,0.10350712388754,-0.33596909046173
353,877307912,-1.05236434936523,-1.27556002140045,22.81204795837402,0.20050896704197,-0.28542897105217,9.77249526977539,-5.37387943267822,0.15547841787338,-0.37536382675171
354,877316245,-1.05253911018372,-1.27569890022278,22.81227874755859,0.21451649069786,-0.28826037049294,9.81393814086914,-5.41639804840088,0.07715007662773,-0.27034538984299
355,877324578,-1.05267620086670,-1.27584850788116,22.81189918518066,0.23651483654976,-0.30317312479019,9.78575611114502,-5.38271617889404,0.07405075430870,-0.33164033293724
356,877332911,-1.05304789543152,-1.27574229240417,22.81191825866699,0.21500544250011,-0.27489301562309,9.79131221771240,-5.44042539596558,0.10619661957026,-0.29303967952728
357,877341244,-1.05353164672852,-1.27556073665619,22.81152153015137,0.22836248576641,-0.29730299115181,9.79701137542725,-5.42613220214844,0.11426510661840,-0.33532878756523
358,877349577,-1.05349326133728,-1.27663838863373,22.81218338012695,0.21041704714298,-0.29965576529503,9.79323768615723,-5.38927364349365,-0.03748643398285,-0.22021840512753
359,877357910,-1.05364215373993,-1.27577972412109,22.81169509887695,0.19847761094570,-0.28459873795509,9.82330989837646,-5.38584136962891,0.19530855119228,-0.33274173736572
360,877366243,-1.05349123477936,-1.27573931217194,22.81179809570312,0.20574615895748,-0.28277894854546,9.76175212860107,-5.37802934646606,0.09899901598692,-0.28543224930763
361,877374576,-1.05404424667358,-1.27519285678864,22.81221580505371,0.21419027447701,-0.29075738787651,9.78760814666748,-5.43243312835693,0.15727138519287,-0.24152942001820
362,877382909,-1.05376827716827,-1.27465605735779,22.81246757507324,0.20645648241043,-0.29764533042908,9.79835510253906,-5.36263418197632,0.15650297701359,-0.26617032289505
363,877391242,-1.05467927455902,-1.27437937259674,22.81320762634277,0.22621473670006,-0.27901178598404,9.81333446502686,-5.47479963302612,0.12474133074284,-0.20108455419540
364,877399575,-1.05447745323181,-1.27369225025177,22.81328964233398,0.22097115218639,-0.28452506661415,9.79847526550293,-5.37170219421387,0.17573927342892,-0.28691786527634
365,877407908,-1.05359876155853,-1.27337539196014,22.81277465820312,0.23778750002384,-0.28198865056038,9.80940341949463,-5.26309728622437,0.13134980201721,-0.35710087418556
366,877416241,-1.05399405956268,-1.27335882186890,22.81231117248535,0.22021326422691,-0.27932944893837,9.79892826080322,-5.44483041763306,0.09669373929501,-0.35123521089554
367,877424574,-1.05477094650269,-1.27344572544098,22.81224060058594,0.20628973841667,-0.27992802858353,9.78078842163086,-5.45799589157104,0.08040308207273,-0.29311648011208
368,877432907,-1.05514764785767,-1.27248537540436,22.81174659729004,0.22145439684391,-0.30620524287224,9.77294158935547,-5.44109153747559,0.20955005288124,-0.35371980071068
369,877441240,-1.05558550357819,-1.27292728424072,22.81235885620117,0.20283241569996,-0.28270787000656,9.79680824279785,-5.41709041595459,0.03865187987685,-0.21399414539337
370,877449573,-1.05547821521759,-1.27332162857056,22.81174659729004,0.20212122797966,-0.28004029393196,9.77580833435059,-5.38407373428345,0.04736072197556,-0.37221327424049
371,877457906,-1.05533003807068,-1.27346324920654,22.81155776977539,0.24061094224453,-0.28450036048889,9.78644943237305,-5.35026264190674,0.07545953243971,-0.30804961919785
372,877466239,-1.05487704277039,-1.27361142635345,22.81135749816895,0.21711440384388,-0.28887161612511,9.77488231658936,-5.34132289886475,0.07502408325672,-0.32305952906609
373,877474572,-1.05468261241913,-1.27303576469421,22.81144905090332,0.23009969294071,-0.28832617402077,9.78916072845459,-5.34296274185181,0.16165144741535,-0.28082168102264
374,877482905,-1.05375707149506,-1.27265310287476,22.81111907958984,0.23183873295784,-0.29426968097687,9.78924179077148,-5.28638124465942,0.13908530771732,-0.33394560217857
375,877491238,-1.05310654640198,-1.27240025997162,22.81086158752441,0.20914599299431,-0.28459760546684,9.78338050842285,-5.28994131088257,0.12369114905596,-0.31178927421570
376,877499571,-1.05335652828217,-1.27225923538208,22.81014060974121,0.22667001187801,-0.29489001631737,9.80734825134277,-5.42830944061279,0.11157561838627,-0.38297128677368
377,877507904,-1.05341517925262,-1.27216446399689,22.81000518798828,0.21292367577553,-0.29075407981873,9.79546737670898,-5.37387895584106,0.10486467927694,-0.30013480782509
378,877516237,-1.05324327945709,-1.27173542976379,22.80958175659180,0.22465649247169,-0.28369614481926,9.80330371856689,-5.37685108184814,0.14446429908276,-0.34718814492226
379,877524570,-1.05283415317535,-1.27121353149414,22.80949974060059,0.20812200009823,-0.29096949100494,9.79523849487305,-5.31827116012573,0.15663105249405,-0.30246570706367
380,877532903,-1.05275404453278,-1.27136361598969,22.80949592590332,0.20552061498165,-0.28270447254181,9.78985500335693,-5.38650751113892,0.07387145608664,-0.29885411262512
381,877541236,-1.05215823650360,-1.27144384384155,22.80967712402344,0.21058993041515,-0.27611175179482,9.76597976684570,-5.29462862014771,0.08273397386074,-0.24117080867290
382,877549569,-1.05177628993988,-1.27100336551666,22.80964469909668,0.21675036847591,-0.26905265450478,9.77739334106445,-5.35103130340576,0.14489972591400,-0.29992988705635
383,877557902,-1.05154967308044,-1.27044534683228,22.80921936035156,0.21902824938297,-0.28386166691780,9.81137847900391,-5.33960723876953,0.16098546981812,-0.33343333005905
384,877566235,-1.05161952972412,-1.27100145816803,22.81011390686035,0.23307654261589,-0.27951091527939,9.78744602203369,-5.40259218215942,0.02456405013800,-0.19086444377899
385,877574568,-1.05168175697327,-1.27175450325012,22.81010246276855,0.24644060432911,-0.27208831906319,9.81585884094238,-5.37382745742798,0.00240773777477,-0.28053987026215
386,877582901,-1.05162358283997,-1.27150785923004,22.80973243713379,0.22879914939404,-0.29607349634171,9.80892086029053,-5.38819789886475,0.12261534482241,-0.34016987681389
387,877591234,-1.05209827423096,-1.27122294902802,22.80889129638672,0.22306740283966,-0.27666178345680,9.81636810302734,-5.42661905288696,0.12827609479427,-0.38079407811165
388,877599567,-1.05207216739655,-1.27091026306152,22.80879211425781,0.22269833087921,-0.29970031976700,9.77116012573242,-5.39201402664185,0.13204137980938,-0.30909976363182
389,877607900,-1.05185997486115,-1.27118027210236,22.80905532836914,0.21753895282745,-0.29287028312683,9.79896354675293,-5.34165620803833,0.05947625264525,-0.26506888866425
390,877616233,-1.05224800109863,-1.27110254764557,22.80874443054199,0.21234826743603,-0.27333188056946,9.78238677978516,-5.44344758987427,0.10212395340204,-0.33394560217857
391,877624566,-1.05198264122009,-1.27073919773102,22.80956459045410,0.20539601147175,-0.29688471555710,9.79063606262207,-5.33015537261963,0.13462841510773,-0.18917392194271
392,877632899,-1.05184197425842,-1.27112436294556,22.80990600585938,0.21390044689178,-0.28757649660110,9.78589057922363,-5.37815666198730,0.04623368754983,-0.25710287690163
393,877641232,-1.05175042152405,-1.27125000953674,22.80887794494629,0.23698407411575,-0.27750372886658,9.79288959503174,-5.35881853103638,0.07912237197161,-0.41708943247795
394,877649565,-1.05165517330170,-1.27078270912170,22.80896949768066,0.23681226372719,-0.28170880675316,9.80618762969971,-5.38512420654297,0.14866502583027,-0.28381854295731
395,877657898,-1.05219984054565,-1.27011227607727,22.80939674377441,0.23317070305347,-0.28793618083000,9.79866886138916,-5.43163967132568,0.17207644879818,-0.23599678277969
396,877666231,-1.05195164680481,-1.26986801624298,22.80921363830566,0.22217325866222,-0.28823149204254,9.81415271759033,-5.36660480499268,0.12412657588720,-0.31919178366661
397,877674564,-1.05219423770905,-1.27069449424744,22.80893516540527,0.23546156287193,-0.28559857606888,9.82526683807373,-5.39647150039673,-0.00718479370698,-0.32305955886841
398,877682897,-1.05210328102112,-1.27043414115906,22.80948448181152,0.22768741846085,-0.30186039209366,9.81228733062744,-5.38312625885010,0.12335815280676,-0.22969563305378
399,877691230,-1.05203139781952,-1.26957583427429,22.80859756469727,0.21909095346928,-0.29563662409782,9.82148265838623,-5.36171245574951,0.19786998629570,-0.39667484164238
400,877699563,-1.05162906646729,-1.26934206485748,22.80880165100098,0.20589420199394,-0.28674048185349,9.79385948181152,-5.34636974334717,0.12079674005508,-0.27121633291245
401,877707896,-1.05189394950867,-1.26961088180542,22.80871009826660,0.20276252925396,-0.28716573119164,9.78543281555176,-5.39859676361084,0.05945063382387,-0.29539617896080
402,877716229,-1.05159914493561,-1.27018070220947,22.80826950073242,0.21664145588875,-0.27472546696663,9.80380535125732,-5.36120033264160,0.02551178075373,-0.35123518109322
403,877724562,-1.05220234394073,-1.26988685131073,22.80700683593750,0.22279562056065,-0.27396225929260,9.79588413238525,-5.44226980209351,0.13063260912895,-0.43425098061562
404,877732895,-1.05211520195007,-1.27012920379639,22.80669784545898,0.20323891937733,-0.29248124361038,9.81184673309326,-5.38541793823242,0.06454786658287,-0.33416327834129
405,877741228,-1.05173540115356,-1.27035212516785,22.80595779418945,0.22394499182701,-0.29439440369606,9.80208110809326,-5.32370138168335,0.06721174716949,-0.39129585027695
406,877749561,-1.05163443088531,-1.27024948596954,22.80593490600586,0.21960446238518,-0.27995452284813,9.81655883789062,-5.38371467590332,0.10463414341211,-0.29923829436302
407,877757894,-1.05192172527313,-1.27023792266846,22.80578041076660,0.23320256173611,-0.28334942460060,9.78591537475586,-5.40000581741333,0.09482389688492,-0.31417140364647
408,877766227,-1.05225443840027,-1.27025282382965,22.80590248107910,0.24526503682137,-0.29527354240417,9.80578231811523,-5.43583965301514,0.09105861186981,-0.28225603699684
409,877774560,-1.05249774456024,-1.27077829837799,22.80547332763672,0.21131542325020,-0.25404334068298,9.83701705932617,-5.39567708969116,0.03109567984939,-0.34616360068321
410,877782893,-1.05285596847534,-1.27074778079987,22.80631256103516,0.22495369613171,-0.26093462109566,9.79462909698486,-5.43683910369873,0.09433723241091,-0.19678138196468
411,877791226,-1.05280375480652,-1.27193975448608,22.80923652648926,0.19507071375847,-0.28123706579208,9.77089214324951,-5.35866451263428,-0.00213878857903,-0.20290318131447
412,877799559,-1.05226945877075,-1.27217733860016,22.80889129638672,0.21376001834869,-0.29454731941223,9.82789516448975,-5.33261489868164,0.06462471932173,-0.33881235122681
413,877807892,-1.05242538452148,-1.27224779129028,22.80842018127441,0.21811614930630,-0.27407550811768,9.79363632202148,-5.38712215423584,0.08570523560047,-0.33171716332436
414,877816225,-1.05244815349579,-1.27201282978058,22.80911636352539,0.23088701069355,-0.28083741664886,9.79397773742676,-5.39688110351562,0.11990022659302,-0.21238042414188
415,877824558,-1.05271041393280,-1.27146863937378,22.80971145629883,0.22747159004211,-0.28255274891853,9.79284667968750,-5.39600944519043,0.15642613172531,-0.21727272868156
416,877832891,-1.05236852169037,-1.27155065536499,22.81048583984375,0.21197977662086,-0.29886668920517,9.79435539245605,-5.35244035720825,0.08042868971825,-0.20354352891445
417,877841224,-1.05259060859680,-1.27151906490326,22.81013679504395,0.21486106514931,-0.28542023897171,9.81095600128174,-5.39716291427612,0.09723164141178,-0.32364869117737
418,877849557,-1.05298745632172,-1.27132058143616,22.80982780456543,0.20130743086338,-0.27522200345993,9.80977344512939,-5.44521474838257,0.11844020336866,-0.33389434218407
419,877857890,-1.05302369594574,-1.27108824253082,22.80949211120605,0.21338482201099,-0.29258745908737,9.80636882781982,-5.37152290344238,0.12153954803944,-0.33148667216301
420,877866223,-1.05284774303436,-1.27070641517639,22.80962181091309,0.19973926246166,-0.29045480489731,9.77769279479980,-5.37418651580811,0.13811196386814,-0.28105217218399
421,877874556,-1.05306923389435,-1.27067935466766,22.81007003784180,0.21085573732853,-0.28606721758842,9.80976772308350,-5.39247560501099,0.09408108890057,-0.23740555346012
422,877882889,-1.05300211906433,-1.26993501186371,22.81147956848145,0.20985010266304,-0.28122493624687,9.80247497558594,-5.38330507278442,0.17935088276863,-0.12708501517773
423,877891222,-1.05266523361206,-1.26949191093445,22.81111335754395,0.21551130712032,-0.29011663794518,9.77616214752197,-5.32833766937256,0.14733308553696,-0.32134342193604
424,877899555,-1.05210781097412,-1.26960718631744,22.81184768676758,0.23705987632275,-0.29404661059380,9.80893325805664,-5.32746601104736,0.07653532922268,-0.20892250537872
425,877907888,-1.05158746242523,-1.26861035823822,22.81190681457520,0.22999766469002,-0.29962351918221,9.79024314880371,-5.30464410781860,0.21295675635338,-0.28230729699135
426,877916221,-1.05205798149109,-1.26841318607330,22.81166839599609,0.21803911030293,-0.28693243861198,9.80640125274658,-5.45287370681763,0.11715950071812,-0.32546728849411
427,877924554,-1.05225741863251,-1.26861381530762,22.81061553955078,0.22250646352768,-0.28514087200165,9.79318141937256,-5.39360189437866,0.07046475261450,-0.42213538289070
428,877932887,-1.05183243751526,-1.26793098449707,22.81011390686035,0.22466152906418,-0.28239950537682,9.80615139007568,-5.34675359725952,0.17691749334335,-0.35571765899658
429,877941220,-1.05233335494995,-1.26788532733917,22.80999946594238,0.21316470205784,-0.26944723725319,9.80009746551514,-5.42713117599487,0.09876849502325,-0.29985302686691
430,877949553,-1.05230462551117,-1.26799166202545,22.80966567993164,0.20951545238495,-0.30779662728310,9.77539825439453,-5.39385843276978,0.08135081827641,-0.33707052469254
431,877957886,-1.05208277702332,-1.26742172241211,22.80898094177246,0.21610370278358,-0.29646143317223,9.78081035614014,-5.34278345108032,0.16198442876339,-0.37077891826630
432,877966219,-1.05208766460419,-1.26646852493286,22.80936431884766,0.21168817579746,-0.30793464183807,9.79275894165039,-5.39478063583374,0.20586159825325,-0.24841967225075
433,877974552,-1.05268454551697,-1.26649975776672,22.80921173095703,0.21047534048557,-0.28217619657516,9.77459335327148,-5.43868303298950,0.08916315436363,-0.30413061380386
434,877982885,-1.05294704437256,-1.26682531833649,22.80920791625977,0.21894587576389,-0.28655835986137,9.82191371917725,-5.42766952514648,0.05453271046281,-0.29903340339661
435,877991218,-1.05308115482330,-1.26795494556427,22.80882644653320,0.22148010134697,-0.29330146312714,9.78650951385498,-5.38453531265259,-0.04109804704785,-0.33789020776749
436,877999551,-1.05295276641846,-1.26851391792297,22.80846023559570,0.21036167442799,-0.29606011509895,9.81298828125000,-5.38166570663452,0.02566546201706,-0.34186035394669
437,878007884,-1.05344343185425,-1.26825189590454,22.80758476257324,0.22170211374760,-0.27210170030594,9.80988216400146,-5.42815589904785,0.12684169411659,-0.38394454121590
438,878016217,-1.05349636077881,-1.26933634281158,22.80723953247070,0.23114778101444,-0.30652186274529,9.78985881805420,-5.40387392044067,-0.03656431660056,-0.34098950028419
439,878024550,-1.05339872837067,-1.26946616172791,22.80672454833984,0.22767134010792,-0.31075331568718,9.79206180572510,-5.35546302795410,0.07773920893669,-0.34680396318436
440,878032883,-1.05385315418243,-1.26948904991150,22.80794334411621,0.23810428380966,-0.30071777105331,9.78439235687256,-5.44705867767334,0.08875331282616,-0.15216134488583
441,878041216,-1.05456590652466,-1.26982092857361,22.80762672424316,0.21168676018715,-0.28822258114815,9.79476165771484,-5.45307826995850,0.05494254082441,-0.34075900912285
442,878049549,-1.05498671531677,-1.27033090591431,22.80790138244629,0.20989166200161,-0.29335084557533,9.80060958862305,-5.44585514068604,0.03109567984939,-0.26599103212357
443,878057882,-1.05547976493835,-1.27032220363617,22.80773925781250,0.19988645613194,-0.28854823112488,9.78760814666748,-5.42595243453979,0.09290281683207,-0.30858746170998
444,878066215,-1.05531120300293,-1.27037084102631,22.80827522277832,0.20792102813721,-0.30013695359230,9.83170032501221,-5.37395572662354,0.08614066243172,-0.23392200469971
445,878074548,-1.05561220645905,-1.27119827270508,22.80891799926758,0.19586835801601,-0.27560451626778,9.80576515197754,-5.40120935440063,-0.00710794981569,-0.22477771341801
446,878082881,-1.05544841289520,-1.27083253860474,22.80958175659180,0.22513966262341,-0.26441550254822,9.77662944793701,-5.37439155578613,0.13455158472061,-0.21612012386322
447,878091214,-1.05591070652008,-1.27109098434448,22.81047439575195,0.20208741724491,-0.28304609656334,9.78282451629639,-5.41944742202759,0.06042398139834,-0.18202757835388
448,878099547,-1.05616676807404,-1.27157425880432,22.81061744689941,0.23380185663700,-0.30951306223869,9.78167057037354,-5.42679834365845,0.03452799096704,-0.28141081333160
449,878107880,-1.05668473243713,-1.27143764495850,22.81089210510254,0.21010366082191,-0.31059101223946,9.79325008392334,-5.42820644378662,0.10847628116608,-0.25057125091553
450,878116213,-1.05689716339111,-1.27156674861908,22.81125831604004,0.22920854389668,-0.30103364586830,9.81208801269531,-5.41967725753784,0.07686831802130,-0.25246667861938
451,878124546,-1.05709862709045,-1.27304542064667,22.81170463562012,0.21914878487587,-0.30321064591408,9.77900791168213,-5.39001655578613,-0.08653769642115,-0.22549490630627
452,878132879,-1.05720055103302,-1.27348339557648,22.81143188476562,0.19724623858929,-0.27814087271690,9.79977130889893,-5.40971374511719,0.04157190397382,-0.33146101236343
453,878141212,-1.05772697925568,-1.27406048774719,22.81122398376465,0.20588517189026,-0.29152810573578,9.80612564086914,-5.43023109436035,0.02320649847388,-0.31606686115265
454,878149545,-1.05752885341644,-1.27412986755371,22.81183815002441,0.22230002284050,-0.27484321594238,9.80025863647461,-5.36965322494507,0.08281081914902,-0.22403490543365
455,878157878,-1.05725419521332,-1.27356851100922,22.81206893920898,0.23138768970966,-0.29141157865524,9.75917434692383,-5.33520221710205,0.16049879789352,-0.26445418596268
456,878166211,-1.05732131004333,-1.27409267425537,22.81238555908203,0.22380509972572,-0.31477069854736,9.80969238281250,-5.40272045135498,0.02943075448275,-0.26015096902847
457,878174544,-1.05620789527893,-1.27441811561584,22.81196784973145,0.21293650567532,-0.29752317070961,9.79189205169678,-5.23387145996094,0.05409726500511,-0.32774692773819
458,878182877,-1.05702078342438,-1.27474725246429,22.81193351745605,0.20061449706554,-0.26699516177177,9.80297374725342,-5.49249887466431,0.05325199291110,-0.30295234918594
459,878191210,-1.05782294273376,-1.27509725093842,22.81217002868652,0.22342620790005,-0.26993307471275,9.77268695831299,-5.46188974380493,0.04971722513437,-0.25620633363724
460,878199543,-1.05792117118835,-1.27495050430298,22.81230354309082,0.20087453722954,-0.30216714739799,9.80590724945068,-5.40733146667480,0.11121700704098,-0.28169253468513
461,878207876,-1.05845761299133,-1.27533030509949,22.81164550781250,0.21028971672058,-0.28050893545151,9.79722499847412,-5.43320226669312,0.04787300527096,-0.36903709173203
462,878216209,-1.05882787704468,-1.27461421489716,22.81080055236816,0.20912639796734,-0.26677706837654,9.83715915679932,-5.44303846359253,0.18180984258652,-0.39687979221344
463,878224542,-1.05951142311096,-1.27475774288177,22.81097412109375,0.22336685657501,-0.28385549783707,9.81479072570801,-5.44769954681396,0.07423005998135,-0.26138049364090
464,878232875,-1.05985343456268,-1.27490484714508,22.81075477600098,0.22287313640118,-0.27679514884949,9.78964424133301,-5.43686485290527,0.07592059671879,-0.32398167252541
465,878241208,-1.05967509746552,-1.27473819255829,22.80982971191406,0.23058532178402,-0.27551859617233,9.79725456237793,-5.34800910949707,0.11485423147678,-0.39915943145752
466,878249541,-1.05950093269348,-1.27460837364197,22.80965995788574,0.23653359711170,-0.30085936188698,9.79899787902832,-5.37503194808960,0.10811767727137,-0.31732198596001
467,878257874,-1.05922198295593,-1.27526450157166,22.80914115905762,0.22506798803806,-0.28724586963654,9.79929447174072,-5.33305072784424,0.01513801421970,-0.35474434494972
468,878266207,-1.05944979190826,-1.27514362335205,22.80927276611328,0.22732882201672,-0.28936916589737,9.79094123840332,-5.42182970046997,0.10704189538956,-0.28164133429527
469,878274540,-1.05944323539734,-1.27568852901459,22.80837059020996,0.21271364390850,-0.28971710801125,9.81251239776611,-5.36837244033813,0.02912338264287,-0.40727913379669
470,878282873,-1.05948853492737,-1.27552688121796,22.80749702453613,0.21302001178265,-0.29457944631577,9.79978084564209,-5.40451383590698,0.11493107676506,-0.40172082185745
471,878291206,-1.06008589267731,-1.27560663223267,22.80781936645508,0.21615821123123,-0.28159078955650,9.79859066009521,-5.43730020523071,0.08170941472054,-0.23766168951988
472,878299539,-1.06012237071991,-1.27608942985535,22.80765342712402,0.22805149853230,-0.30568072199821,9.78386020660400,-5.39972400665283,0.03450237587094,-0.31821841001511
473,878307872,-1.06040525436401,-1.27615606784821,22.80761718750000,0.22069196403027,-0.30890560150146,9.79939460754395,-5.40108203887939,0.08506488054991,-0.29969936609268
474,878316205,-1.05967617034912,-1.27634489536285,22.80690765380859,0.21603044867516,-0.28417679667473,9.76496124267578,-5.30968952178955,0.07141248136759,-0.38294556736946
475,878324538,-1.05948770046234,-1.27599716186523,22.80639457702637,0.21636432409286,-0.28259995579720,9.77432060241699,-5.34426975250244,0.13562737405300,-0.34114316105843
476,878332871,-1.05922913551331,-1.27663469314575,22.80669212341309,0.19780555367470,-0.28467488288879,9.80479526519775,-5.36442756652832,0.01670048199594,-0.26235380768776
477,878341204,-1.06053066253662,-1.27612400054932,22.80648612976074,0.21579228341579,-0.27869537472725,9.76500511169434,-5.52244138717651,0.15406960248947,-0.31647664308548
478,878349537,-1.06086719036102,-1.27613055706024,22.80689239501953,0.21781134605408,-0.27263697981834,9.80182647705078,-5.43517446517944,0.09105861932039,-0.24888072907925
479,878357870,-1.06088399887085,-1.27685344219208,22.80676078796387,0.23270489275455,-0.27703297138214,9.79909801483154,-5.36921691894531,0.00642917258665,-0.30430987477303
480,878366203,-1.06061959266663,-1.27722954750061,22.80605316162109,0.22183251380920,-0.28504818677902,9.78717231750488,-5.36547803878784,0.05028074607253,-0.38327863812447
481,878374536,-1.06071090698242,-1.27691400051117,22.80577659606934,0.21660457551479,-0.28117597103119,9.81198120117188,-5.37966775894165,0.13004347681999,-0.32060056924820
482,878382869,-1.06042730808258,-1.27660679817200,22.80588531494141,0.19896432757378,-0.27707040309906,9.80640983581543,-5.36112356185913,0.12986417114735,-0.28299888968468
483,878391202,-1.06054139137268,-1.27542400360107,22.80575180053711,0.19209825992584,-0.27637439966202,9.79661941528320,-5.38064098358154,0.23434458673000,-0.30272182822227
484,878399535,-1.06063997745514,-1.27472352981567,22.80571556091309,0.20572954416275,-0.29950562119484,9.77820682525635,-5.40807485580444,0.17763473093510,-0.29898217320442
485,878407868,-1.06145989894867,-1.27517831325531,22.80556297302246,0.22642511129379,-0.29458323121071,9.79096794128418,-5.46486043930054,0.03816520795226,-0.29811123013496
486,878416201,-1.06163156032562,-1.27558851242065,22.80501747131348,0.22484701871872,-0.27063968777657,9.79244899749756,-5.41780805587769,0.04533720016479,-0.36322265863419
487,878424534,-1.06137144565582,-1.27587425708771,22.80493927001953,0.21776898205280,-0.27204808592796,9.79914951324463,-5.33661079406738,0.05845168605447,-0.30810084939003
488,878432867,-1.06125974655151,-1.27553677558899,22.80495643615723,0.21729537844658,-0.28776860237122,9.78571987152100,-5.38233232498169,0.13424418866634,-0.29393616318703
489,878441200,-1.06038928031921,-1.27562844753265,22.80399322509766,0.22670015692711,-0.28473618626595,9.80903720855713,-5.26568460464478,0.08404029905796,-0.40694612264633
490,878449533,-1.06013357639313,-1.27595472335815,22.80421829223633,0.23345114290714,-0.28149908781052,9.77014923095703,-5.36353111267090,0.05378989875317,-0.27031984925270
491,878457866,-1.06056094169617,-1.27547490596771,22.80412292480469,0.20376063883305,-0.31445395946503,9.78932189941406,-5.41826868057251,0.14958712458611,-0.29460212588310
492,878466199,-1.06059348583221,-1.27488589286804,22.80416107177734,0.20833447575569,-0.28073003888130,9.78028011322021,-5.39949369430542,0.16380304098129,-0.29150283336639
493,878474532,-1.06100821495056,-1.27435624599457,22.80443382263184,0.21228809654713,-0.27926525473595,9.78802680969238,-5.41637372970581,0.15596507489681,-0.25986921787262
494,878482865,-1.06195163726807,-1.27398455142975,22.80454635620117,0.22620937228203,-0.29081851243973,9.80803871154785,-5.50935268402100,0.13729229569435,-0.28292205929756
495,878491198,-1.06231820583344,-1.27451777458191,22.80400085449219,0.22443635761738,-0.29916265606880,9.79446315765381,-5.41373491287231,0.02932829968631,-0.35423204302788
496,878499531,-1.06250381469727,-1.27465081214905,22.80436134338379,0.21042464673519,-0.27126231789589,9.78354454040527,-5.41637325286865,0.07704761624336,-0.25382423400879
497,878507864,-1.06265997886658,-1.27481150627136,22.80430030822754,0.20770986378193,-0.28945732116699,9.78823566436768,-5.38468837738037,0.07328233122826,-0.29936635494232
498,878516197,-1.06277322769165,-1.27526521682739,22.80453109741211,0.20461510121822,-0.28754052519798,9.78836536407471,-5.40991878509521,0.03803713992238,-0.27113950252533
499,878524530,-1.06327140331268,-1.27469885349274,22.80455017089844,0.23175582289696,-0.27577334642410,9.77112674713135,-5.42579936981201,0.16093423962593,-0.28796806931496
500,878532863,-1.06422603130341,-1.27489626407623,22.80536079406738,0.23596794903278,-0.29250693321228,9.80654239654541,-5.50873899459839,0.06657139956951,-0.19977824389935
501,878541196,-1.06391990184784,-1.27472543716431,22.80484390258789,0.22179326415062,-0.29151138663292,9.80429267883301,-5.33118057250977,0.11487983167171,-0.34721374511719
502,878549529,-1.06349194049835,-1.27454662322998,22.80541801452637,0.21918880939484,-0.27978634834290,9.81064891815186,-5.34229660034180,0.11244648694992,-0.22836372256279
503,878557862,-1.06422412395477,-1.27520382404327,22.80561637878418,0.22716334462166,-0.30255782604218,9.81634235382080,-5.45325756072998,0.01357554551214,-0.25920322537422
504,878566195,-1.06402432918549,-1.27597355842590,22.80508232116699,0.20786020159721,-0.29660201072693,9.81891822814941,-5.37408399581909,0.00261265179142,-0.36237737536430
505,878574528,-1.06489920616150,-1.27610111236572,22.80541229248047,0.22241385281086,-0.28204149007797,9.80200958251953,-5.47026538848877,0.07674024254084,-0.24567891657352
506,878582861,-1.06505668163300,-1.27563095092773,22.80557632446289,0.22187106311321,-0.29562953114510,9.80223369598389,-5.41404199600220,0.14876748621464,-0.27577567100525
507,878591194,-1.06522715091705,-1.27587270736694,22.80557632446289,0.23569752275944,-0.28781443834305,9.79689121246338,-5.38794183731079,0.06444541364908,-0.28110340237617
508,878599527,-1.06532680988312,-1.27504885196686,22.80549621582031,0.22370919585228,-0.28701102733612,9.76630878448486,-5.40753650665283,0.19197867810726,-0.30523201823235
509,878607860,-1.06539177894592,-1.27486908435822,22.80572128295898,0.21721525490284,-0.27039137482643,9.80603981018066,-5.37241888046265,0.11329176276922,-0.25492566823959
510,878616193,-1.06561040878296,-1.27470743656158,22.80640029907227,0.21062272787094,-0.29313430190086,9.79989528656006,-5.42008733749390,0.11106330901384,-0.21476252377033
511,878624526,-1.06576645374298,-1.27468550205231,22.80551719665527,0.20545642077923,-0.29428404569626,9.79741191864014,-5.38709640502930,0.09764145314693,-0.39603444933891
512,878632859,-1.06598973274231,-1.27468109130859,22.80499649047852,0.21377731859684,-0.28645071387291,9.79382514953613,-5.42413425445557,0.09428599476814,-0.35938048362732
513,878641192,-1.06581687927246,-1.27475559711456,22.80428504943848,0.22548483312130,-0.30881804227829,9.79591178894043,-5.34880304336548,0.08532101660967,-0.37246939539909
514,878649525,-1.06582701206207,-1.27349150180817,22.80336570739746,0.21267986297607,-0.28870382905006,9.77969169616699,-5.39905786514282,0.24661386013031,-0.40512752532959
515,878657858,-1.06639635562897,-1.27371323108673,22.80285835266113,0.21343006193638,-0.28090405464172,9.78537273406982,-5.43817138671875,0.06810825318098,-0.34285935759544
516,878666191,-1.06674730777740,-1.27267396450043,22.80259323120117,0.21782791614532,-0.29887467622757,9.80156898498535,-5.43760728836060,0.21797712147236,-0.32603079080582
517,878674524,-1.06676411628723,-1.27123820781708,22.80232429504395,0.19674795866013,-0.28705123066902,9.80386829376221,-5.37108707427979,0.26526102423668,-0.32848972082138
518,878682857,-1.06597352027893,-1.27174007892609,22.80187225341797,0.22141295671463,-0.27865904569626,9.80862426757812,-5.30236434936523,0.03463044017553,-0.35251587629318
519,878691190,-1.06635653972626,-1.27101969718933,22.80245971679688,0.23893935978413,-0.30594861507416,9.76404762268066,-5.41104602813721,0.17691753804684,-0.22198577225208
520,878699523,-1.06626963615417,-1.27033877372742,22.80216026306152,0.21433426439762,-0.28155890107155,9.82066440582275,-5.38512420654297,0.17617471516132,-0.33166593313217
521,878707856,-1.06650710105896,-1.26977872848511,22.80209922790527,0.23634667694569,-0.26538386940956,9.78954887390137,-5.39708614349365,0.16095985472202,-0.30090323090553
522,878716189,-1.06654381752014,-1.26980733871460,22.80233764648438,0.20548115670681,-0.28822767734528,9.81088256835938,-5.39985227584839,0.08898384869099,-0.26811701059341
523,878724522,-1.06667971611023,-1.26972877979279,22.80187416076660,0.21960735321045,-0.27713948488235,9.80091667175293,-5.38489341735840,0.10194464772940,-0.34457546472549
524,878732855,-1.06671214103699,-1.26922094821930,22.80172920227051,0.20716819167137,-0.28137069940567,9.77658176422119,-5.39949321746826,0.15468436479568,-0.31440189480782
525,878741188,-1.06675052642822,-1.26809513568878,22.80148124694824,0.21763016283512,-0.28509211540222,9.81567859649658,-5.37198352813721,0.22865830361843,-0.30548816919327
526,878749521,-1.06637120246887,-1.26851868629456,22.80172538757324,0.21486200392246,-0.28438049554825,9.77778625488281,-5.34977626800537,0.04169997572899,-0.26775839924812
527,878757854,-1.06653320789337,-1.26798701286316,22.80164337158203,0.19853921234608,-0.26257789134979,9.76405620574951,-5.38748073577881,0.15711772441864,-0.29964813590050
528,878766187,-1.06691384315491,-1.26780486106873,22.80183219909668,0.22276055812836,-0.28594124317169,9.78126525878906,-5.44098901748657,0.11457246541977,-0.27423882484436
529,878774520,-1.06651794910431,-1.26739907264709,22.80171012878418,0.23824591934681,-0.27674871683121,9.79181766510010,-5.31896162033081,0.14116004109383,-0.29265543818474
530,878782853,-1.06717550754547,-1.26700842380524,22.80143547058105,0.23168617486954,-0.29391214251518,9.80775833129883,-5.47510766983032,0.14077584445477,-0.33071824908257
531,878791186,-1.06717634201050,-1.26787006855011,22.80164337158203,0.21356217563152,-0.29865431785583,9.80019760131836,-5.36645174026489,-0.01192342676222,-0.27367529273033
532,878799519,-1.06674969196320,-1.26803827285767,22.80157279968262,0.21697908639908,-0.28527736663818,9.78491115570068,-5.34391069412231,0.07364092022181,-0.30638465285301
533,878807852,-1.06658685207367,-1.26852858066559,22.80193328857422,0.21463087201118,-0.26700016856194,9.80875778198242,-5.34683084487915,0.03358026593924,-0.25087863206863
534,878816185,-1.06657016277313,-1.26826989650726,22.80167579650879,0.22437769174576,-0.29134359955788,9.81188392639160,-5.39462709426880,0.12379359453917,-0.32697853446007
535,878824518,-1.06688165664673,-1.26788306236267,22.80210494995117,0.21374465525150,-0.29235929250717,9.80365085601807,-5.40123605728149,0.13749721646309,-0.23617607355118
536,878832851,-1.06700003147125,-1.26840269565582,22.80187225341797,0.21110089123249,-0.28534102439880,9.79218578338623,-5.40989303588867,0.03183849528432,-0.32659429311752
537,878841184,-1.06731593608856,-1.26920509338379,22.80220794677734,0.20826326310635,-0.30562824010849,9.80360031127930,-5.40371942520142,-0.00452091265470,-0.24129889905453
538,878849517,-1.06706273555756,-1.26951301097870,22.80206489562988,0.20315115153790,-0.28157424926758,9.79299545288086,-5.36591386795044,0.05578780919313,-0.31450438499451
539,878857850,-1.06735372543335,-1.26946437358856,22.80271530151367,0.22969383001328,-0.27610531449318,9.78775501251221,-5.40003156661987,0.09725725650787,-0.21553099155426
540,878866183,-1.06743574142456,-1.26991665363312,22.80236625671387,0.21947133541107,-0.29901435971260,9.78297615051270,-5.40681934356689,0.04070102050900,-0.33917090296745
541,878874516,-1.06785798072815,-1.26996278762817,22.80187416076660,0.22222240269184,-0.29251655936241,9.77916622161865,-5.41829490661621,0.08696032315493,-0.34106636047363
542,878882849,-1.06805372238159,-1.26956820487976,22.80162429809570,0.24098971486092,-0.28701579570770,9.80227375030518,-5.42016458511353,0.14126250147820,-0.32649186253548
543,878891182,-1.06813836097717,-1.26966464519501,22.80107116699219,0.20820517838001,-0.26721170544624,9.77258682250977,-5.37836170196533,0.08201678097248,-0.35638365149498
544,878899515,-1.06718432903290,-1.26827788352966,22.80117225646973,0.19542145729065,-0.28963240981102,9.81350803375244,-5.28174543380737,0.25957468152046,-0.28258904814720
545,878907848,-1.06769216060638,-1.26831328868866,22.80088043212891,0.22126881778240,-0.29350858926773,9.80180454254150,-5.42754125595093,0.08944491297007,-0.31368473172188
546,878916181,-1.06864786148071,-1.26872563362122,22.80152130126953,0.23453961312771,-0.27133589982986,9.77429676055908,-5.50837993621826,0.04190488904715,-0.22280544042587
547,878924514,-1.06938898563385,-1.26860129833221,22.80122756958008,0.20111449062824,-0.30673411488533,9.79754447937012,-5.45645952224731,0.10880926251411,-0.31934550404549
548,878932847,-1.06953537464142,-1.26855039596558,22.80043792724609,0.23459582030773,-0.28292536735535,9.77311229705811,-5.41539955139160,0.10007480531931,-0.39150077104568
549,878941180,-1.06982660293579,-1.26908874511719,22.80051040649414,0.22784018516541,-0.27587285637856,9.79595851898193,-5.40269470214844,0.02804758585989,-0.29017084836960
550,878949513,-1.06929183006287,-1.26951754093170,22.80114555358887,0.20956142246723,-0.28687804937363,9.77133464813232,-5.32946443557739,0.04052172228694,-0.22075627744198
551,878957846,-1.07025730609894,-1.27012979984283,22.80149650573730,0.19870562851429,-0.28765234351158,9.78985404968262,-5.48215055465698,0.01833979226649,-0.24421894550323
552,878966179,-1.07089340686798,-1.26977801322937,22.80163383483887,0.20885005593300,-0.27923578023911,9.79082489013672,-5.47144412994385,0.13442350924015,-0.28036060929298
553,878974512,-1.07169604301453,-1.26985371112823,22.80127906799316,0.20000687241554,-0.27866107225418,9.79656028747559,-5.46419525146484,0.08526978641748,-0.32352060079575
554,878982845,-1.07199835777283,-1.27017474174500,22.80116844177246,0.21583350002766,-0.26565483212471,9.80672264099121,-5.43248414993286,0.05571096017957,-0.31201979517937
555,878991178,-1.07181370258331,-1.26993095874786,22.80195617675781,0.22089178860188,-0.28272572159767,9.78489112854004,-5.34250211715698,0.12095043063164,-0.19032658636570
556,878999511,-1.07212471961975,-1.26985955238342,22.80140495300293,0.22538177669048,-0.29903680086136,9.80706787109375,-5.43471384048462,0.10179097950459,-0.36276164650917
557,879007844,-1.07286977767944,-1.27009212970734,22.80128479003906,0.22936010360718,-0.27420642971992,9.79932308197021,-5.45617866516113,0.06572613120079,-0.29432037472725
558,879016177,-1.07367527484894,-1.27065372467041,22.80133628845215,0.20243477821350,-0.24629747867584,9.78772449493408,-5.49242258071899,0.02558862231672,-0.29222002625465
559,879024510,-1.07391488552094,-1.27025747299194,22.80126953125000,0.21536806225777,-0.28017482161522,9.78218364715576,-5.39667606353760,0.13957194983959,-0.29918703436852
560,879032843,-1.07352983951569,-1.27091538906097,22.80167198181152,0.21159073710442,-0.28550449013710,9.79400825500488,-5.34931564331055,0.01393414475024,-0.25116038322449
561,879041176,-1.07269060611725,-1.27059173583984,22.80078315734863,0.21890993416309,-0.26535797119141,9.78890228271484,-5.26706695556641,0.13398805260658,-0.39334499835968
562,879049509,-1.07267975807190,-1.27036178112030,22.80099487304688,0.23396451771259,-0.29027849435806,9.79926681518555,-5.39408922195435,0.11910620331764,-0.27144688367844
563,879057842,-1.07302200794220,-1.27042210102081,22.80053520202637,0.21823792159557,-0.28004190325737,9.81916999816895,-5.40917539596558,0.08639681339264,-0.34078457951546
564,879066175,-1.07287812232971,-1.27068412303925,22.80055809020996,0.22546342015266,-0.29106304049492,9.80291366577148,-5.37764501571655,0.06221697479486,-0.29470458626747
565,879074508,-1.07315301895142,-1.27117574214935,22.80052757263184,0.21815100312233,-0.27324458956718,9.78331470489502,-5.40062093734741,0.03406693413854,-0.28960734605789
566,879082841,-1.07310736179352,-1.27134883403778,22.80047607421875,0.21786765754223,-0.28303036093712,9.79011249542236,-5.39029788970947,0.07223214209080,-0.30374640226364
567,879091174,-1.07342720031738,-1.27132165431976,22.80115509033203,0.21416769921780,-0.29062229394913,9.78405284881592,-5.40307950973511,0.09387617558241,-0.21740084886551
568,879099507,-1.07337474822998,-1.27096509933472,22.80103874206543,0.20821785926819,-0.30387407541275,9.77811813354492,-5.39052915573120,0.13660071790218,-0.31048294901848
569,879107840,-1.07343387603760,-1.27005827426910,22.80111312866211,0.22025895118713,-0.28528147935867,9.81497001647949,-5.37216281890869,0.20178894698620,-0.27943852543831
570,879116173,-1.07494127750397,-1.27031755447388,22.80109024047852,0.21482326090336,-0.26854124665260,9.77812099456787,-5.57633447647095,0.06129485741258,-0.30023726820946
571,879124506,-1.07585632801056,-1.27068221569061,22.80095863342285,0.20835711061954,-0.28929227590561,9.77933979034424,-5.47669506072998,0.04887195676565,-0.30092886090279
572,879132839,-1.07570147514343,-1.27041637897491,22.80228614807129,0.21270725131035,-0.28394559025764,9.78522014617920,-5.37241935729980,0.12307640910149,-0.13733074069023
573,879141172,-1.07635951042175,-1.27172434329987,22.80203437805176,0.20088073611259,-0.27242568135262,9.80005836486816,-5.44332027435303,-0.06584139913321,-0.31650230288506
574,879149505,-1.07599914073944,-1.27234661579132,22.80165863037109,0.20481535792351,-0.27831116318703,9.79288196563721,-5.35372066497803,0.01874962076545,-0.34378144145012
575,879157838,-1.07612645626068,-1.27314615249634,22.80152320861816,0.21404257416725,-0.28210055828094,9.80948162078857,-5.38128185272217,-0.00298405834474,-0.30274745821953
576,879166171,-1.07561504840851,-1.27329087257385,22.80104446411133,0.21091175079346,-0.28480687737465,9.78768730163574,-5.33622598648071,0.07735498994589,-0.35448816418648
577,879174504,-1.07627832889557,-1.27349054813385,22.80118751525879,0.22209842503071,-0.28648954629898,9.79731559753418,-5.44565057754517,0.06736544519663,-0.26565802097321
578,879182837,-1.07637166976929,-1.27406656742096,22.80104637145996,0.20973250269890,-0.28459858894348,9.80544662475586,-5.40646028518677,0.02420544996858,-0.31396645307541
579,879191170,-1.07629489898682,-1.27357721328735,22.80036735534668,0.21982994675636,-0.28190034627914,9.77618789672852,-5.35953569412231,0.15245594084263,-0.36417040228844
580,879199503,-1.07656228542328,-1.27380347251892,22.80017089843750,0.22491854429245,-0.29006487131119,9.79515361785889,-5.42800188064575,0.06600788980722,-0.32177880406380
581,879207836,-1.07633638381958,-1.27336585521698,22.79979896545410,0.20511925220490,-0.28448194265366,9.82343769073486,-5.34024810791016,0.14597554504871,-0.33312594890594
582,879216169,-1.07658171653748,-1.27312803268433,22.80031204223633,0.20351405441761,-0.29378110170364,9.78036785125732,-5.42341756820679,0.12071990221739,-0.23576620221138
583,879224502,-1.07642531394958,-1.27349424362183,22.80083084106445,0.19952854514122,-0.30480080842972,9.77899456024170,-5.34647178649902,0.04794985055923,-0.22844056785107
584,879232835,-1.07601082324982,-1.27392506599426,22.80132865905762,0.22160798311234,-0.30970302224159,9.78415775299072,-5.34414148330688,0.04013750702143,-0.23899362981319
585,879241168,-1.07598853111267,-1.27321445941925,22.80124282836914,0.22766424715519,-0.27445298433304,9.80541038513184,-5.36450433731079,0.17801892757416,-0.29872605204582
586,879249501,-1.07560837268829,-1.27327358722687,22.80108261108398,0.19953887164593,-0.28777062892914,9.81017398834229,-5.35059595108032,0.08660173416138,-0.31742441654205
587,879257834,-1.07580792903900,-1.27337670326233,22.80140686035156,0.21330557763577,-0.28689187765121,9.76888942718506,-5.38709640502930,0.07901991903782,-0.24619123339653
588,879266167,-1.07570588588715,-1.27381014823914,22.80133628845215,0.22057867050171,-0.29195204377174,9.78317737579346,-5.38361263275146,0.04129014536738,-0.30594927072525
589,879274500,-1.07644510269165,-1.27371454238892,22.80154991149902,0.22505627572536,-0.25258368253708,9.80971813201904,-5.45405197143555,0.10332782566547,-0.26053518056870
590,879282833,-1.07625043392181,-1.27462649345398,22.80167388916016,0.21514578163624,-0.27444729208946,9.78927803039551,-5.37206029891968,-0.01643153093755,-0.28425395488739
591,879291166,-1.07625699043274,-1.27478921413422,22.80161094665527,0.22849495708942,-0.27367603778839,9.79028129577637,-5.36737298965454,0.07389707118273,-0.29926392436028
592,879299499,-1.07574880123138,-1.27479434013367,22.80125808715820,0.22702309489250,-0.27123937010765,9.80676841735840,-5.33561134338379,0.09216001629829,-0.33940145373344
593,879307832,-1.07572662830353,-1.27503478527069,22.80117988586426,0.19385977089405,-0.27837979793549,9.81140708923340,-5.36286544799805,0.06534191966057,-0.30515518784523
594,879316165,-1.07537281513214,-1.27552354335785,22.80099296569824,0.20858146250248,-0.28467833995819,9.81018924713135,-5.35433626174927,0.03342657908797,-0.32060056924820
595,879324498,-1.07538914680481,-1.27571856975555,22.80028152465820,0.21807804703712,-0.29550945758820,9.75912189483643,-5.36691236495972,0.07010616362095,-0.37121433019638
596,879332831,-1.07506942749023,-1.27644705772400,22.80046653747559,0.21563814580441,-0.30333450436592,9.80692672729492,-5.35615396499634,0.00653162971139,-0.27667218446732
597,879341164,-1.07567000389099,-1.27660536766052,22.79953002929688,0.21585792303085,-0.28019872307777,9.79555225372314,-5.44270515441895,0.07553638517857,-0.38981023430824
598,879349497,-1.07567393779755,-1.27752411365509,22.79959869384766,0.21584738790989,-0.28917220234871,9.78721904754639,-5.39490842819214,-0.01691820286214,-0.29134914278984
599,879357830,-1.07542300224304,-1.27720308303833,22.79967880249023,0.23153728246689,-0.28224885463715,9.77497005462646,-5.33456134796143,0.13040207326412,-0.26924404501915
600,879366163,-1.07540404796600,-1.27689373493195,22.79971313476562,0.21882924437523,-0.28374686837196,9.78213024139404,-5.39385843276978,0.13012032210827,-0.29216879606247
601,879374496,-1.07487094402313,-1.27682495117188,22.79910087585449,0.22271744906902,-0.27777659893036,9.82709407806396,-5.30379915237427,0.10117623209953,-0.35576888918877
602,879382829,-1.07489275932312,-1.27637875080109,22.79887008666992,0.19878296554089,-0.28664126992226,9.81214332580566,-5.39905786514282,0.14728184044361,-0.32457074522972
603,879391162,-1.07439136505127,-1.27666974067688,22.79888153076172,0.20945096015930,-0.29801034927368,9.80914592742920,-5.30712842941284,0.05714535713196,-0.29350069165230
604,879399495,-1.07372224330902,-1.27626883983612,22.79924392700195,0.20494824647903,-0.28672972321510,9.81699085235596,-5.31430053710938,0.14126250147820,-0.25279968976974
605,879407828,-1.07430088520050,-1.27651476860046,22.79916000366211,0.22550611197948,-0.28684273362160,9.81411647796631,-5.43571233749390,0.06375382840633,-0.30195343494415
606,879416161,-1.07389700412750,-1.27705550193787,22.79918861389160,0.22020897269249,-0.29310774803162,9.79876995086670,-5.34642076492310,0.02699740231037,-0.29516562819481
607,879424494,-1.07378959655762,-1.27744245529175,22.79987907409668,0.20818412303925,-0.28888693451881,9.78860664367676,-5.35256767272949,0.04592632129788,-0.20154559612274
608,879432827,-1.07309985160828,-1.27796602249146,22.79978942871094,0.22250214219093,-0.27137014269829,9.79733276367188,-5.31319904327393,0.03055777959526,-0.30822888016701
609,879441160,-1.07324111461639,-1.27865087985992,22.79965019226074,0.21876032650471,-0.25193426012993,9.79257678985596,-5.38356161117554,0.01142395008355,-0.32147151231766
610,879449493,-1.07354116439819,-1.27865278720856,22.79934310913086,0.20537295937538,-0.26626342535019,9.79740238189697,-5.43320226669312,0.09269791841507,-0.33432981371880
611,879457826,-1.07398056983948,-1.27844893932343,22.79950904846191,0.21975320577621,-0.30344691872597,9.80700111389160,-5.41970348358154,0.11846584081650,-0.27226653695107
612,879466159,-1.07348155975342,-1.27860212326050,22.79928779602051,0.22396017611027,-0.27869352698326,9.76767539978027,-5.33627748489380,0.07399952411652,-0.32454514503479
613,879474492,-1.07327413558960,-1.27846217155457,22.79855346679688,0.21582408249378,-0.28628921508789,9.83106231689453,-5.34273242950439,0.11083280295134,-0.37487715482712
614,879482825,-1.07300543785095,-1.27841293811798,22.79876327514648,0.22510117292404,-0.29923269152641,9.77705287933350,-5.36337709426880,0.09928077459335,-0.27344477176666
615,879491158,-1.07281875610352,-1.27786040306091,22.79846000671387,0.22979481518269,-0.28747454285622,9.78169345855713,-5.34483289718628,0.15919247269630,-0.31847456097603
616,879499491,-1.07227861881256,-1.27796995639801,22.79777526855469,0.20645219087601,-0.27671030163765,9.82772445678711,-5.33287143707275,0.08219608664513,-0.38053789734840
617,879507824,-1.07328832149506,-1.27855515480042,22.79826354980469,0.20924024283886,-0.27738711237907,9.77375698089600,-5.48604393005371,0.02018401585519,-0.23494656383991
618,879516157,-1.07312905788422,-1.27945661544800,22.79755020141602,0.21921615302563,-0.29830333590508,9.79260158538818,-5.37797784805298,-0.01333220861852,-0.38404706120491
619,879524490,-1.07378578186035,-1.27917540073395,22.79711151123047,0.22213144600391,-0.28755900263786,9.79496383666992,-5.44721317291260,0.12707222998142,-0.34572812914848
620,879532823,-1.07377123832703,-1.27859520912170,22.79742240905762,0.21476478874683,-0.29098898172379,9.80570507049561,-5.39395999908447,0.16252231597900,-0.25910076498985
621,879541156,-1.07386159896851,-1.27830886840820,22.79735946655273,0.22442424297333,-0.29091840982437,9.78716373443604,-5.37882375717163,0.12763574719429,-0.29893094301224
622,879549489,-1.07366406917572,-1.27787470817566,22.79753494262695,0.22703592479229,-0.28470695018768,9.78023433685303,-5.37060022354126,0.14582183957100,-0.27572441101074
623,879557822,-1.07425022125244,-1.27718520164490,22.79711151123047,0.22611780464649,-0.29800724983215,9.81292724609375,-5.43837594985962,0.17602103948593,-0.32997539639473
624,879566155,-1.07436895370483,-1.27693653106689,22.79603385925293,0.21471537649632,-0.28114089369774,9.80545139312744,-5.41117382049561,0.12561221420765,-0.42536282539368
625,879574488,-1.07460296154022,-1.27618789672852,22.79567718505859,0.21913661062717,-0.27611690759659,9.79044628143311,-5.39695835113525,0.18367968499660,-0.33397123217583
626,879582821,-1.07487976551056,-1.27631449699402,22.79612159729004,0.21433120965958,-0.30017456412315,9.78235340118408,-5.42682409286499,0.07609989494085,-0.24327121675014
627,879591154,-1.07412707805634,-1.27710366249084,22.79648017883301,0.20754058659077,-0.29418966174126,9.81009769439697,-5.27477788925171,-0.00359880016185,-0.25174951553345
628,879599487,-1.07407522201538,-1.27767622470856,22.79608726501465,0.22030311822891,-0.27862429618835,9.78150081634521,-5.39065694808960,0.02671564929187,-0.34536954760551
629,879607820,-1.07400035858154,-1.27763473987579,22.79543685913086,0.21927362680435,-0.27229717373848,9.78040313720703,-5.35897207260132,0.09833304584026,-0.37026655673981
630,879616153,-1.07429409027100,-1.27712154388428,22.79557800292969,0.19505842030048,-0.28352120518684,9.77809810638428,-5.43030786514282,0.15532472729683,-0.27869570255280
631,879624486,-1.07455801963806,-1.27706265449524,22.79512214660645,0.22375781834126,-0.26988354325294,9.77867317199707,-5.39788007736206,0.09979305416346,-0.34444746375084
632,879632819,-1.07410311698914,-1.27698528766632,22.79481315612793,0.23061995208263,-0.28321188688278,9.77667903900146,-5.34170722961426,0.10468537360430,-0.33468836545944
633,879641152,-1.07378602027893,-1.27648365497589,22.79438400268555,0.20593677461147,-0.27089005708694,9.78475952148438,-5.33038663864136,0.15296821296215,-0.33666071295738
634,879649485,-1.07458329200745,-1.27620935440063,22.79397010803223,0.22083179652691,-0.30284291505814,9.77428627014160,-5.49249887466431,0.12648309767246,-0.34531834721565
635,879657818,-1.07404565811157,-1.27650737762451,22.79382705688477,0.21192626655102,-0.30394464731216,9.77817249298096,-5.30226230621338,0.05724781006575,-0.30589801073074
636,879666151,-1.07446038722992,-1.27640783786774,22.79421043395996,0.21293219923973,-0.28901973366737,9.80749416351318,-5.44452333450317,0.10358396917582,-0.24972599744797
637,879674484,-1.07458865642548,-1.27655971050262,22.79357528686523,0.20331618189812,-0.27347788214684,9.80372810363770,-5.38253688812256,0.07738060504198,-0.37259745597839
638,879682817,-1.07477426528931,-1.27651429176331,22.79400062561035,0.21356599032879,-0.29213267564774,9.79985237121582,-5.41744852066040,0.09641197323799,-0.24703647196293
639,879691150,-1.07488024234772,-1.27611696720123,22.79360580444336,0.21090261638165,-0.28212741017342,9.79429817199707,-5.37979602813721,0.14228707551956,-0.31972965598106
640,879699483,-1.07513451576233,-1.27606654167175,22.79329299926758,0.22395889461040,-0.28123626112938,9.81128692626953,-5.42643976211548,0.09930638968945,-0.33486771583557
641,879707816,-1.07446789741516,-1.27664101123810,22.79342269897461,0.22846479713917,-0.27767604589462,9.79001808166504,-5.28781509399414,0.02348825149238,-0.27021735906601
642,879716149,-1.07405757904053,-1.27688980102539,22.79368591308594,0.22432436048985,-0.25898343324661,9.81489181518555,-5.34526872634888,0.06229382008314,-0.26622155308723
643,879724482,-1.07382810115814,-1.27650058269501,22.79446220397949,0.22517150640488,-0.27909424901009,9.82183742523193,-5.33643150329590,0.13780459761620,-0.20902498066425
644,879732815,-1.07320833206177,-1.27640688419342,22.79426383972168,0.22954526543617,-0.27636152505875,9.79826164245605,-5.32183122634888,0.10550504177809,-0.32057499885559
645,879741148,-1.07266461849213,-1.27608001232147,22.79434204101562,0.20420427620411,-0.27789774537086,9.78578662872314,-5.30113506317139,0.13191331923008,-0.28732767701149
646,879749481,-1.07258665561676,-1.27562928199768,22.79442977905273,0.20248059928417,-0.27967858314514,9.79154491424561,-5.38666057586670,0.14602676033974,-0.28558593988419
647,879757814,-1.07318747043610,-1.27657997608185,22.79432296752930,0.22478355467319,-0.28076711297035,9.79645156860352,-5.43965721130371,-0.02027366682887,-0.31486299633980
648,879766147,-1.07224321365356,-1.27541446685791,22.79388809204102,0.20541341602802,-0.27624401450157,9.77672672271729,-5.28258991241455,0.23303829133511,-0.34757235646248
649,879774480,-1.07160604000092,-1.27536880970001,22.79434013366699,0.22416229546070,-0.26969209313393,9.80390739440918,-5.28917312622070,0.09738531708717,-0.24124766886234
650,879782813,-1.07139170169830,-1.27577102184296,22.79492759704590,0.22599713504314,-0.27793073654175,9.78978443145752,-5.36791086196899,0.04321121051908,-0.22831246256828
651,879791146,-1.06030654907227,-1.27433204650879,22.79815483093262,0.22289498150349,-0.27781155705452,9.77476501464844,-5.39575338363647,0.05371304973960,-0.32677358388901
652,879799479,-1.06025910377502,-1.27369427680969,22.79814720153809,0.21572628617287,-0.27946177124977,9.78048801422119,-5.39096403121948,0.16966868937016,-0.29729163646698
653,879807812,-1.06045448780060,-1.27245283126831,22.79848098754883,0.22532457113266,-0.27426093816757,9.79132843017578,-5.38888931274414,0.24154224991798,-0.23932662606239
654,879816145,-1.05986607074738,-1.27174997329712,22.79802131652832,0.21048358082771,-0.28311538696289,9.77060794830322,-5.32736349105835,0.17771154642105,-0.35167059302330
655,879824478,-1.06039488315582,-1.27096056938171,22.79731941223145,0.21600989997387,-0.28269287943840,9.79512977600098,-5.43181896209717,0.18880252540112,-0.37544062733650
656,879832811,-1.05995738506317,-1.27088248729706,22.79713439941406,0.21934095025063,-0.29201805591583,9.79835605621338,-5.34455108642578,0.10281553864479,-0.31952476501465
657,879841144,-1.06017422676086,-1.27124643325806,22.79753494262695,0.21395593881607,-0.29275220632553,9.82212543487549,-5.39311552047729,0.04856459423900,-0.24736946821213
658,879849477,-1.05998122692108,-1.27127540111542,22.79691696166992,0.22738422453403,-0.29009681940079,9.81844329833984,-5.37492942810059,0.08982912451029,-0.37162414193153
659,879857810,-1.06058061122894,-1.27072799205780,22.79680252075195,0.20070733129978,-0.28025764226913,9.82795429229736,-5.43899059295654,0.15773245692253,-0.28179499506950
660,879866143,-1.06034457683563,-1.27043485641479,22.79755973815918,0.20641776919365,-0.28239351511002,9.82225894927979,-5.36599016189575,0.12743082642555,-0.20641231536865
661,879874476,-1.05988359451294,-1.27081465721130,22.79788017272949,0.23619522154331,-0.28547415137291,9.79535293579102,-5.31048440933228,0.04592632874846,-0.25274848937988
662,879882809,-1.05898225307465,-1.27125227451324,22.79739570617676,0.20954093337059,-0.28068643808365,9.77741527557373,-5.29047918319702,0.04251962900162,-0.35809981822968
663,879891142,-1.05899202823639,-1.27111351490021,22.79685592651367,0.22053270041943,-0.28750267624855,9.77388191223145,-5.36896181106567,0.10909102112055,-0.36058440804482
664,879899475,-1.05904829502106,-1.27092957496643,22.79732894897461,0.21473400294781,-0.29674825072289,9.77873611450195,-5.40264368057251,0.11393211781979,-0.24199047684669
665,879907808,-1.05917310714722,-1.27089965343475,22.79715919494629,0.20691481232643,-0.28409287333488,9.75272464752197,-5.38189649581909,0.09636075794697,-0.32170200347900
666,879916141,-1.05936753749847,-1.27006053924561,22.79681205749512,0.20299388468266,-0.28919944167137,9.77693748474121,-5.42072820663452,0.19477064907551,-0.33660948276520
667,879924474,-1.05926120281219,-1.27004718780518,22.79693984985352,0.22495386004448,-0.29133585095406,9.79929447174072,-5.35559082031250,0.09436284005642,-0.27093455195427
668,879932807,-1.05963540077209,-1.26991677284241,22.79702949523926,0.20532630383968,-0.28743714094162,9.80289459228516,-5.44022035598755,0.10819453746080,-0.28689226508141
669,879941140,-1.05922889709473,-1.26953756809235,22.79776763916016,0.22808310389519,-0.27963250875473,9.80956268310547,-5.31660604476929,0.13652385771275,-0.21289269626141
670,879949473,-1.05872154235840,-1.26970410346985,22.79806518554688,0.22154222428799,-0.30603551864624,9.77811431884766,-5.33456182479858,0.07333356887102,-0.26276364922523
671,879957806,-1.05881881713867,-1.26940011978149,22.79862213134766,0.21011629700661,-0.28764837980270,9.78377437591553,-5.37774801254272,0.12832732498646,-0.22201138734818
672,879966139,-1.05869269371033,-1.26933288574219,22.79786109924316,0.23068073391914,-0.28422489762306,9.80237293243408,-5.38268995285034,0.10232885926962,-0.38868319988251
673,879974472,-1.05884253978729,-1.26967024803162,22.79729652404785,0.21625778079033,-0.28170230984688,9.83328056335449,-5.38530349731445,0.05284217000008,-0.33901721239090
674,879982805,-1.05853378772736,-1.27003955841064,22.79712867736816,0.20692542195320,-0.29607793688774,9.79661655426025,-5.36014986038208,0.04951231926680,-0.31926864385605
675,879991138,-1.05845463275909,-1.26941680908203,22.79709243774414,0.19700738787651,-0.28472426533699,9.78979778289795,-5.35835790634155,0.16746588051319,-0.29426914453506
676,879999471,-1.05848741531372,-1.26991164684296,22.79740524291992,0.21573397517204,-0.28291720151901,9.79788112640381,-5.39895582199097,0.03253008052707,-0.26145735383034
677,880007804,-1.05931556224823,-1.26942241191864,22.79758834838867,0.23913140594959,-0.29642847180367,9.79413127899170,-5.46637248992920,0.15056048333645,-0.26891106367111
678,880016137,-1.05844831466675,-1.27042496204376,22.79806327819824,0.23236447572708,-0.29234525561333,9.80436897277832,-5.29076099395752,-0.02888004854321,-0.24142695963383
679,880024470,-1.05842697620392,-1.27130877971649,22.79820442199707,0.22832632064819,-0.27810427546501,9.79494762420654,-5.36391544342041,-0.01358835306019,-0.26629841327667
680,880032803,-1.05908215045929,-1.27167379856110,22.79803276062012,0.21400016546249,-0.27598187327385,9.82182502746582,-5.47479963302612,0.04953793436289,-0.31893566250801
681,880041136,-1.05974435806274,-1.27142608165741,22.79765129089355,0.20808430016041,-0.26058429479599,9.80903530120850,-5.44846820831299,0.12417780607939,-0.33602035045624
682,880049469,-1.05996036529541,-1.27173554897308,22.79701995849609,0.21026989817619,-0.29096859693527,9.80571842193604,-5.42311000823975,0.05632570758462,-0.37369892001152
683,880057802,-1.06016767024994,-1.27138268947601,22.79682540893555,0.23012691736221,-0.27365675568581,9.79453849792480,-5.39357614517212,0.13578104972839,-0.31296753883362
684,880066135,-1.06006383895874,-1.27176570892334,22.79653167724609,0.22196900844574,-0.26443800330162,9.78311729431152,-5.38553333282471,0.04766809567809,-0.33473962545395
685,880074468,-1.06050717830658,-1.27171182632446,22.79637908935547,0.20235605537891,-0.28967723250389,9.79488277435303,-5.42157268524170,0.10030534118414,-0.30228638648987
686,880082801,-1.05977320671082,-1.27173376083374,22.79642868041992,0.23666521906853,-0.27566111087799,9.78488636016846,-5.30792284011841,0.09008526802063,-0.29129788279533
687,880091134,-1.05862343311310,-1.27249872684479,22.79612541198730,0.20107325911522,-0.29598134756088,9.77236461639404,-5.23069572448730,0.00025614234619,-0.32106161117554
688,880099467,-1.05828750133514,-1.27239859104156,22.79608535766602,0.21813648939133,-0.25931045413017,9.80257511138916,-5.35607767105103,0.10558188706636,-0.30272185802460
689,880107800,-1.05799269676208,-1.27170515060425,22.79633331298828,0.23729273676872,-0.31135752797127,9.79669857025146,-5.32995080947876,0.17456100881100,-0.25454145669937
690,880116133,-1.05790758132935,-1.27144062519073,22.79651260375977,0.22042004764080,-0.28974431753159,9.80987453460693,-5.38573884963989,0.12481816112995,-0.27549389004707
691,880124466,-1.05839443206787,-1.27245593070984,22.79668235778809,0.20821590721607,-0.29142796993256,9.76810646057129,-5.42487716674805,-0.02913619019091,-0.27434125542641
