sep=,
DeviceTag:,Xsens DOT
FirmwareVersion:,3.0.0
AppVersion:,2023.6.0
StartTime: ,2025-02-06_09:51:01_000 PST
© Movella Technologies B. V. 2005-2025

PacketCounter,SampleTimeFine,Euler_X,Euler_Y,Euler_Z,Acc_X,Acc_Y,Acc_Z,Gyr_X,Gyr_Y,Gyr_Z
0,1189864524,-1.12806701660156,1.78391075134277,36.12092208862305,0.00000000000000,0.00000000000000,0.00000000000000,0.00000000000000,0.00000000000000,0.00000000000000
1,1189881191,-1.20402657985687,1.80234611034393,36.08658599853516,-0.28761282563210,-0.18467320501804,9.76960659027100,-5.37253379821777,0.11713331937790,-0.33693513274193
2,1189897858,-1.27643120288849,1.78768944740295,36.07511901855469,-0.30445346236229,-0.18632349371910,9.79408740997314,-5.41680479049683,0.14082503318787,-0.30900445580482
3,1189914525,-1.33936095237732,1.78055632114410,36.09811782836914,-0.29193139076233,-0.18253202736378,9.78659343719482,-5.39221668243408,0.07456497848034,-0.34364560246468
4,1189931192,-1.39631164073944,1.77205443382263,36.11485290527344,-0.31324812769890,-0.18858607113361,9.77171421051025,-5.42584705352783,0.12392065674067,-0.39262995123863
5,1189947859,-1.45349252223969,1.77426767349243,36.13213729858398,-0.30818420648575,-0.17856208980083,9.77898120880127,-5.37426233291626,0.17451855540276,-0.34321019053459
6,1189964526,-1.50760400295258,1.77727222442627,36.17803192138672,-0.28842172026634,-0.20928880572319,9.79314136505127,-5.33574056625366,0.11715891957283,-0.34187835454941
7,1189981193,-1.56783747673035,1.77522051334381,36.21346664428711,-0.31611979007721,-0.19321006536484,9.77581882476807,-5.31852912902832,0.04491828009486,-0.32268160581589
8,1189997860,-1.62878692150116,1.77746140956879,36.24969863891602,-0.30626690387726,-0.18994688987732,9.77120304107666,-5.33744335174561,0.11133201420307,-0.32794502377510
9,1190014527,-1.69060838222504,1.77958416938782,36.28351974487305,-0.29927453398705,-0.15882353484631,9.77715206146240,-5.40385770797729,0.09514478594065,-0.35841137170792
10,1190031194,-1.74807989597321,1.78122580051422,36.31422424316406,-0.29402288794518,-0.19881451129913,9.78559398651123,-5.34078645706177,0.10722117125988,-0.32960987091064
11,1190047861,-1.80748236179352,1.78268396854401,36.35421371459961,-0.29257285594940,-0.18368029594421,9.77853679656982,-5.34742069244385,0.15253005921841,-0.35460788011551
12,1190064528,-1.86700785160065,1.78385472297668,36.39113235473633,-0.29211094975471,-0.19268284738064,9.78659820556641,-5.34252738952637,0.17100961506367,-0.39702248573303
13,1190081195,-1.92724013328552,1.78285229206085,36.42592620849609,-0.30347138643265,-0.16978901624680,9.79904651641846,-5.34414243698120,0.06059325858951,-0.34413230419159
14,1190097862,-1.98735523223877,1.78321897983551,36.46265029907227,-0.29273441433907,-0.17650932073593,9.77425193786621,-5.37209796905518,0.12384383380413,-0.42537578940392
15,1190114529,-2.04716515541077,1.78310275077820,36.49998474121094,-0.30218935012817,-0.18980930745602,9.77949714660645,-5.35986757278442,0.10362258553505,-0.31661140918732
16,1190131196,-2.10762381553650,1.78273940086365,36.54007339477539,-0.29879087209702,-0.18449011445045,9.76325893402100,-5.35906124114990,0.07583280652761,-0.38257697224617
17,1190147863,-2.16889691352844,1.78342938423157,36.57740402221680,-0.29085603356361,-0.18724264204502,9.76332378387451,-5.39279317855835,0.12958106398582,-0.30312633514404
18,1190164530,-2.22982931137085,1.78311204910278,36.61575698852539,-0.29210811853409,-0.17321667075157,9.77122783660889,-5.35018634796143,0.07977716624737,-0.31369155645370
19,1190181197,-2.29172635078430,1.78326833248138,36.64865493774414,-0.28870424628258,-0.19367858767509,9.78268527984619,-5.41256618499756,0.11482815444469,-0.35661849379539
20,1190197864,-2.35314631462097,1.78298783302307,36.68817520141602,-0.29820263385773,-0.17961813509464,9.78517627716064,-5.35605192184448,0.09723223000765,-0.37986201047897
21,1190214531,-2.41471505165100,1.78391385078430,36.72419738769531,-0.30038687586784,-0.19591990113258,9.77751255035400,-5.36194181442261,0.16143044829369,-0.34758999943733
22,1190231198,-2.47692346572876,1.78354775905609,36.75731277465820,-0.31270542740822,-0.17034229636192,9.78693008422852,-5.37585020065308,0.07712625712156,-0.40158155560493
23,1190247865,-2.53909707069397,1.78469300270081,36.79044723510742,-0.30294167995453,-0.18388028442860,9.78854846954346,-5.38257312774658,0.14953336119652,-0.41582226753235
24,1190264532,-2.60093283653259,1.78576493263245,36.82413864135742,-0.29603511095047,-0.17823098599911,9.77533435821533,-5.35890722274780,0.13417854905128,-0.30053946375847
25,1190281199,-2.66299104690552,1.78583049774170,36.85688781738281,-0.29733890295029,-0.16721126437187,9.79537677764893,-5.36791038513184,0.07597367465496,-0.34107154607773
26,1190297866,-2.72486853599548,1.78634214401245,36.89128875732422,-0.29756951332092,-0.17908509075642,9.77874851226807,-5.36556673049927,0.10203459858894,-0.33232480287552
27,1190314533,-2.78698205947876,1.78806459903717,36.92240142822266,-0.29528409242630,-0.16819415986538,9.78786659240723,-5.37559413909912,0.17623461782932,-0.35202097892761
28,1190331200,-2.84802174568176,1.78866183757782,36.95243072509766,-0.31119576096535,-0.18264397978783,9.75368785858154,-5.31741476058960,0.10807920992374,-0.30681455135345
29,1190347867,-2.91007876396179,1.79005205631256,36.98225021362305,-0.30429488420486,-0.18261393904686,9.77612209320068,-5.36753845214844,0.14962299168110,-0.40342566370964
30,1190364534,-2.97168445587158,1.79172468185425,37.01203536987305,-0.30473655462265,-0.18205632269382,9.75825023651123,-5.33818626403809,0.16036753356457,-0.33757540583611
31,1190381201,-3.03368258476257,1.79294157028198,37.03932571411133,-0.30611693859100,-0.18255887925625,9.77610683441162,-5.35543632507324,0.13081046938896,-0.36947605013847
32,1190397868,-3.09572768211365,1.79337584972382,37.06400299072266,-0.29913511872292,-0.18551683425903,9.78653907775879,-5.35377168655396,0.08511741459370,-0.44119164347649
33,1190414535,-3.15840148925781,1.79529666900635,37.08484268188477,-0.29399621486664,-0.18849858641624,9.75664997100830,-5.38850307464600,0.17126575112343,-0.38398566842079
34,1190431202,-3.22049045562744,1.79718101024628,37.10732650756836,-0.30737012624741,-0.18577942252159,9.78297996520996,-5.34844446182251,0.17362210154533,-0.40767741203308
35,1190447869,-3.28229451179504,1.79823851585388,37.13078308105469,-0.30048236250877,-0.18783475458622,9.77609920501709,-5.33210372924805,0.11770958453417,-0.34282603859901
36,1190464536,-3.34368109703064,1.79947268962860,37.15034103393555,-0.29812759160995,-0.18740302324295,9.77486896514893,-5.30350685119629,0.13168130815029,-0.39817503094673
37,1190481203,-3.40604805946350,1.80121457576752,37.17394256591797,-0.29393917322159,-0.20758937299252,9.77793502807617,-5.36277484893799,0.15930460393429,-0.33835658431053
38,1190497870,-3.46963906288147,1.80247175693512,37.19123840332031,-0.29087573289871,-0.17569488286972,9.78784847259521,-5.42843294143677,0.13599704205990,-0.38504859805107
39,1190514537,-3.53185820579529,1.80271792411804,37.21035385131836,-0.28573814034462,-0.17004179954529,9.77695941925049,-5.35136508941650,0.07771533727646,-0.37782576680183
40,1190531204,-3.59398245811462,1.80452442169189,37.23058319091797,-0.28881517052650,-0.18299794197083,9.76947784423828,-5.35500097274780,0.17403191328049,-0.33865115046501
41,1190547871,-3.65513014793396,1.80626344680786,37.24781417846680,-0.28944030404091,-0.17066812515259,9.78109550476074,-5.29934549331665,0.17491556704044,-0.36156171560287
42,1190564538,-3.71788382530212,1.80687451362610,37.26478195190430,-0.29527258872986,-0.19711737334728,9.78187847137451,-5.40433120727539,0.10869390517473,-0.34993353486061
43,1190581205,-3.78088068962097,1.80825948715210,37.27992248535156,-0.29213508963585,-0.17264635860920,9.77606964111328,-5.42103052139282,0.15172325074673,-0.29107555747032
44,1190597872,-3.84390497207642,1.80936563014984,37.29420852661133,-0.30252596735954,-0.19594901800156,9.75684070587158,-5.43096923828125,0.13718806207180,-0.29815751314163
45,1190614539,-3.90478515625000,1.81033015251160,37.30869293212891,-0.31047493219376,-0.16966633498669,9.79073524475098,-5.30316209793091,0.12806993722916,-0.30986252427101
46,1190631206,-3.96616411209106,1.81190574169159,37.30374145507812,-0.29164886474609,-0.17604994773865,9.77368259429932,-5.34353971481323,0.16392770409584,-0.35043299198151
47,1190647873,-4.02701473236084,1.81303596496582,37.29879760742188,-0.30870324373245,-0.16609367728233,9.79088115692139,-5.31902790069580,0.13862232863903,-0.35218742489815
48,1190664540,-4.08859872817993,1.81502604484558,37.29361343383789,-0.30628874897957,-0.19986641407013,9.77816295623779,-5.37508201599121,0.18818292021751,-0.36428946256638
49,1190681207,-4.15070104598999,1.81466817855835,37.28835296630859,-0.30313748121262,-0.17424914240837,9.77188301086426,-5.40932655334473,0.04672397300601,-0.37806910276413
50,1190697874,-4.21205949783325,1.81622314453125,37.28324508666992,-0.29974225163460,-0.19150826334953,9.77144813537598,-5.37618303298950,0.15934301912785,-0.36124154925346
51,1190714541,-4.27217388153076,1.81682562828064,37.27853775024414,-0.31029069423676,-0.17847819626331,9.76424121856689,-5.30976963043213,0.10048503428698,-0.34144294261932
52,1190731208,-4.33292913436890,1.81740963459015,37.27259445190430,-0.30508768558502,-0.18892234563828,9.76433467864990,-5.35662794113159,0.10182970762253,-0.41692361235619
53,1190747875,-4.39387750625610,1.81820833683014,37.26813507080078,-0.30644249916077,-0.18289612233639,9.77964305877686,-5.37987136840820,0.10779746621847,-0.32645952701569
54,1190764542,-4.45472192764282,1.81958186626434,37.26285552978516,-0.30144089460373,-0.18216164410114,9.80647468566895,-5.38422584533691,0.14423152804375,-0.37248557806015
55,1190781209,-4.51444339752197,1.82130944728851,37.25806808471680,-0.30006819963455,-0.17701596021652,9.77487277984619,-5.32951688766479,0.16360752284527,-0.34287723898888
56,1190797876,-4.57498550415039,1.82326114177704,37.25322341918945,-0.31155857443810,-0.18707670271397,9.77503395080566,-5.39211463928223,0.17742557823658,-0.34397861361504
57,1190814543,-4.63547325134277,1.82328999042511,37.24877929687500,-0.30193606019020,-0.18879833817482,9.79713249206543,-5.40180826187134,0.05871072039008,-0.33215829730034
58,1190831210,-4.69445753097534,1.82487475872040,37.24424362182617,-0.29771423339844,-0.18407942354679,9.78121089935303,-5.32431840896606,0.15237638354301,-0.32941782474518
59,1190847877,-4.75312089920044,1.82705104351044,37.23849487304688,-0.31650382280350,-0.19477224349976,9.77117252349854,-5.31719684600830,0.19500871002674,-0.39798298478127
60,1190864544,-4.81217956542969,1.82889032363892,37.23444747924805,-0.29616969823837,-0.18017174303532,9.78846359252930,-5.35762691497803,0.16390210390091,-0.29941248893738
61,1190881211,-4.87074327468872,1.82995343208313,37.22972488403320,-0.29014152288437,-0.18664492666721,9.76419925689697,-5.34204101562500,0.12187164276838,-0.34495186805725
62,1190897878,-4.92887210845947,1.83194255828857,37.22500991821289,-0.30355629324913,-0.18197645246983,9.78516006469727,-5.33178377151489,0.17991003394127,-0.33961164951324
63,1190914545,-4.98769569396973,1.83386754989624,37.22004699707031,-0.28679257631302,-0.17878989875317,9.79228973388672,-5.39023256301880,0.17640110850334,-0.35546594858170
64,1190931212,-5.04671335220337,1.83453655242920,37.21601104736328,-0.28813993930817,-0.17870537936687,9.77608966827393,-5.42141532897949,0.09915317595005,-0.30692985653877
65,1190947879,-5.10431814193726,1.83502125740051,37.21004867553711,-0.28855538368225,-0.17329438030720,9.78161525726318,-5.35173559188843,0.10125341266394,-0.42245590686798
66,1190964546,-5.16117858886719,1.83669471740723,37.20587158203125,-0.30344021320343,-0.20499071478844,9.77863025665283,-5.33097743988037,0.16356913745403,-0.31002900004387
67,1190981213,-5.21774816513062,1.83817303180695,37.20182037353516,-0.30694791674614,-0.18191026151180,9.79896545410156,-5.33034992218018,0.15176166594028,-0.30409961938858
68,1190997880,-5.27474975585938,1.84084653854370,37.19775009155273,-0.30021968483925,-0.18384560942650,9.79278469085693,-5.37597846984863,0.22277289628983,-0.29951494932175
69,1191014547,-5.33011817932129,1.84271657466888,37.19320297241211,-0.31263604760170,-0.19971686601639,9.78222274780273,-5.29883241653442,0.17815554141998,-0.33390000462532
70,1191031214,-5.38642740249634,1.84420847892761,37.18815612792969,-0.31241446733475,-0.18659324944019,9.79060840606689,-5.37282848358154,0.15751172602177,-0.36633852124214
71,1191047881,-5.44152355194092,1.84571456909180,37.18350219726562,-0.29186654090881,-0.18100871145725,9.77242374420166,-5.32219123840332,0.15469431877136,-0.34182712435722
72,1191064548,-5.49729347229004,1.84664714336395,37.17994689941406,-0.30256220698357,-0.16634380817413,9.78201198577881,-5.38804197311401,0.11650577932596,-0.28089451789856
73,1191081215,-5.55152463912964,1.84939777851105,37.17641448974609,-0.30651038885117,-0.19648203253746,9.76060009002686,-5.32057762145996,0.22443769872189,-0.26883092522621
74,1191097882,-5.60602998733521,1.85104954242706,37.17184829711914,-0.30276572704315,-0.18588192760944,9.79282188415527,-5.35743474960327,0.16595110297203,-0.33801084756851
75,1191114549,-5.66111040115356,1.85227108001709,37.16722488403320,-0.30325627326965,-0.18316905200481,9.77072334289551,-5.41587066650391,0.13985177874565,-0.34459334611893
76,1191131216,-5.71589279174805,1.85296499729156,37.16263580322266,-0.31005692481995,-0.20026747882366,9.79140281677246,-5.42339992523193,0.10955193638802,-0.34643745422363
77,1191147883,-5.76897525787354,1.85307514667511,37.15727615356445,-0.30582833290100,-0.20147988200188,9.79004192352295,-5.34462785720825,0.07840688526630,-0.39586991071701
78,1191164550,-5.82131814956665,1.85443675518036,37.15259552001953,-0.30184036493301,-0.19095247983932,9.81231212615967,-5.32472705841064,0.14948213100433,-0.34875532984734
79,1191181217,-5.87255716323853,1.85580873489380,37.14781570434570,-0.28772738575935,-0.18144446611404,9.79209613800049,-5.28637218475342,0.15164640545845,-0.35433897376060
80,1191197884,-5.92434883117676,1.85514283180237,37.14353179931641,-0.30175414681435,-0.17740835249424,9.76466083526611,-5.34775304794312,0.02980678156018,-0.34080260992050
81,1191214551,-5.97578477859497,1.85588324069977,37.13932800292969,-0.30119395256042,-0.18031872808933,9.78350925445557,-5.35496282577515,0.11275352537632,-0.32813712954521
82,1191231218,-6.02693939208984,1.85679936408997,37.13445663452148,-0.31252217292786,-0.19271174073219,9.77897167205811,-5.36591243743896,0.12823638319969,-0.36494258046150
83,1191247885,-6.07674551010132,1.85854554176331,37.13050460815430,-0.32678565382957,-0.19850364327431,9.79183769226074,-5.31555747985840,0.17229023575783,-0.30695542693138
84,1191264552,-6.12557649612427,1.86033523082733,37.12633514404297,-0.29996925592422,-0.18539106845856,9.77506446838379,-5.28539896011353,0.17427523434162,-0.32238709926605
85,1191281219,-6.17479372024536,1.86125266551971,37.12079620361328,-0.30892601609230,-0.17618186771870,9.80019092559814,-5.33627843856812,0.13141235709190,-0.40916290879250
86,1191297886,-6.22426414489746,1.86221754550934,37.11561203002930,-0.29542461037636,-0.19320085644722,9.77107906341553,-5.38343191146851,0.13234724104404,-0.38949236273766
87,1191314553,-6.27194881439209,1.86324727535248,37.11134338378906,-0.29963901638985,-0.19027619063854,9.78064155578613,-5.30988454818726,0.13225759565830,-0.33515506982803
88,1191331220,-6.32069826126099,1.86351132392883,37.10669326782227,-0.29839277267456,-0.17751869559288,9.79075622558594,-5.40439558029175,0.08945877104998,-0.36379000544548
89,1191347887,-6.36707353591919,1.86281013488770,37.10187530517578,-0.28386098146439,-0.18780708312988,9.76992988586426,-5.29513216018677,0.03449390828609,-0.38144996762276
90,1191364554,-6.41440486907959,1.86326968669891,37.09718322753906,-0.29086774587631,-0.16359023749828,9.78361415863037,-5.38617181777954,0.10535145550966,-0.36673548817635
91,1191381221,-6.46004581451416,1.86384057998657,37.09328079223633,-0.29653987288475,-0.18685956299305,9.77566146850586,-5.32083415985107,0.10797674953938,-0.31878849864006
92,1191397888,-6.50563526153564,1.86500942707062,37.09027099609375,-0.29815381765366,-0.16759641468525,9.78687572479248,-5.35425853729248,0.13904497027397,-0.26237651705742
93,1191414555,-6.55025243759155,1.86595880985260,37.08520889282227,-0.28932052850723,-0.18376064300537,9.77445697784424,-5.32805633544922,0.14095309376717,-0.38711038231850
94,1191431222,-6.59482955932617,1.86695134639740,37.08195877075195,-0.30376577377319,-0.16753041744232,9.78622436523438,-5.36467075347900,0.13276985287666,-0.27931937575340
95,1191447889,-6.63872480392456,1.86839270591736,37.07689285278320,-0.30041372776031,-0.19083920121193,9.77551651000977,-5.35760116577148,0.17298179864883,-0.38728967308998
96,1191464556,-6.68307638168335,1.86908447742462,37.07165145874023,-0.30572661757469,-0.18565329909325,9.80517292022705,-5.42016029357910,0.13029824197292,-0.40299028158188
97,1191481223,-6.72556066513062,1.86930990219116,37.06698608398438,-0.30331766605377,-0.19019350409508,9.78984546661377,-5.34639549255371,0.09785973280668,-0.37165313959122
98,1191497890,-6.76783180236816,1.87060010433197,37.06331253051758,-0.29451438784599,-0.19037538766861,9.75674629211426,-5.37259721755981,0.15603898465633,-0.30721154808998
99,1191514557,-6.81009483337402,1.87248480319977,37.05905532836914,-0.30176201462746,-0.17957797646523,9.77905559539795,-5.40760993957520,0.19710895419121,-0.34025195240974
100,1191531224,-6.85112428665161,1.87250304222107,37.05551147460938,-0.31226983666420,-0.18958941102028,9.77866840362549,-5.37287902832031,0.08149322122335,-0.31070768833160
101,1191547891,-6.89194345474243,1.87407648563385,37.05184555053711,-0.29273074865341,-0.17415438592434,9.76759624481201,-5.39919567108154,0.17495396733284,-0.30908128619194
102,1191564558,-6.93178510665894,1.87469208240509,37.04776763916016,-0.30435395240784,-0.17739132046700,9.78872013092041,-5.37864208221436,0.12252477556467,-0.34041842818260
103,1191581225,-6.97027158737183,1.87572467327118,37.04415130615234,-0.31291863322258,-0.18547259271145,9.76820468902588,-5.33885288238525,0.14416749775410,-0.31064364314079
104,1191597892,-7.00849056243896,1.87523043155670,37.03955459594727,-0.31522846221924,-0.18868653476238,9.78292655944824,-5.35998296737671,0.06128479167819,-0.38412651419640
105,1191614559,-7.04597043991089,1.87698614597321,37.03612899780273,-0.30845895409584,-0.17521645128727,9.76883220672607,-5.35790777206421,0.18569847941399,-0.29733783006668
106,1191631226,-7.08272123336792,1.87678039073944,37.03247833251953,-0.30352914333344,-0.17403869330883,9.77598094940186,-5.35511636734009,0.07145303487778,-0.32748401165009
107,1191647893,-7.11867952346802,1.87581670284271,37.02784729003906,-0.30831411480904,-0.17893724143505,9.76908969879150,-5.34607601165771,0.03426339849830,-0.39312937855721
108,1191664560,-7.15385723114014,1.87679111957550,37.02403259277344,-0.29488503932953,-0.19487091898918,9.78451251983643,-5.34305286407471,0.14315579831600,-0.32876467704773
109,1191681227,-7.18879222869873,1.87711930274963,37.01979827880859,-0.30107465386391,-0.18089261651039,9.79024028778076,-5.36784648895264,0.11037155240774,-0.36044758558273
110,1191697894,-7.22314023971558,1.87843859195709,37.01634597778320,-0.29879194498062,-0.18191328644753,9.77757740020752,-5.37684869766235,0.16337701678276,-0.30815923213959
111,1191714561,-7.25538063049316,1.87930881977081,37.01139068603516,-0.29848384857178,-0.18333752453327,9.78434371948242,-5.28889513015747,0.15000720322132,-0.40296468138695
112,1191731228,-7.28720235824585,1.87908065319061,37.00798416137695,-0.29423132538795,-0.18483862280846,9.76044273376465,-5.30875730514526,0.07337398082018,-0.31928795576096
113,1191747895,-7.31933736801147,1.87966823577881,37.00369262695312,-0.28018671274185,-0.18062339723110,9.78139209747314,-5.36860132217407,0.13083608448505,-0.36781120300293
114,1191764562,-7.35067510604858,1.87942481040955,37.00123977661133,-0.29712620377541,-0.18582184612751,9.79590988159180,-5.36719322204590,0.06907105445862,-0.26642334461212
115,1191781229,-7.38104152679443,1.88018095493317,36.99659347534180,-0.29934105277061,-0.18364733457565,9.77826976776123,-5.34718942642212,0.14701050519943,-0.38936427235603
116,1191797896,-7.41043281555176,1.88108003139496,36.99319458007812,-0.28242105245590,-0.18458124995232,9.76205062866211,-5.33456230163574,0.14689525961876,-0.31529235839844
117,1191814563,-7.43932962417603,1.88224053382874,36.98824310302734,-0.29686552286148,-0.18615296483040,9.78285789489746,-5.34398841857910,0.17755366861820,-0.40716511011124
118,1191831230,-7.46747589111328,1.88271331787109,36.98348236083984,-0.29562303423882,-0.18298266828060,9.77391147613525,-5.34329652786255,0.13519026339054,-0.40290060639381
119,1191847897,-7.49599885940552,1.88162219524384,36.97854614257812,-0.28064650297165,-0.16991309821606,9.77629947662354,-5.40894174575806,0.04473898559809,-0.42556789517403
120,1191864564,-7.52258443832397,1.88215255737305,36.97404098510742,-0.29087093472481,-0.18653547763824,9.76357650756836,-5.33757162094116,0.14053049683571,-0.38918501138687
121,1191881231,-7.54906177520752,1.88220953941345,36.97135543823242,-0.28860819339752,-0.18749736249447,9.76049613952637,-5.37829637527466,0.09999839961529,-0.28614512085915
122,1191897898,-7.57502126693726,1.88244962692261,36.96798324584961,-0.29209449887276,-0.18875773251057,9.80767250061035,-5.38942480087280,0.11773518472910,-0.32565268874168
123,1191914565,-7.60097360610962,1.88316595554352,36.96350097656250,-0.29449769854546,-0.17492398619652,9.78229522705078,-5.43028974533081,0.15588530898094,-0.39042723178864
124,1191931232,-7.62466001510620,1.88330173492432,36.95943450927734,-0.30856645107269,-0.18552085757256,9.76701068878174,-5.33992815017700,0.11996349692345,-0.37069264054298
125,1191947899,-7.64820194244385,1.88487505912781,36.95495223999023,-0.30932262539864,-0.18128561973572,9.77530479431152,-5.37382698059082,0.20863468945026,-0.38675183057785
126,1191964566,-7.67123889923096,1.88570833206177,36.95288848876953,-0.30262273550034,-0.18699952960014,9.77882385253906,-5.39228105545044,0.14621651172638,-0.24890424311161
127,1191981233,-7.69258880615234,1.88585340976715,36.94885253906250,-0.30148589611053,-0.18288162350655,9.79456043243408,-5.33128404617310,0.12199970334768,-0.37311306595802
128,1191997900,-7.71308660507202,1.88703525066376,36.94541931152344,-0.30670657753944,-0.18276168406010,9.80111980438232,-5.32477855682373,0.17870621383190,-0.33032703399658
129,1192014567,-7.73289537429810,1.88825833797455,36.94204330444336,-0.31090855598450,-0.18750968575478,9.78612804412842,-5.32768535614014,0.18186940252781,-0.32922568917274
130,1192031234,-7.75187730789185,1.88790822029114,36.94018554687500,-0.30332010984421,-0.18712177872658,9.80124568939209,-5.32513761520386,0.07592245936394,-0.25193935632706
131,1192047901,-7.77139520645142,1.88873255252838,36.93688583374023,-0.29821839928627,-0.19219067692757,9.79190349578857,-5.39844036102295,0.15933020412922,-0.33005809783936
132,1192064568,-7.78919029235840,1.88876783847809,36.93272018432617,-0.31089487671852,-0.17860862612724,9.79666900634766,-5.33582973480225,0.11977139860392,-0.38924905657768
133,1192081235,-7.80552244186401,1.89011871814728,36.92905044555664,-0.29510134458542,-0.16896878182888,9.78582668304443,-5.29237794876099,0.19417628645897,-0.34922918677330
134,1192097902,-7.82232475280762,1.89043629169464,36.92395401000977,-0.29745030403137,-0.17890869081020,9.78200721740723,-5.36310815811157,0.14533288776875,-0.44526407122612
135,1192114569,-7.83798885345459,1.89187026023865,36.92139816284180,-0.29975506663322,-0.19359540939331,9.78457450866699,-5.34287452697754,0.19283165037632,-0.28605550527573
136,1192131236,-7.85413789749146,1.89168429374695,36.91764831542969,-0.29950350522995,-0.18391294777393,9.77192592620850,-5.41255331039429,0.10677294433117,-0.37215256690979
137,1192147903,-7.86880731582642,1.89147531986237,36.91427993774414,-0.30930876731873,-0.18249642848969,9.79216289520264,-5.36688661575317,0.10391714423895,-0.35011288523674
138,1192164570,-7.88303995132446,1.89230561256409,36.91135787963867,-0.29877811670303,-0.19118186831474,9.79242038726807,-5.38516092300415,0.16190430521965,-0.31584304571152
139,1192181237,-7.89761018753052,1.89396429061890,36.90758132934570,-0.29683595895767,-0.18636189401150,9.79469966888428,-5.44528579711914,0.21937920153141,-0.36250939965248
140,1192197904,-7.90916872024536,1.89343261718750,36.90485763549805,-0.27927657961845,-0.17537707090378,9.79099082946777,-5.30882215499878,0.08105780184269,-0.31807133555412
141,1192214571,-7.92110967636108,1.89341616630554,36.90164947509766,-0.29609835147858,-0.17376227676868,9.76820278167725,-5.37381410598755,0.11882373690605,-0.34294128417969
142,1192231238,-7.93267917633057,1.89327228069305,36.89835739135742,-0.28919291496277,-0.19523259997368,9.79563045501709,-5.39402246475220,0.11299683898687,-0.35109889507294
143,1192247905,-7.94379949569702,1.89279127120972,36.89440536499023,-0.30006739497185,-0.17000050842762,9.78954982757568,-5.40582990646362,0.10042100399733,-0.39383372664452
144,1192264572,-7.95247793197632,1.89221858978271,36.89023208618164,-0.30110377073288,-0.19563566148281,9.78966999053955,-5.30149698257446,0.09721942245960,-0.40961113572121
145,1192281239,-7.96159791946411,1.89161789417267,36.88844680786133,-0.28535705804825,-0.17983406782150,9.79761314392090,-5.37313508987427,0.07653716206551,-0.26948404312134
146,1192297906,-7.96987104415894,1.89111995697021,36.88555526733398,-0.29280918836594,-0.19832231104374,9.79176902770996,-5.36119985580444,0.09410747140646,-0.33511659502983
147,1192314573,-7.97751760482788,1.89120066165924,36.88273239135742,-0.29263773560524,-0.17575211822987,9.77693557739258,-5.36361980438232,0.12872302532196,-0.32784256339073
148,1192331240,-7.98492908477783,1.89063882827759,36.87884902954102,-0.29850164055824,-0.18814493715763,9.78011894226074,-5.38845157623291,0.10116378217936,-0.39716336131096
149,1192347907,-7.99193620681763,1.89009988307953,36.87478637695312,-0.29885593056679,-0.19270363450050,9.77014446258545,-5.40217971801758,0.10486480593681,-0.40835610032082
150,1192364574,-7.99816274642944,1.88911867141724,36.87290954589844,-0.31030440330505,-0.18768969178200,9.76245784759521,-5.39937496185303,0.06037553772330,-0.28323808312416
151,1192381241,-8.00306892395020,1.88837575912476,36.86954116821289,-0.30365157127380,-0.18224386870861,9.78692722320557,-5.35528230667114,0.08856232464314,-0.37142258882523
152,1192397908,-8.00718212127686,1.88746643066406,36.86665725708008,-0.30514883995056,-0.17883853614330,9.79872512817383,-5.34749650955200,0.07393746823072,-0.34511837363243
153,1192414575,-8.01102352142334,1.88844144344330,36.86318969726562,-0.31001806259155,-0.18242688477039,9.76458835601807,-5.36867856979370,0.19183272123337,-0.36564692854881
154,1192431242,-8.01527786254883,1.88754010200500,36.85912322998047,-0.31354707479477,-0.18560236692429,9.79553985595703,-5.43094253540039,0.08538634330034,-0.41761508584023
155,1192447909,-8.01885890960693,1.88758409023285,36.85560226440430,-0.29665574431419,-0.18421179056168,9.78912639617920,-5.42870187759399,0.13675262033939,-0.37832525372505
156,1192464576,-8.02069759368896,1.88668656349182,36.85300827026367,-0.30463361740112,-0.17957757413387,9.79943180084229,-5.36280059814453,0.07391186803579,-0.33304199576378
157,1192481243,-8.02161121368408,1.88655591011047,36.85074615478516,-0.31214150786400,-0.18474042415619,9.76956462860107,-5.34556341171265,0.11801693588495,-0.30773666501045
158,1192497910,-8.02260494232178,1.88656806945801,36.84854888916016,-0.30706703662872,-0.20180198550224,9.78305625915527,-5.38664627075195,0.12453537434340,-0.30295988917351
159,1192514577,-8.02308464050293,1.88592004776001,36.84554290771484,-0.29863131046295,-0.18072614073753,9.76656055450439,-5.38921976089478,0.09344153851271,-0.35810402035713
160,1192531244,-8.02258777618408,1.88485598564148,36.84189224243164,-0.29903590679169,-0.18748745322227,9.77319908142090,-5.36467075347900,0.07439849525690,-0.40179926156998
161,1192547911,-8.02153968811035,1.88431024551392,36.83930969238281,-0.30226093530655,-0.18480290472507,9.76901912689209,-5.36810255050659,0.09721942245960,-0.33448910713196
162,1192564578,-8.02024936676025,1.88411879539490,36.83621215820312,-0.29712444543839,-0.20435932278633,9.78558731079102,-5.38695335388184,0.12299859523773,-0.36268866062164
163,1192581245,-8.01735973358154,1.88343071937561,36.83287429809570,-0.31522125005722,-0.19511209428310,9.78872585296631,-5.32354879379272,0.09642541408539,-0.38329407572746
164,1192597912,-8.01436328887939,1.88228726387024,36.82944488525391,-0.30117240548134,-0.17352950572968,9.76502704620361,-5.35112094879150,0.07004433870316,-0.39178469777107
165,1192614579,-8.01083946228027,1.88238286972046,36.82674026489258,-0.29528805613518,-0.18133665621281,9.78000259399414,-5.35405349731445,0.13767468929291,-0.34005984663963
166,1192631246,-8.00579166412354,1.88321554660797,36.82314300537109,-0.29518327116966,-0.17608129978180,9.78425502777100,-5.29290342330933,0.19012950360775,-0.38923627138138
167,1192647913,-8.00179386138916,1.88269793987274,36.82095336914062,-0.30457687377930,-0.20249333977699,9.78568267822266,-5.39210176467896,0.09948613494635,-0.31638088822365
168,1192664580,-7.99703741073608,1.88207769393921,36.81951141357422,-0.29997634887695,-0.18198105692863,9.79319000244141,-5.37944841384888,0.08659014850855,-0.27424803376198
169,1192681247,-7.99180126190186,1.88434970378876,36.81457138061523,-0.29593375325203,-0.19055324792862,9.78239822387695,-5.37456941604614,0.28813648223877,-0.45824962854385
170,1192697914,-7.98407888412476,1.88383936882019,36.81256866455078,-0.29714503884315,-0.16952416300774,9.79199886322021,-5.26150226593018,0.10035697370768,-0.30863305926323
171,1192714581,-7.97666406631470,1.88465392589569,36.80902099609375,-0.28912454843521,-0.18474043905735,9.77267932891846,-5.30806636810303,0.19139732420444,-0.39164382219315
172,1192731248,-7.97011041641235,1.88321292400360,36.80620956420898,-0.29527920484543,-0.18419960141182,9.77961635589600,-5.39103794097900,0.05308872833848,-0.36522430181503
173,1192747915,-7.96320056915283,1.88323557376862,36.80299377441406,-0.30880299210548,-0.17595939338207,9.78583908081055,-5.39818477630615,0.14420591294765,-0.37849172949791
174,1192764582,-7.95450067520142,1.88298416137695,36.80120086669922,-0.29345867037773,-0.18966746330261,9.76794433593750,-5.32265186309814,0.11641614884138,-0.29772204160690
175,1192781249,-7.94608783721924,1.88312780857086,36.79845809936523,-0.29059046506882,-0.18328745663166,9.77475833892822,-5.36637401580811,0.14817589521408,-0.35059949755669
176,1192797916,-7.93700933456421,1.88269007205963,36.79566574096680,-0.29139870405197,-0.18222351372242,9.79517936706543,-5.35338735580444,0.11590386927128,-0.36168974637985
177,1192814583,-7.92743444442749,1.88316154479980,36.79306793212891,-0.31151452660561,-0.16501604020596,9.78980064392090,-5.35203027725220,0.16862761974335,-0.34194236993790
178,1192831250,-7.91860914230347,1.88274013996124,36.79162216186523,-0.30739483237267,-0.17722181975842,9.79144668579102,-5.42676830291748,0.10660648345947,-0.28226479887962
179,1192847917,-7.90821266174316,1.88248276710510,36.78855514526367,-0.29525065422058,-0.16082403063774,9.77175712585449,-5.35605096817017,0.12897916138172,-0.37739035487175
180,1192864584,-7.89737129211426,1.88307678699493,36.78572082519531,-0.29489818215370,-0.17766158282757,9.79008865356445,-5.35719156265259,0.17898799479008,-0.35627272725105
181,1192881251,-7.88655662536621,1.88297498226166,36.78334426879883,-0.30487206578255,-0.16762761771679,9.78294372558594,-5.38559579849243,0.13457554578781,-0.33707597851753
182,1192897918,-7.87459325790405,1.88319635391235,36.78004837036133,-0.29771608114243,-0.18960894644260,9.77110767364502,-5.33990287780762,0.16136641800404,-0.38777634501457
183,1192914585,-7.86206436157227,1.88428354263306,36.77825546264648,-0.31427383422852,-0.18489399552345,9.78616809844971,-5.33292341232300,0.20183451473713,-0.29496869444847
184,1192931252,-7.84946203231812,1.88512706756592,36.77579498291016,-0.30489307641983,-0.18466204404831,9.77329254150391,-5.35068607330322,0.19116683304310,-0.33638441562653
185,1192947919,-7.83666801452637,1.88488936424255,36.77238464355469,-0.30945459008217,-0.18006475269794,9.78186798095703,-5.36128902435303,0.13622754812241,-0.40329757332802
186,1192964586,-7.82368135452271,1.88224136829376,36.77035522460938,-0.30179125070572,-0.17417556047440,9.78798484802246,-5.37391614913940,-0.01965774782002,-0.34095630049706
187,1192981253,-7.81019687652588,1.88154172897339,36.76720428466797,-0.28730648756027,-0.18855896592140,9.79187583923340,-5.36561822891235,0.10643999278545,-0.39193841814995
188,1192997920,-7.79571866989136,1.88318312168121,36.76499938964844,-0.28818744421005,-0.16794501245022,9.76891136169434,-5.32886362075806,0.23910099267960,-0.31744384765625
189,1193014587,-7.78065109252930,1.88278985023499,36.76187515258789,-0.29795536398888,-0.19523511826992,9.80125904083252,-5.31402063369751,0.12645632028580,-0.38896733522415
190,1193031254,-7.76585197448730,1.88156235218048,36.75996017456055,-0.30031216144562,-0.18146173655987,9.77534580230713,-5.35324716567993,0.06759832054377,-0.32503801584244
191,1193047921,-7.75126504898071,1.88141238689423,36.75692367553711,-0.29727280139923,-0.18149672448635,9.78082466125488,-5.38340616226196,0.14106836915016,-0.38538151979446
192,1193064588,-7.73671483993530,1.88163542747498,36.75403976440430,-0.30640152096748,-0.17424291372299,9.78750801086426,-5.40586853027344,0.16315932571888,-0.37388142943382
193,1193081255,-7.72102880477905,1.88188469409943,36.75115203857422,-0.29263824224472,-0.16703492403030,9.79043006896973,-5.35760116577148,0.16374842822552,-0.37448334693909
194,1193097922,-7.70583724975586,1.88156306743622,36.74849700927734,-0.28659740090370,-0.19297543168068,9.80514812469482,-5.40769958496094,0.12910723686218,-0.36261183023453
195,1193114589,-7.68927431106567,1.88183796405792,36.74571990966797,-0.28840595483780,-0.17250590026379,9.78921318054199,-5.34237480163574,0.16686035692692,-0.36654341220856
196,1193131256,-7.67268562316895,1.88139867782593,36.74373626708984,-0.29992219805717,-0.18210807442665,9.79162597656250,-5.36092996597290,0.11906705051661,-0.32677963376045
197,1193147923,-7.65573215484619,1.88159072399139,36.74189376831055,-0.30465245246887,-0.16183649003506,9.79402828216553,-5.35784435272217,0.15578286349773,-0.31196272373199
198,1193164590,-7.63846540451050,1.88075745105743,36.73988342285156,-0.30929276347160,-0.18203580379486,9.77581214904785,-5.35617971420288,0.09661751985550,-0.33121067285538
199,1193181257,-7.62077522277832,1.88114464282990,36.73612594604492,-0.30452802777290,-0.18179652094841,9.78150272369385,-5.34409046173096,0.18201026320457,-0.42482507228851
200,1193197924,-7.60325050354004,1.88245546817780,36.73347091674805,-0.29129931330681,-0.19631156325340,9.77292919158936,-5.37204694747925,0.22871501743793,-0.35451823472977
201,1193214591,-7.58470582962036,1.88209390640259,36.73115158081055,-0.28958606719971,-0.18232031166553,9.77245903015137,-5.32603359222412,0.12787781655788,-0.34883216023445
202,1193231258,-7.56634712219238,1.88235235214233,36.72889709472656,-0.30903387069702,-0.16475373506546,9.78281116485596,-5.35204315185547,0.16437591612339,-0.33981657028198
203,1193247925,-7.54651975631714,1.88208639621735,36.72687530517578,-0.31021845340729,-0.17901800572872,9.76745700836182,-5.28098058700562,0.13130991160870,-0.33078804612160
204,1193264592,-7.52757740020752,1.88170671463013,36.72418975830078,-0.30559504032135,-0.17617867887020,9.78369712829590,-5.34624195098877,0.13032384216785,-0.37523892521858
205,1193281259,-7.50788736343384,1.88204050064087,36.72067642211914,-0.30987313389778,-0.18487904965878,9.78944587707520,-5.31404638290405,0.17887268960476,-0.41628322005272
206,1193297926,-7.48801660537720,1.88129639625549,36.71709442138672,-0.31065148115158,-0.17106430232525,9.77181339263916,-5.31645393371582,0.11453360319138,-0.42930734157562
207,1193314593,-7.46845912933350,1.88077437877655,36.71443939208984,-0.30445343255997,-0.19534243643284,9.77909851074219,-5.35066032409668,0.12030927091837,-0.37038528919220
208,1193331260,-7.44831275939941,1.88004541397095,36.71184539794922,-0.31730154156685,-0.17056122422218,9.76522731781006,-5.32712221145630,0.10750292241573,-0.37161472439766
209,1193347927,-7.42891836166382,1.87929582595825,36.71077346801758,-0.29826506972313,-0.20082263648510,9.78416347503662,-5.38701772689819,0.09372327476740,-0.28198304772377
210,1193364594,-7.40866184234619,1.87928521633148,36.70797729492188,-0.31772372126579,-0.17013198137283,9.77618312835693,-5.34307909011841,0.15192815661430,-0.37934973835945
211,1193381261,-7.38896274566650,1.87871479988098,36.70610809326172,-0.30469405651093,-0.17450685799122,9.78656959533691,-5.39091062545776,0.11049959808588,-0.32336035370827
212,1193397928,-7.36847829818726,1.87769246101379,36.70392608642578,-0.28792086243629,-0.17214630544186,9.78753662109375,-5.35386180877686,0.08584737777710,-0.34733387827873
213,1193414595,-7.34831380844116,1.87776803970337,36.70049285888672,-0.28736644983292,-0.18448430299759,9.78353023529053,-5.38090801239014,0.16145604848862,-0.41788405179977
214,1193431262,-7.32740926742554,1.87744140625000,36.69857788085938,-0.29160162806511,-0.18707172572613,9.77785968780518,-5.35000753402710,0.12760888040066,-0.32875183224678
215,1193447929,-7.30640697479248,1.87747514247894,36.69553375244141,-0.30033040046692,-0.15684133768082,9.78571033477783,-5.35160779953003,0.15816484391689,-0.39594677090645
216,1193464596,-7.28516530990601,1.87756860256195,36.69319915771484,-0.29783755540848,-0.17566642165184,9.77643394470215,-5.34914875030518,0.15519377589226,-0.34908831119537
217,1193481263,-7.26443624496460,1.87525689601898,36.69187164306641,-0.29291719198227,-0.16866724193096,9.76765060424805,-5.39078235626221,0.00570522947237,-0.30928617715836
218,1193497930,-7.24343299865723,1.87359738349915,36.68945693969727,-0.26742130517960,-0.18569959700108,9.77661037445068,-5.38180494308472,0.05358817428350,-0.36923271417618
219,1193514597,-7.22070598602295,1.87365627288818,36.68863296508789,-0.29253295063972,-0.15876345336437,9.79027462005615,-5.28921508789062,0.14619089663029,-0.26383644342422
220,1193531264,-7.19952487945557,1.87415289878845,36.68548583984375,-0.28459280729294,-0.17836895585060,9.78362464904785,-5.38637685775757,0.18943795561790,-0.39903306961060
221,1193547931,-7.17787504196167,1.87376749515533,36.68349456787109,-0.31438055634499,-0.19210928678513,9.78475761413574,-5.36838436126709,0.12917126715183,-0.33382314443588
222,1193564598,-7.15591669082642,1.87250983715057,36.68053054809570,-0.29514390230179,-0.18106755614281,9.79203510284424,-5.35416889190674,0.08400325477123,-0.40251639485359
223,1193581265,-7.13376522064209,1.87239313125610,36.67874145507812,-0.30237868428230,-0.17861045897007,9.80402946472168,-5.35178709030151,0.14364244043827,-0.32045331597328
224,1193597932,-7.11056756973267,1.87217342853546,36.67712402343750,-0.30840519070625,-0.16669656336308,9.76885414123535,-5.29668092727661,0.13620194792747,-0.31241092085838
225,1193614599,-7.08953762054443,1.87196958065033,36.67442321777344,-0.30246075987816,-0.18294700980186,9.77701854705811,-5.43131494522095,0.14507675170898,-0.37557187676430
226,1193631266,-7.06699657440186,1.87137305736542,36.67250823974609,-0.30883395671844,-0.18014588952065,9.78824710845947,-5.34779119491577,0.11596789956093,-0.33299073576927
227,1193647933,-7.04416370391846,1.87072265148163,36.66990280151367,-0.30259317159653,-0.19391851127148,9.77387428283691,-5.33504867553711,0.11678752303123,-0.37365087866783
228,1193664600,-7.02082347869873,1.87061190605164,36.66845703125000,-0.30460214614868,-0.18431429564953,9.79066276550293,-5.31061458587646,0.14091470837593,-0.30260124802589
229,1193681267,-6.99996089935303,1.87086248397827,36.66654968261719,-0.30889102816582,-0.18984009325504,9.79009914398193,-5.46398258209229,0.16633526980877,-0.32870060205460
230,1193697934,-6.97736740112305,1.87101876735687,36.66486740112305,-0.31919586658478,-0.16836592555046,9.78126430511475,-5.36474704742432,0.15861307084560,-0.31638088822365
231,1193714601,-6.95471382141113,1.86978435516357,36.66285705566406,-0.30882671475410,-0.16981840133667,9.78138542175293,-5.36527204513550,0.07685732096434,-0.34306934475899
232,1193731268,-6.93249082565308,1.87023305892944,36.65929412841797,-0.30945539474487,-0.18041938543320,9.79462337493896,-5.39201164245605,0.18833659589291,-0.42526048421860
233,1193747935,-6.90922832489014,1.87077713012695,36.65704727172852,-0.30423992872238,-0.19235794246197,9.77105140686035,-5.33643245697021,0.18391844630241,-0.34335109591484
234,1193764602,-6.88659811019897,1.87049448490143,36.65522003173828,-0.30724295973778,-0.18123891949654,9.78292274475098,-5.37914180755615,0.13195024430752,-0.32656195759773
235,1193781269,-6.86383485794067,1.87014877796173,36.65238952636719,-0.29525968432426,-0.17388094961643,9.78065395355225,-5.37134265899658,0.13565129041672,-0.39508876204491
236,1193797936,-6.83974504470825,1.86960935592651,36.64991378784180,-0.29403370618820,-0.18301750719547,9.79052162170410,-5.29618167877197,0.12091115862131,-0.36920711398125
237,1193814603,-6.81650352478027,1.86927056312561,36.64825057983398,-0.29718473553658,-0.19053135812283,9.78332233428955,-5.35068559646606,0.12786503136158,-0.31649619340897
238,1193831270,-6.79346656799316,1.86958158016205,36.64646911621094,-0.29241880774498,-0.18955528736115,9.77869701385498,-5.36606597900391,0.16801291704178,-0.32238709926605
239,1193847937,-6.76886653900146,1.86913275718689,36.64376068115234,-0.29859119653702,-0.18944643437862,9.77448844909668,-5.27186298370361,0.12896636128426,-0.37861979007721
240,1193864604,-6.74489831924438,1.86797952651978,36.64096069335938,-0.28604817390442,-0.19703462719917,9.76139640808105,-5.31047391891479,0.08746097236872,-0.39091384410858
241,1193881271,-6.72146511077881,1.86806118488312,36.63805770874023,-0.30551782250404,-0.18341976404190,9.77435302734375,-5.34391117095947,0.16273669898510,-0.38508701324463
242,1193897938,-6.69956827163696,1.86799085140228,36.63546371459961,-0.29839652776718,-0.17625777423382,9.78705120086670,-5.43814039230347,0.15136466920376,-0.37107685208321
243,1193914605,-6.67661952972412,1.86791443824768,36.63192749023438,-0.29437780380249,-0.18597178161144,9.78715229034424,-5.37449264526367,0.15778064727783,-0.43052390217781
244,1193931272,-6.65282392501831,1.86698758602142,36.62905502319336,-0.29043325781822,-0.18167810142040,9.77589797973633,-5.32552099227905,0.10298228263855,-0.39419230818748
245,1193947939,-6.63031482696533,1.86681520938873,36.62695312500000,-0.29189923405647,-0.18984568119049,9.77951812744141,-5.40558576583862,0.14256669580936,-0.34100750088692
246,1193964606,-6.60787534713745,1.86631929874420,36.62565612792969,-0.30035006999969,-0.16919183731079,9.77504062652588,-5.41132354736328,0.11910546571016,-0.30225551128387
247,1193981273,-6.58441925048828,1.86620497703552,36.62241744995117,-0.29864260554314,-0.20478056371212,9.79112815856934,-5.34779167175293,0.15511693060398,-0.40939342975616
248,1193997940,-6.55953454971313,1.86641180515289,36.62092971801758,-0.28686422109604,-0.18232025206089,9.77173042297363,-5.26479387283325,0.16126398742199,-0.30339527130127
249,1194014607,-6.53755950927734,1.86499965190887,36.61834716796875,-0.31606695055962,-0.17773070931435,9.77445697784424,-5.43707752227783,0.07360450923443,-0.37841486930847
250,1194031274,-6.51327466964722,1.86547386646271,36.61746597290039,-0.30481150746346,-0.19616371393204,9.80165958404541,-5.30106115341187,0.17392946779728,-0.26851078867912
251,1194047941,-6.49071359634399,1.86528944969177,36.61444091796875,-0.30950912833214,-0.17620620131493,9.78525066375732,-5.40034866333008,0.14841921627522,-0.39864891767502
252,1194064608,-6.46693611145020,1.86568093299866,36.61211776733398,-0.31286242604256,-0.18514299392700,9.78653430938721,-5.32827472686768,0.17806589603424,-0.34979265928268
253,1194081275,-6.44386959075928,1.86581921577454,36.60964965820312,-0.30990457534790,-0.17813794314861,9.76589012145996,-5.36981868743896,0.16267268359661,-0.36317533254623
254,1194097942,-6.41918325424194,1.86558127403259,36.60672760009766,-0.31899559497833,-0.18343408405781,9.77959060668945,-5.27072238922119,0.14301493763924,-0.39595958590508
255,1194114609,-6.39578819274902,1.86548030376434,36.60463714599609,-0.31246045231819,-0.18172375857830,9.78039455413818,-5.34879016876221,0.14471817016602,-0.33918902277946
256,1194131276,-6.37354469299316,1.86516976356506,36.60425186157227,-0.29567629098892,-0.18328180909157,9.77416419982910,-5.42009639739990,0.12142342329025,-0.24145095050335
257,1194147943,-6.34996461868286,1.86534774303436,36.60149765014648,-0.30311644077301,-0.18533873558044,9.79633045196533,-5.33384513854980,0.16563093662262,-0.38264095783234
258,1194164610,-6.32609605789185,1.86474883556366,36.59911727905273,-0.31013730168343,-0.18717630207539,9.78978538513184,-5.31573724746704,0.11658261716366,-0.35836011171341
259,1194181277,-6.30324554443359,1.86402249336243,36.59696960449219,-0.29634639620781,-0.17668448388577,9.78575420379639,-5.37509489059448,0.10752852261066,-0.35469752550125
260,1194197944,-6.28013658523560,1.86369442939758,36.59517288208008,-0.30526930093765,-0.17781287431717,9.78741931915283,-5.35881757736206,0.12955546379089,-0.32251515984535
261,1194214611,-6.25740098953247,1.86330103874207,36.59320831298828,-0.30055695772171,-0.18133464455605,9.79638385772705,-5.37883424758911,0.12559829652309,-0.33688390254974
262,1194231278,-6.23512506484985,1.86402499675751,36.59101486206055,-0.30986377596855,-0.17744806408882,9.80640029907227,-5.40406274795532,0.19500872492790,-0.34609165787697
263,1194247945,-6.21175575256348,1.86337101459503,36.58837509155273,-0.29438051581383,-0.19291216135025,9.78505802154541,-5.33584308624268,0.11563495546579,-0.38246169686317
264,1194264612,-6.18909215927124,1.86253023147583,36.58673477172852,-0.29632589221001,-0.17282758653164,9.77638816833496,-5.37697744369507,0.09774448722601,-0.32368054986000
265,1194281279,-6.16674423217773,1.86086308956146,36.58433532714844,-0.29404583573341,-0.17430891096592,9.77219295501709,-5.39289569854736,0.05319117754698,-0.37171715497971
266,1194297946,-6.14508342742920,1.85968875885010,36.58293914794922,-0.29866734147072,-0.18816305696964,9.76152038574219,-5.43301820755005,0.07663960754871,-0.30669930577278
267,1194314613,-6.12153911590576,1.85992479324341,36.58004379272461,-0.29176589846611,-0.19207985699177,9.80836200714111,-5.31414890289307,0.16984423995018,-0.38275620341301
268,1194331280,-6.09920024871826,1.86057639122009,36.57963943481445,-0.29144984483719,-0.18805542588234,9.78466701507568,-5.38798999786377,0.17992284893990,-0.24192476272583
269,1194347947,-6.07684898376465,1.85971152782440,36.57756042480469,-0.30297106504440,-0.18213388323784,9.76073265075684,-5.38052463531494,0.09926844388247,-0.34636059403419
270,1194364614,-6.05430126190186,1.86005389690399,36.57586288452148,-0.30203652381897,-0.18381901085377,9.77261161804199,-5.36665534973145,0.16857641935349,-0.30883798003197
271,1194381281,-6.03185081481934,1.85937452316284,36.57300186157227,-0.31336620450020,-0.17492969334126,9.78921508789062,-5.36719322204590,0.11583984643221,-0.39488381147385
272,1194397948,-6.00894021987915,1.86012971401215,36.57034683227539,-0.30597323179245,-0.19700422883034,9.76964473724365,-5.33673954010010,0.19927325844765,-0.36751672625542
273,1194414615,-5.98589468002319,1.85947144031525,36.56785202026367,-0.30438879132271,-0.18344923853874,9.77038097381592,-5.32468891143799,0.11364995688200,-0.37016758322716
274,1194431282,-5.96294879913330,1.86051452159882,36.56647872924805,-0.29859992861748,-0.18836481869221,9.76573085784912,-5.32979869842529,0.20764860510826,-0.29355999827385
275,1194447949,-5.94147872924805,1.86001849174500,36.56427383422852,-0.30531293153763,-0.17790046334267,9.77225494384766,-5.41228485107422,0.12233267724514,-0.35383948683739
276,1194464616,-5.91913223266602,1.85871458053589,36.56132125854492,-0.28606477379799,-0.18044775724411,9.79198265075684,-5.35523176193237,0.07683170586824,-0.39881536364555
277,1194481283,-5.89614248275757,1.85764813423157,36.55878829956055,-0.31120043992996,-0.17804056406021,9.77557849884033,-5.31362485885620,0.08951000124216,-0.37737759947777
278,1194497950,-5.87497663497925,1.85865283012390,36.55684661865234,-0.29506561160088,-0.18602493405342,9.76061248779297,-5.42067193984985,0.20969758927822,-0.32795783877373
279,1194514617,-5.85258197784424,1.85756051540375,36.55528259277344,-0.29966303706169,-0.19101567566395,9.77716827392578,-5.34257936477661,0.08164689689875,-0.32073506712914
280,1194531284,-5.82993316650391,1.85782539844513,36.55238723754883,-0.30621042847633,-0.17458923161030,9.77146148681641,-5.32173109054565,0.17051017284393,-0.38654693961143
281,1194547951,-5.80883455276489,1.85731410980225,36.54938125610352,-0.30202841758728,-0.20017527043819,9.78663158416748,-5.40935134887695,0.12517568469048,-0.39220732450485
282,1194564618,-5.78791141510010,1.85738527774811,36.54626083374023,-0.32000955939293,-0.15834812819958,9.76469707489014,-5.41583156585693,0.15926618874073,-0.39471736550331
283,1194581285,-5.76660203933716,1.85635578632355,36.54384994506836,-0.31256362795830,-0.16831332445145,9.78328895568848,-5.39071846008301,0.09009908139706,-0.36569815874100
284,1194597952,-5.74438762664795,1.85621809959412,36.54202651977539,-0.30672448873520,-0.18057210743427,9.79453563690186,-5.33299970626831,0.13827657699585,-0.31841710209846
285,1194614619,-5.72253894805908,1.85598719120026,36.54052734375000,-0.30059021711349,-0.19330081343651,9.78529262542725,-5.35156917572021,0.13098976016045,-0.30594369769096
286,1194631286,-5.70063257217407,1.85576283931732,36.53765869140625,-0.30101048946381,-0.19530759751797,9.76797580718994,-5.34122180938721,0.13903214037418,-0.38483086228371
287,1194647953,-5.67801856994629,1.85580420494080,36.53479385375977,-0.29995158314705,-0.17863911390305,9.79427146911621,-5.29369735717773,0.15550111234188,-0.38000285625458
288,1194664620,-5.65643930435181,1.85629642009735,36.53306579589844,-0.29850581288338,-0.19487962126732,9.79238510131836,-5.35333728790283,0.17531256377697,-0.31615039706230
289,1194681287,-5.63563394546509,1.85504972934723,36.53084945678711,-0.31357818841934,-0.16712060570717,9.78356361389160,-5.39379215240479,0.07425762712955,-0.35483840107918
290,1194697954,-5.61381673812866,1.85426962375641,36.52914810180664,-0.30420315265656,-0.19957856833935,9.78401565551758,-5.32970905303955,0.09807743877172,-0.31875008344650
291,1194714621,-5.59275341033936,1.85526788234711,36.52644348144531,-0.29377594590187,-0.17830049991608,9.78851795196533,-5.36823034286499,0.21192589402199,-0.37680128216743
292,1194731288,-5.57238769531250,1.85475480556488,36.52457427978516,-0.29406633973122,-0.20093162357807,9.79071140289307,-5.40671300888062,0.11516111344099,-0.33226078748703
293,1194747955,-5.55084753036499,1.85372853279114,36.52290725708008,-0.29451513290405,-0.16862969100475,9.78118324279785,-5.33156585693359,0.08427220582962,-0.31385806202888
294,1194764622,-5.52911138534546,1.85355174541473,36.51972198486328,-0.28159937262535,-0.19904850423336,9.78157615661621,-5.31192064285278,0.14345034956932,-0.40348970890045
295,1194781289,-5.50821828842163,1.85255098342896,36.51710510253906,-0.31288221478462,-0.18711106479168,9.78231048583984,-5.35930395126343,0.09204563498497,-0.38475400209427
296,1194797956,-5.48770141601562,1.85288715362549,36.51421356201172,-0.28355121612549,-0.18515373766422,9.78580856323242,-5.37509489059448,0.17302021384239,-0.38267940282822
297,1194814623,-5.46665239334106,1.85391616821289,36.51287841796875,-0.30124878883362,-0.19444930553436,9.76472187042236,-5.34173393249512,0.20529220998287,-0.28894969820976
298,1194831290,-5.44525957107544,1.85370969772339,36.50971984863281,-0.30490300059319,-0.16720606386662,9.77554893493652,-5.31244611740112,0.14296370744705,-0.40055710077286
299,1194847957,-5.42449092864990,1.85374796390533,36.50656127929688,-0.31241992115974,-0.18863156437874,9.77305793762207,-5.34488487243652,0.15541148185730,-0.39111879467964
300,1194864624,-5.40392255783081,1.85448646545410,36.50387954711914,-0.31173062324524,-0.17966018617153,9.77374267578125,-5.35254287719727,0.19420190155506,-0.36339303851128
301,1194881291,-5.38335371017456,1.85437381267548,36.50120925903320,-0.29650846123695,-0.18696352839470,9.80532073974609,-5.34763813018799,0.14369367063046,-0.37386864423752
302,1194897958,-5.36334991455078,1.85373210906982,36.49899291992188,-0.29861769080162,-0.18182471394539,9.77036380767822,-5.37770748138428,0.11085818707943,-0.35839858651161
303,1194914625,-5.34356546401978,1.85346770286560,36.49599456787109,-0.30850297212601,-0.18430429697037,9.77249526977539,-5.38408470153809,0.13703435659409,-0.38676461577415
304,1194931292,-5.32368993759155,1.85343801975250,36.49407958984375,-0.30374574661255,-0.19267101585865,9.78096771240234,-5.37542724609375,0.14476938545704,-0.32756084203720
305,1194947959,-5.30406045913696,1.85320818424225,36.49160766601562,-0.31408938765526,-0.18671917915344,9.79264163970947,-5.38289403915405,0.13396084308624,-0.35982009768486
306,1194964626,-5.28535413742065,1.85182654857635,36.48950958251953,-0.30933046340942,-0.17837968468666,9.78297615051270,-5.43434953689575,0.06342345476151,-0.34029036760330
307,1194981293,-5.26510524749756,1.85113990306854,36.48695373535156,-0.31757649779320,-0.17182773351669,9.78783512115479,-5.33556127548218,0.10710591077805,-0.35691300034523
308,1194997960,-5.24428367614746,1.85017466545105,36.48455429077148,-0.29609626531601,-0.18503737449646,9.79699420928955,-5.29742431640625,0.08994541317225,-0.36012741923332
309,1195014627,-5.22464799880981,1.85103416442871,36.48242950439453,-0.30700558423996,-0.17420881986618,9.78147220611572,-5.36283874511719,0.19672475755215,-0.33847185969353
310,1195031294,-5.20485496520996,1.85018539428711,36.48108673095703,-0.30054160952568,-0.18360683321953,9.79863452911377,-5.35053205490112,0.09027837961912,-0.29304775595665
311,1195047961,-5.18424272537231,1.84967994689941,36.47945404052734,-0.30017110705376,-0.18146328628063,9.78688240051270,-5.29445314407349,0.11253581196070,-0.31089979410172
312,1195064628,-5.16512680053711,1.84866261482239,36.47748947143555,-0.29481950402260,-0.19946604967117,9.78415584564209,-5.37932109832764,0.08335013687611,-0.32803466916084
313,1195081295,-5.14597225189209,1.84796488285065,36.47439575195312,-0.29213133454323,-0.18762168288231,9.78174495697021,-5.36855030059814,0.10976963490248,-0.40591010451317
314,1195097962,-5.12733745574951,1.84778320789337,36.47307205200195,-0.29969963431358,-0.17748261988163,9.78777027130127,-5.39767169952393,0.13119468092918,-0.29431557655334
315,1195114629,-5.10901594161987,1.84745562076569,36.46949386596680,-0.29143956303596,-0.20054444670677,9.77919292449951,-5.40727663040161,0.13367910683155,-0.42569589614868
316,1195131296,-5.08984518051147,1.84777390956879,36.46652603149414,-0.28986966609955,-0.18514873087406,9.77454471588135,-5.35164642333984,0.16940881311893,-0.38933870196342
317,1195147963,-5.07067537307739,1.84787762165070,36.46398925781250,-0.29494655132294,-0.17172537744045,9.78247261047363,-5.34678030014038,0.15391314029694,-0.35441577434540
318,1195164630,-5.05191421508789,1.84726417064667,36.46133041381836,-0.29745775461197,-0.16984498500824,9.77291774749756,-5.36656570434570,0.11152411997318,-0.35520976781845
319,1195181297,-5.03352165222168,1.84722399711609,36.45981979370117,-0.29341152310371,-0.18923331797123,9.78813743591309,-5.38545465469360,0.14004383981228,-0.29230496287346
320,1195197964,-5.01509952545166,1.84678113460541,36.45591354370117,-0.29771128296852,-0.19226488471031,9.78410625457764,-5.37354516983032,0.12892794609070,-0.44320222735405
321,1195214631,-4.99529170989990,1.84703707695007,36.45373535156250,-0.29747310280800,-0.19490222632885,9.78019618988037,-5.28783273696899,0.16260865330696,-0.34440124034882
322,1195231298,-4.97658443450928,1.84684991836548,36.45249557495117,-0.28330719470978,-0.18071925640106,9.78872585296631,-5.35051870346069,0.13045188784599,-0.27611771225929
323,1195247965,-4.95866012573242,1.84705674648285,36.45083999633789,-0.29294040799141,-0.18278405070305,9.77283573150635,-5.39083337783813,0.15619264543056,-0.30619984865189
324,1195264632,-4.94004726409912,1.84817552566528,36.44968795776367,-0.29388087987900,-0.18574677407742,9.77715301513672,-5.34558916091919,0.20905730128288,-0.26858764886856
325,1195281299,-4.92158985137939,1.84831237792969,36.44731903076172,-0.31074246764183,-0.17181038856506,9.77417564392090,-5.34701013565063,0.15626950562000,-0.34249305725098
326,1195297966,-4.90398311614990,1.84702742099762,36.44480514526367,-0.29643771052361,-0.18478776514530,9.77223014831543,-5.39228057861328,0.07302821427584,-0.37051334977150
327,1195314633,-4.88629627227783,1.84713566303253,36.44266891479492,-0.31120273470879,-0.18086729943752,9.77956008911133,-5.38313674926758,0.15270933508873,-0.33104416728020
328,1195331300,-4.86771821975708,1.84674310684204,36.44031906127930,-0.30336415767670,-0.20368184149265,9.79172992706299,-5.32433032989502,0.12493236362934,-0.34394016861916
329,1195347967,-4.84990072250366,1.84613037109375,36.43857192993164,-0.32269707322121,-0.17747722566128,9.76654911041260,-5.36429882049561,0.10760537534952,-0.32255357503891
330,1195364634,-4.83263874053955,1.84623968601227,36.43553924560547,-0.31396016478539,-0.19434879720211,9.77166748046875,-5.39038515090942,0.15769100189209,-0.39182314276695
331,1195381301,-4.81498622894287,1.84616219997406,36.43305206298828,-0.31007552146912,-0.17349883913994,9.77834224700928,-5.36265945434570,0.14142693579197,-0.34766685962677
332,1195397968,-4.79755973815918,1.84624814987183,36.42921829223633,-0.30855357646942,-0.19643302261829,9.78420734405518,-5.36778211593628,0.15772943198681,-0.43167647719383
333,1195414635,-4.77966260910034,1.84566700458527,36.42642211914062,-0.30315861105919,-0.17885468900204,9.76990222930908,-5.33543300628662,0.11412379145622,-0.38037422299385
334,1195431302,-4.76153469085693,1.84359681606293,36.42377471923828,-0.29541218280792,-0.18225461244583,9.76800727844238,-5.31713294982910,0.02430004999042,-0.37632745504379
335,1195447969,-4.74410152435303,1.84305191040039,36.42110443115234,-0.30573904514313,-0.19480824470520,9.76807689666748,-5.35381031036377,0.11413661390543,-0.36868202686310
336,1195464636,-4.72646427154541,1.84217059612274,36.41912078857422,-0.31149128079414,-0.18977904319763,9.78164958953857,-5.33700847625732,0.09029118716717,-0.31987705826759
337,1195481303,-4.70999526977539,1.84225118160248,36.41716384887695,-0.30631652474403,-0.20372284948826,9.77907180786133,-5.40119361877441,0.14847043156624,-0.32250234484673
338,1195497970,-4.69190263748169,1.84202349185944,36.41533660888672,-0.31173560023308,-0.18305978178978,9.79332160949707,-5.29834604263306,0.12970912456512,-0.31850677728653
339,1195514637,-4.67557764053345,1.84256625175476,36.41228485107422,-0.28204980492592,-0.20593206584454,9.76640129089355,-5.39676284790039,0.18133153021336,-0.39610043168068
340,1195531304,-4.65906620025635,1.84268939495087,36.41070938110352,-0.29772624373436,-0.17447349429131,9.77023983001709,-5.38266277313232,0.14854727685452,-0.29965579509735
341,1195547971,-4.64145803451538,1.84216761589050,36.40891647338867,-0.29552984237671,-0.18424849212170,9.77201080322266,-5.31078100204468,0.11165217310190,-0.32461535930634
342,1195564638,-4.62421751022339,1.84109282493591,36.40662002563477,-0.30167794227600,-0.18368618190289,9.76821517944336,-5.32735252380371,0.07990522682667,-0.33690950274467
343,1195581305,-4.60750150680542,1.84106230735779,36.40359497070312,-0.30675384402275,-0.18781027197838,9.76164722442627,-5.35222244262695,0.14748434722424,-0.40188890695572
344,1195597972,-4.58922290802002,1.83971035480499,36.40187072753906,-0.30082759261131,-0.18803429603577,9.79175662994385,-5.25463867187500,0.06069571152329,-0.31808421015739
345,1195614639,-4.57335615158081,1.83817577362061,36.40005874633789,-0.29792097210884,-0.18206298351288,9.79027175903320,-5.39412450790405,0.05157757550478,-0.33098012208939
346,1195631306,-4.55663585662842,1.83768904209137,36.39845657348633,-0.29525208473206,-0.19422648847103,9.77998638153076,-5.33777666091919,0.11377802491188,-0.32450014352798
347,1195647973,-4.53917360305786,1.83715975284576,36.39543533325195,-0.30808931589127,-0.16356486082077,9.78598308563232,-5.28573179244995,0.11594229936600,-0.38997900485992
348,1195664640,-4.52233552932739,1.83786451816559,36.39450836181641,-0.29841598868370,-0.19944964349270,9.77310466766357,-5.32221746444702,0.17961548268795,-0.24826392531395
349,1195681307,-4.50592422485352,1.83767688274384,36.39182281494141,-0.28893923759460,-0.17797653377056,9.77150154113770,-5.33885288238525,0.13389679789543,-0.35660567879677
350,1195697974,-4.49001884460449,1.83818876743317,36.38870239257812,-0.28038084506989,-0.20042963325977,9.78845500946045,-5.36358213424683,0.17932094633579,-0.39262995123863
351,1195714641,-4.47416067123413,1.83724999427795,36.38679504394531,-0.30642208456993,-0.18364600837231,9.78707599639893,-5.36361980438232,0.08689749985933,-0.31227004528046
352,1195731308,-4.45843791961670,1.83637726306915,36.38357543945312,-0.30519545078278,-0.18683670461178,9.78583812713623,-5.36351776123047,0.09725783765316,-0.40313109755516
353,1195747975,-4.44292640686035,1.83613610267639,36.38047027587891,-0.30027738213539,-0.19285194575787,9.78480815887451,-5.37065076828003,0.13383278250694,-0.38522788882256
354,1195764642,-4.42762565612793,1.83577215671539,36.37945175170898,-0.30301216244698,-0.17705275118351,9.76713657379150,-5.38236856460571,0.11907985061407,-0.29498147964478
355,1195781309,-4.41209459304810,1.83483493328094,36.37705612182617,-0.30106753110886,-0.18685959279537,9.78299713134766,-5.36137866973877,0.08958683162928,-0.34849926829338
356,1195797976,-4.39661121368408,1.83385670185089,36.37421035766602,-0.30831679701805,-0.17839270830154,9.77697086334229,-5.35729360580444,0.08732010424137,-0.37308746576309
357,1195814643,-4.38084077835083,1.83395636081696,36.37225341796875,-0.30309763550758,-0.19186861813068,9.77243328094482,-5.33771324157715,0.14922600984573,-0.32882872223854
358,1195831310,-4.36494255065918,1.83441042900085,36.37046051025391,-0.29900467395782,-0.18084485828876,9.77887821197510,-5.32399702072144,0.16951125860214,-0.32127290964127
359,1195847977,-0.98471689224243,1.78713095188141,37.50911712646484,-0.29459673166275,-0.19477276504040,9.76441001892090,-5.36039209365845,0.15176166594028,-0.36254781484604
360,1195864644,-0.98377531766891,1.78664875030518,37.39004135131836,-0.31150975823402,-0.18778665363789,9.77790927886963,-5.31484127044678,0.10562039166689,-0.34151977300644
361,1195881311,-0.98329508304596,1.78580689430237,37.29103469848633,-0.30313822627068,-0.18906047940254,9.78206634521484,-5.34202909469604,0.08397764712572,-0.34806379675865
362,1195897978,-0.98337167501450,1.78486979007721,37.20938873291016,-0.30037242174149,-0.18984378874302,9.79115772247314,-5.37467193603516,0.07793305814266,-0.35868027806282
363,1195914645,-0.98359829187393,1.78506350517273,37.12962722778320,-0.29959934949875,-0.17505605518818,9.78292655944824,-5.38503217697144,0.14611406624317,-0.32957142591476
364,1195931312,-0.98310595750809,1.78535509109497,37.08351516723633,-0.29959547519684,-0.18989466130733,9.76536083221436,-5.33932638168335,0.15163360536098,-0.34820467233658
365,1195947979,-0.98270887136459,1.78449499607086,37.02780914306641,-0.29850521683693,-0.18571622669697,9.79601573944092,-5.34592151641846,0.08286350220442,-0.36165133118629
366,1195964646,-0.98154836893082,1.78476095199585,36.97694778442383,-0.30272907018661,-0.21204806864262,9.78205108642578,-5.30086898803711,0.15009681880474,-0.32284811139107
367,1195981313,-0.98161077499390,1.78362703323364,36.92483139038086,-0.28814706206322,-0.16991162300110,9.77318286895752,-5.37159872055054,0.06717571616173,-0.41711565852165
368,1195997980,-0.98199576139450,1.78347146511078,36.89142990112305,-0.29155007004738,-0.18659150600433,9.79163551330566,-5.39067983627319,0.12554706633091,-0.36417418718338
369,1196014647,-0.98198753595352,1.78327417373657,36.86502456665039,-0.29019671678543,-0.18185165524483,9.77058410644531,-5.36902427673340,0.12284492701292,-0.32470506429672
370,1196031314,-0.98157185316086,1.78408360481262,36.83471679687500,-0.30294039845467,-0.18899792432785,9.77753734588623,-5.34599828720093,0.18213832378387,-0.29243302345276
371,1196047981,-0.97972285747528,1.78497111797333,36.80247879028320,-0.29441314935684,-0.17329606413841,9.77899551391602,-5.25701999664307,0.18875922262669,-0.36603114008904
372,1196064648,-0.97915995121002,1.78513693809509,36.77925872802734,-0.30247604846954,-0.18280865252018,9.78332233428955,-5.33621454238892,0.14429555833340,-0.33977812528610
373,1196081315,-0.97847592830658,1.78486275672913,36.75225448608398,-0.30023580789566,-0.19590902328491,9.78662872314453,-5.32960700988770,0.11690278351307,-0.29925885796547
374,1196097982,-0.97768586874008,1.78464090824127,36.73368835449219,-0.30578875541687,-0.16655249893665,9.79166889190674,-5.32124376296997,0.12071906030178,-0.33407929539680
375,1196114649,-0.97833687067032,1.78376054763794,36.71190261840820,-0.29441896080971,-0.19635641574860,9.78405857086182,-5.40892839431763,0.08199266344309,-0.34477257728577
376,1196131316,-0.97796261310577,1.78434169292450,36.69038391113281,-0.30097949504852,-0.18654915690422,9.78055477142334,-5.34630584716797,0.16880692541599,-0.31041315197945
377,1196147983,-0.97816336154938,1.78429615497589,36.66537094116211,-0.30134138464928,-0.18663731217384,9.79501152038574,-5.38001203536987,0.13182216882706,-0.34596359729767
378,1196164650,-0.97909611463547,1.78512847423553,36.65397262573242,-0.32337915897369,-0.18484210968018,9.79397487640381,-5.42429637908936,0.18504536151886,-0.34903708100319
379,1196181317,-0.98025381565094,1.78484642505646,36.64112091064453,-0.29471489787102,-0.18713821470737,9.78606891632080,-5.43709039688110,0.11731258034706,-0.35531225800514
380,1196197984,-0.97990208864212,1.78512334823608,36.62871551513672,-0.30890390276909,-0.19263626635075,9.77684974670410,-5.34977626800537,0.14961019158363,-0.25055623054504
381,1196214651,-0.97989195585251,1.78442430496216,36.60919189453125,-0.30775743722916,-0.17930752038956,9.78951263427734,-5.36698818206787,0.09264754503965,-0.37888872623444
382,1196231318,-0.97937291860580,1.78471100330353,36.59252166748047,-0.30920132994652,-0.18566033244133,9.78623104095459,-5.33700847625732,0.15141588449478,-0.36151048541069
383,1196247985,-0.97955054044724,1.78389120101929,36.57797622680664,-0.32412290573120,-0.16882976889610,9.77806282043457,-5.38024282455444,0.08451551198959,-0.30877393484116
384,1196264652,-0.97925257682800,1.78315019607544,36.56316375732422,-0.29368418455124,-0.19367563724518,9.77333641052246,-5.35131359100342,0.09054730832577,-0.34282603859901
385,1196281319,-0.97975265979767,1.78403759002686,36.54386520385742,-0.29530835151672,-0.18331895768642,9.78860473632812,-5.39965677261353,0.18646688759327,-0.29548093676567
386,1196297986,-0.97973859310150,1.78456807136536,36.53458786010742,-0.29103586077690,-0.17727603018284,9.78978347778320,-5.36721849441528,0.16710367798805,-0.38547113537788
387,1196314653,-0.97958445549011,1.78431570529938,36.52166366577148,-0.30113765597343,-0.17164520919323,9.78479194641113,-5.35897111892700,0.11945124715567,-0.37804350256920
388,1196331320,-0.97915172576904,1.78448939323425,36.51249313354492,-0.29770585894585,-0.17423054575920,9.76325607299805,-5.34234857559204,0.14491027593613,-0.33739611506462
389,1196347987,-0.97926193475723,1.78428709506989,36.50323486328125,-0.30850771069527,-0.19118896126747,9.77867031097412,-5.37442874908447,0.12292177230120,-0.39530643820763
390,1196364654,-0.97936791181564,1.78405165672302,36.49532699584961,-0.30783087015152,-0.16670301556587,9.79503917694092,-5.37568378448486,0.11920791864395,-0.29603162407875
391,1196381321,-0.97923535108566,1.78366649150848,36.48959350585938,-0.29422760009766,-0.18655779957771,9.79473304748535,-5.35895824432373,0.11166497319937,-0.38262817263603
392,1196397988,-0.97700583934784,1.78401517868042,36.48114395141602,-0.29353141784668,-0.17309045791626,9.78681755065918,-5.23508262634277,0.15561637282372,-0.33945795893669
393,1196414655,-0.97531270980835,1.78499317169189,36.46960449218750,-0.29059013724327,-0.19741280376911,9.77313995361328,-5.26727771759033,0.19225533306599,-0.33762660622597
394,1196431322,-0.97467279434204,1.78587615489960,36.45836257934570,-0.30476376414299,-0.19580212235451,9.78336811065674,-5.32815933227539,0.18855433166027,-0.40560275316238
395,1196447989,-0.97415149211884,1.78664255142212,36.45315551757812,-0.28400868177414,-0.19526083767414,9.79091548919678,-5.33965921401978,0.17956426739693,-0.28905215859413
396,1196464656,-0.97390335798264,1.78630840778351,36.44748306274414,-0.30291569232941,-0.17914111912251,9.79265022277832,-5.35384893417358,0.11412380635738,-0.34630939364433
397,1196481323,-0.97428357601166,1.78598701953888,36.44117736816406,-0.29968124628067,-0.19065281748772,9.75699710845947,-5.39038515090942,0.11543004959822,-0.36608234047890
398,1196497990,-0.97506809234619,1.78623616695404,36.43852615356445,-0.29668572545052,-0.19828450679779,9.75880908966064,-5.41625452041626,0.14875216782093,-0.29452046751976
399,1196514657,-0.97493952512741,1.78653025627136,36.43125152587891,-0.30947059392929,-0.18366460502148,9.77223205566406,-5.36023902893066,0.15160799026489,-0.36645376682281
400,1196531324,-0.97496885061264,1.78627991676331,36.42495346069336,-0.29649665951729,-0.17236770689487,9.78777217864990,-5.36975479125977,0.11932317912579,-0.34173747897148
401,1196547991,-0.97482788562775,1.78716993331909,36.41836929321289,-0.30531123280525,-0.17744930088520,9.78105831146240,-5.36089181900024,0.18784995377064,-0.29715859889984
402,1196564658,-0.97366470098495,1.78695285320282,36.41644287109375,-0.30693778395653,-0.18928401172161,9.78671932220459,-5.30039501190186,0.12068063765764,-0.30132061243057
403,1196581325,-0.97285205125809,1.78676319122314,36.40999221801758,-0.30192485451698,-0.16997259855270,9.78319740295410,-5.31955337524414,0.12246074527502,-0.34496468305588
404,1196597992,-0.97178161144257,1.78695797920227,36.40546035766602,-0.30499845743179,-0.18599180877209,9.78229236602783,-5.30503082275391,0.14613968133926,-0.33719122409821
405,1196614659,-0.97170603275299,1.78775203227997,36.39960479736328,-0.29732340574265,-0.17814311385155,9.79114055633545,-5.36531066894531,0.18015334010124,-0.29212567210197
406,1196631326,-0.97199749946594,1.78839242458344,36.38938903808594,-0.30839827656746,-0.19388324022293,9.77680683135986,-5.38384151458740,0.17422400414944,-0.40131264925003
407,1196647993,-0.97166442871094,1.78812086582184,36.38394165039062,-0.30693620443344,-0.18320490419865,9.77729797363281,-5.35108327865601,0.11662103980780,-0.30274212360382
408,1196664660,-0.97072762250900,1.78861200809479,36.37696838378906,-0.30527338385582,-0.17808887362480,9.77731323242188,-5.31229257583618,0.16456802189350,-0.37472665309906
409,1196681327,-0.96963834762573,1.78879809379578,36.37282562255859,-0.30313301086426,-0.19787216186523,9.78955459594727,-5.30320024490356,0.14489747583866,-0.34327426552773
410,1196697994,-0.96930503845215,1.78901326656342,36.36475753784180,-0.30807292461395,-0.17512415349483,9.80718517303467,-5.34643411636353,0.14827834069729,-0.40824082493782
411,1196714661,-0.96874898672104,1.78921008110046,36.35526657104492,-0.30795624852180,-0.18768869340420,9.78492069244385,-5.33440876007080,0.14569145441055,-0.35290458798409
412,1196731328,-0.96874207258224,1.78827571868896,36.35121154785156,-0.31736096739769,-0.18028651177883,9.78694820404053,-5.36925506591797,0.07749763876200,-0.30344647169113
413,1196747995,-0.96956723928452,1.78775274753571,36.34509277343750,-0.31819561123848,-0.18126252293587,9.79052352905273,-5.41740703582764,0.10349453240633,-0.36353388428688
414,1196764662,-0.96922701597214,1.78770887851715,36.34206390380859,-0.30663734674454,-0.18592333793640,9.77869701385498,-5.35147953033447,0.12879987061024,-0.21540282666683
415,1196781329,-0.96759617328644,1.78753578662872,36.33959960937500,-0.29931214451790,-0.18636144697666,9.78052330017090,-5.27151679992676,0.12372857332230,-0.30821046233177
416,1196797996,-0.96716535091400,1.78643953800201,36.33340072631836,-0.29333212971687,-0.17638723552227,9.78883171081543,-5.34207963943481,0.06861003488302,-0.37763366103172
417,1196814663,-0.96701562404633,1.78770816326141,36.32956695556641,-0.29946789145470,-0.17763014137745,9.77989578247070,-5.35881853103638,0.21012021601200,-0.36464807391167
418,1196831330,-0.96746695041656,1.78768563270569,36.32413864135742,-0.30806949734688,-0.17915377020836,9.79123878479004,-5.39494466781616,0.13361507654190,-0.36587747931480
419,1196847997,-0.96699684858322,1.78691518306732,36.32014846801758,-0.29658603668213,-0.15877600014210,9.78475284576416,-5.34105539321899,0.08717923611403,-0.32499960064888
420,1196864664,-0.96743601560593,1.78639686107635,36.31658172607422,-0.29358088970184,-0.19033180177212,9.78599643707275,-5.39457368850708,0.10312314331532,-0.35736119747162
421,1196881331,-0.96628159284592,1.78688836097717,36.31277847290039,-0.29482755064964,-0.18059946596622,9.78641319274902,-5.29862833023071,0.16342826187611,-0.35512012243271
422,1196897998,-0.96666878461838,1.78580808639526,36.31110763549805,-0.28386703133583,-0.18190014362335,9.79125118255615,-5.39235782623291,0.06983944028616,-0.35856506228447
423,1196914665,-0.96683847904205,1.78596770763397,36.30443954467773,-0.29889398813248,-0.18777802586555,9.78209781646729,-5.37815523147583,0.14379611611366,-0.36089578270912
424,1196931332,-0.96641010046005,1.78614854812622,36.29688644409180,-0.29746416211128,-0.19072131812572,9.76797580718994,-5.34100437164307,0.14553779363632,-0.41383728384972
425,1196947999,-0.96651554107666,1.78518295288086,36.29313278198242,-0.29296571016312,-0.16667227447033,9.77543735504150,-5.37308454513550,0.07784341275692,-0.41067409515381
426,1196964666,-0.96533113718033,1.78494298458099,36.28436279296875,-0.29421067237854,-0.17465320229530,9.76907062530518,-5.29469633102417,0.12074468284845,-0.42910245060921
427,1196981333,-0.96490806341171,1.78502619266510,36.28228378295898,-0.29747220873833,-0.18747939169407,9.77167892456055,-5.34638261795044,0.13786676526070,-0.26402851939201
428,1196998000,-0.96642148494720,1.78398787975311,36.28013992309570,-0.31602880358696,-0.17580291628838,9.76826858520508,-5.45850181579590,0.07209334522486,-0.36171531677246
429,1197014667,-0.96687859296799,1.78410661220551,36.27760696411133,-0.31460058689117,-0.18496949970722,9.79532241821289,-5.39658355712891,0.14142692089081,-0.33973968029022
430,1197031334,-0.96504706144333,1.78365170955658,36.27365875244141,-0.30577734112740,-0.19359610974789,9.78740501403809,-5.25791645050049,0.10732362419367,-0.38963320851326
431,1197048001,-0.96512609720230,1.78360247612000,36.27065277099609,-0.31815603375435,-0.20523777604103,9.78757953643799,-5.37427520751953,0.13109220564365,-0.31116870045662
432,1197064668,-0.96471095085144,1.78277218341827,36.26908874511719,-0.30309212207794,-0.18493010103703,9.78389930725098,-5.34347581863403,0.08351662009954,-0.31466484069824
433,1197081335,-0.96465706825256,1.78269410133362,36.26791763305664,-0.30314055085182,-0.18570125102997,9.75789165496826,-5.36582279205322,0.12903039157391,-0.32675403356552
434,1197098002,-0.96505528688431,1.78233110904694,36.26494598388672,-0.29389837384224,-0.18165343999863,9.78255844116211,-5.39534139633179,0.11015383899212,-0.25292545557022
435,1197114669,-0.96536689996719,1.78345477581024,36.26120758056641,-0.30683752894402,-0.17410224676132,9.77487182617188,-5.38564634323120,0.20202659070492,-0.38653409481049
436,1197131336,-0.96574962139130,1.78356480598450,36.26013946533203,-0.30329132080078,-0.18699753284454,9.79072856903076,-5.39233255386353,0.14012070000172,-0.32514047622681
437,1197148003,-0.96548867225647,1.78324007987976,36.25706100463867,-0.29935815930367,-0.16279961168766,9.78462409973145,-5.35205602645874,0.11432869732380,-0.35754051804543
438,1197164670,-0.96446442604065,1.78334987163544,36.25230789184570,-0.31187680363655,-0.19615094363689,9.78378486633301,-5.30586338043213,0.14115801453590,-0.39552414417267
439,1197181337,-0.96479153633118,1.78416073322296,36.24962997436523,-0.31428450345993,-0.17300209403038,9.77243804931641,-5.38700485229492,0.18272742629051,-0.36843875050545
440,1197198004,-0.96348130702972,1.78402638435364,36.24713897705078,-0.30276525020599,-0.17703545093536,9.78839015960693,-5.29017591476440,0.12570074200630,-0.30974724888802
441,1197214671,-0.96296983957291,1.78345227241516,36.24582672119141,-0.30410087108612,-0.17947567999363,9.77710914611816,-5.33757162094116,0.09966542571783,-0.36400774121284
442,1197231338,-0.96276456117630,1.78182482719421,36.24510574340820,-0.30709838867188,-0.19044359028339,9.77436733245850,-5.35521841049194,0.03651730716228,-0.34692403674126
443,1197248005,-0.96195513010025,1.78075301647186,36.24127960205078,-0.29290544986725,-0.19192388653755,9.79863548278809,-5.32100009918213,0.06932717561722,-0.32442325353622
444,1197264672,-0.96109718084335,1.77946269512177,36.24030303955078,-0.28281310200691,-0.17661906778812,9.78680324554443,-5.31907939910889,0.05534264817834,-0.29032000899315
445,1197281339,-0.96051448583603,1.77960658073425,36.23678970336914,-0.29760950803757,-0.17782700061798,9.76591777801514,-5.33201408386230,0.14352717995644,-0.40683215856552
446,1197298006,-0.96101969480515,1.77994239330292,36.23327636718750,-0.29875561594963,-0.16428151726723,9.78516483306885,-5.39795351028442,0.15446381270885,-0.35468468070030
447,1197314673,-0.96053069829941,1.78131675720215,36.23165893554688,-0.29272741079330,-0.18242467939854,9.78471946716309,-5.33904457092285,0.21651056408882,-0.35346809029579
448,1197331340,-0.96025949716568,1.78096175193787,36.23056030273438,-0.29577878117561,-0.18212255835533,9.76155757904053,-5.35095453262329,0.11359874904156,-0.38777634501457
449,1197348007,-0.96042150259018,1.78060066699982,36.22908401489258,-0.30370569229126,-0.19130481779575,9.76305961608887,-5.38066577911377,0.11087099462748,-0.24857129156590
450,1197364674,-0.96052777767181,1.77930080890656,36.22422027587891,-0.30808201432228,-0.19505523145199,9.79415130615234,-5.37335348129272,0.05645680427551,-0.40915012359619
451,1197381341,-0.96067857742310,1.78032207489014,36.22059631347656,-0.30013459920883,-0.19238905608654,9.77188682556152,-5.37588882446289,0.19627654552460,-0.38320446014404
452,1197398008,-0.95972919464111,1.78060662746429,36.21861648559570,-0.29940098524094,-0.17585819959641,9.78408527374268,-5.31210041046143,0.15071153640747,-0.33835664391518
453,1197414675,-0.95950293540955,1.78061890602112,36.21542739868164,-0.31124094128609,-0.17656357586384,9.78165149688721,-5.35493707656860,0.13501095771790,-0.36476328969002
454,1197431342,-0.95891928672791,1.78097760677338,36.21461105346680,-0.30385568737984,-0.18104931712151,9.78341007232666,-5.33586835861206,0.15507851541042,-0.27595126628876
455,1197448009,-0.95919114351273,1.78052973747253,36.21455383300781,-0.31232631206512,-0.18436698615551,9.79361534118652,-5.38556957244873,0.10641437023878,-0.34353035688400
456,1197464676,-0.95855408906937,1.78210198879242,36.21429824829102,-0.31592413783073,-0.18672478199005,9.79098320007324,-5.33301258087158,0.22788259387016,-0.26908707618713
457,1197481343,-0.95842707157135,1.78284204006195,36.21164321899414,-0.29503667354584,-0.17345067858696,9.77444648742676,-5.35808753967285,0.17948740720749,-0.43884804844856
458,1197498010,-0.95927011966705,1.78343451023102,36.21131896972656,-0.29742544889450,-0.19215068221092,9.78081798553467,-5.41904544830322,0.16903743147850,-0.33751136064529
459,1197514677,-0.95937883853912,1.78294742107391,36.20880889892578,-0.30948510766029,-0.17898087203503,9.76907825469971,-5.37515830993652,0.10483919829130,-0.33849748969078
460,1197531344,-0.95923048257828,1.78201651573181,36.20658111572266,-0.31048625707626,-0.19406765699387,9.79210376739502,-5.35591030120850,0.07993084192276,-0.45727637410164
461,1197548011,-0.95903658866882,1.78119409084320,36.20641708374023,-0.31753334403038,-0.16987413167953,9.78841018676758,-5.35807514190674,0.08346539735794,-0.29924604296684
462,1197564678,-0.95874226093292,1.78188467025757,36.20518875122070,-0.30801719427109,-0.19579084217548,9.77874183654785,-5.35179996490479,0.17519727349281,-0.34438842535019
463,1197581345,-0.95783221721649,1.78229761123657,36.20252990722656,-0.31029748916626,-0.18712651729584,9.77883720397949,-5.31486654281616,0.15810081362724,-0.30593094229698
464,1197598012,-0.95729488134384,1.78350460529327,36.20278549194336,-0.31110605597496,-0.18191899359226,9.79288387298584,-5.33804559707642,0.20440857112408,-0.26763993501663
465,1197614679,-0.95618605613708,1.78330063819885,36.19804763793945,-0.30981165170670,-0.19332605600357,9.79111099243164,-5.30156040191650,0.12114167958498,-0.36221483349800
466,1197631346,-0.95580887794495,1.78373777866364,36.19625473022461,-0.30658146739006,-0.17499977350235,9.78255939483643,-5.34649801254272,0.15998333692551,-0.34267234802246
467,1197648013,-0.95562160015106,1.78352475166321,36.19607162475586,-0.29795765876770,-0.18295919895172,9.77893543243408,-5.35879230499268,0.12032207846642,-0.29924601316452
468,1197664680,-0.95614451169968,1.78383743762970,36.19455337524414,-0.29815474152565,-0.16681708395481,9.76528167724609,-5.39936256408691,0.15245321393013,-0.35588851571083
469,1197681347,-0.95563250780106,1.78308868408203,36.19171142578125,-0.28859981894493,-0.20285856723785,9.76706695556641,-5.33618927001953,0.08906178176403,-0.36040917038918
470,1197698014,-0.95606011152267,1.78336596488953,36.18835830688477,-0.29267543554306,-0.19307151436806,9.76857948303223,-5.39452171325684,0.15032735466957,-0.36121594905853
471,1197714681,-0.95597845315933,1.78373992443085,36.18603897094727,-0.30137559771538,-0.18279565870762,9.79525661468506,-5.36423492431641,0.15646161139011,-0.32264322042465
472,1197731348,-0.95548671483994,1.78409779071808,36.18475341796875,-0.29458013176918,-0.18504934012890,9.78424072265625,-5.33807134628296,0.15575724840164,-0.37814590334892
473,1197748015,-0.95652288198471,1.78368151187897,36.18350601196289,-0.29221192002296,-0.17392396926880,9.78217983245850,-5.42959833145142,0.10892442613840,-0.33574411273003
474,1197764682,-0.95554071664810,1.78470635414124,36.18036651611328,-0.30395579338074,-0.19957743585110,9.77609825134277,-5.30851459503174,0.19543130695820,-0.41014900803566
475,1197781349,-0.95482921600342,1.78503668308258,36.18050003051758,-0.30495846271515,-0.18388237059116,9.78417587280273,-5.32672500610352,0.15409241616726,-0.32534533739090
476,1197798016,-0.95420217514038,1.78521752357483,36.17984008789062,-0.30652040243149,-0.18580886721611,9.77615642547607,-5.33069515228271,0.14383453130722,-0.33301636576653
477,1197814683,-0.95386099815369,1.78534567356110,36.17783355712891,-0.29248157143593,-0.18053905665874,9.78723430633545,-5.34538364410400,0.14213128387928,-0.42636182904243
478,1197831350,-0.95338100194931,1.78542935848236,36.17432785034180,-0.30507785081863,-0.18347065150738,9.78214931488037,-5.33946704864502,0.13901935517788,-0.37744155526161
479,1197848017,-0.95921182632446,1.77879178524017,36.16513824462891,-0.30874714255333,-0.16801558434963,9.79164314270020,-5.32444572448730,0.10965438932180,-0.38011813163757
480,1197864684,-0.95879089832306,1.77920603752136,36.16375350952148,-0.30416241288185,-0.18899413943291,9.78720092773438,-5.34298944473267,0.15858745574951,-0.31973618268967
481,1197881351,-0.95876336097717,1.77809584140778,36.16139984130859,-0.30331575870514,-0.17951913177967,9.77897071838379,-5.36345291137695,0.06849476695061,-0.40315675735474
482,1197898018,-0.95900177955627,1.77783358097076,36.16013336181641,-0.31116354465485,-0.18918624520302,9.78017711639404,-5.38128042221069,0.11856760084629,-0.34132772684097
483,1197914685,-0.95863091945648,1.77734315395355,36.15967559814453,-0.30824509263039,-0.18473029136658,9.79819583892822,-5.34640836715698,0.10396835952997,-0.33101856708527
484,1197931352,-0.95912647247314,1.77809667587280,36.15900421142578,-0.30258849263191,-0.18155868351460,9.78785705566406,-5.39709615707397,0.17998686432838,-0.38347336649895
485,1197948019,-0.95853519439697,1.77751696109772,36.15746307373047,-0.31357163190842,-0.16836759448051,9.77152633666992,-5.33188629150391,0.09946051239967,-0.34529763460159
486,1197964686,-0.95812797546387,1.77738964557648,36.15496444702148,-0.29527753591537,-0.17986404895782,9.78607177734375,-5.34511518478394,0.12625141441822,-0.30480399727821
487,1197981353,-0.95782721042633,1.77814698219299,36.15127182006836,-0.31749948859215,-0.19411770999432,9.77912902832031,-5.34635734558105,0.18034543097019,-0.41577103734016
488,1197998020,-0.95690631866455,1.77907860279083,36.14830017089844,-0.30720177292824,-0.17418166995049,9.77194690704346,-5.31140851974487,0.19048805534840,-0.37701898813248
489,1198014687,-0.95620000362396,1.77938258647919,36.15022659301758,-0.30356478691101,-0.18823352456093,9.78408718109131,-5.32604646682739,0.15214586257935,-0.31314092874527
490,1198031354,-0.95629596710205,1.77855134010315,36.15016174316406,-0.29263636469841,-0.18772214651108,9.78517436981201,-5.37319993972778,0.08488690853119,-0.36642813682556
491,1198048021,-0.95546746253967,1.77742362022400,36.14787673950195,-0.30418869853020,-0.17521366477013,9.79111671447754,-5.31813144683838,0.06659943610430,-0.33270901441574
492,1198064688,-0.95496261119843,1.77728772163391,36.14657974243164,-0.30121207237244,-0.18092156946659,9.76682758331299,-5.33846807479858,0.12475307285786,-0.30066752433777
493,1198081355,-0.95384383201599,1.77696478366852,36.14510726928711,-0.29479092359543,-0.17359884083271,9.78459262847900,-5.30021572113037,0.11507148295641,-0.36800330877304
494,1198098022,-0.95353305339813,1.77707803249359,36.14271163940430,-0.30646389722824,-0.18738855421543,9.76638698577881,-5.34998130798340,0.14028717577457,-0.32652354240417
495,1198114689,-0.95242667198181,1.77680528163910,36.14080047607422,-0.30588081479073,-0.16622218489647,9.77737903594971,-5.30003738403320,0.11758153140545,-0.37608414888382
496,1198131356,-0.95143085718155,1.77570009231567,36.13849258422852,-0.30688250064850,-0.18844956159592,9.78037738800049,-5.30690145492554,0.06808497011662,-0.35926938056946
497,1198148023,-0.95254963636398,1.77554237842560,36.13729858398438,-0.29704797267914,-0.16530394554138,9.76394748687744,-5.43610429763794,0.12475307285786,-0.32421839237213
498,1198164690,-0.95232099294662,1.77539396286011,36.13622665405273,-0.30202618241310,-0.17920129001141,9.78939533233643,-5.35349035263062,0.12532936036587,-0.35692584514618
499,1198181357,-0.95182114839554,1.77514255046844,36.13467025756836,-0.29712232947350,-0.18781776726246,9.78925609588623,-5.33717489242554,0.11916951090097,-0.35586288571358
500,1198198024,-0.95153415203094,1.77486693859100,36.13510894775391,-0.29866555333138,-0.19144219160080,9.78498077392578,-5.35201740264893,0.11745344102383,-0.29655668139458
501,1198214691,-0.95030736923218,1.77400636672974,36.13171768188477,-0.29942217469215,-0.17051449418068,9.78458976745605,-5.29319763183594,0.08235123753548,-0.38593217730522
502,1198231358,-0.94944548606873,1.77349996566772,36.13050460815430,-0.30046033859253,-0.17591315507889,9.77068042755127,-5.31553268432617,0.10362260043621,-0.34645026922226
503,1198248025,-0.94894218444824,1.77413570880890,36.12863540649414,-0.31286385655403,-0.19149024784565,9.77382659912109,-5.33891582489014,0.17154747247696,-0.30621266365051
504,1198264692,-0.94949746131897,1.77512824535370,36.12791061401367,-0.31270951032639,-0.17005422711372,9.79113578796387,-5.40148878097534,0.19377931952477,-0.32524290680885
505,1198281359,-0.94925993680954,1.77500188350677,36.12660217285156,-0.30450934171677,-0.19389319419861,9.78982067108154,-5.35219717025757,0.12686611711979,-0.36600553989410
506,1198298026,-0.94946342706680,1.77633953094482,36.12637710571289,-0.29884073138237,-0.18519489467144,9.77108669281006,-5.38083219528198,0.21246379613876,-0.30673775076866
507,1198314693,-0.94907301664352,1.77691841125488,36.12440109252930,-0.30697306990623,-0.18766297399998,9.79002666473389,-5.34451293945312,0.16926795244217,-0.34765401482582
508,1198331360,-0.94871670007706,1.77652812004089,36.12330627441406,-0.30990684032440,-0.16461342573166,9.76860713958740,-5.34401369094849,0.11204916238785,-0.41884452104568
509,1198348027,-0.94875311851501,1.77545535564423,36.12120437622070,-0.29877763986588,-0.18380090594292,9.78683853149414,-5.36924219131470,0.07040291279554,-0.35934624075890
510,1198364694,-0.94827264547348,1.77465069293976,36.11751174926758,-0.30212175846100,-0.19248259067535,9.79039573669434,-5.33982563018799,0.08515582978725,-0.31201395392418
511,1198381361,-0.94782269001007,1.77538907527924,36.11669921875000,-0.30149978399277,-0.17906473577023,9.78274154663086,-5.34060716629028,0.17732314765453,-0.31955692172050
512,1198398028,-0.94606411457062,1.77565109729767,36.11484527587891,-0.29843702912331,-0.17785857617855,9.76922035217285,-5.26056671142578,0.15077556669712,-0.40304142236710
513,1198414695,-0.94459587335587,1.77512562274933,36.11549758911133,-0.30143919587135,-0.18473820388317,9.78257465362549,-5.28017377853394,0.10172724723816,-0.34309491515160
514,1198431362,-0.94396609067917,1.77523779869080,36.11449050903320,-0.30034625530243,-0.19216181337833,9.76107883453369,-5.32933759689331,0.14096590876579,-0.35467186570168
515,1198448029,-0.94324648380280,1.77629148960114,36.11537170410156,-0.30049905180931,-0.18165086209774,9.77424907684326,-5.32481718063354,0.19771085679531,-0.33685830235481
516,1198464696,-0.94177442789078,1.77527880668640,36.11534881591797,-0.29898330569267,-0.19877319037914,9.77461814880371,-5.27898263931274,0.07370695471764,-0.37954184412956
517,1198481363,-0.94134980440140,1.77390146255493,36.11542892456055,-0.29725441336632,-0.17226071655750,9.77793884277344,-5.34293794631958,0.05189773812890,-0.33881762623787
518,1198498030,-0.94228810071945,1.77279019355774,36.11748123168945,-0.29094585776329,-0.19208653271198,9.78101921081543,-5.42200469970703,0.06825146079063,-0.41749987006187
519,1198514697,-0.94240987300873,1.77227461338043,36.11572265625000,-0.31069123744965,-0.18328484892845,9.78645229339600,-5.37335348129272,0.10395556688309,-0.38930028676987
520,1198531364,-0.94173067808151,1.77285885810852,36.11511230468750,-0.29627719521523,-0.18626075983047,9.79480934143066,-5.32503509521484,0.16971616446972,-0.40614059567451
521,1198548031,-0.94108599424362,1.77316427230835,36.11798858642578,-0.30795595049858,-0.18009431660175,9.77851390838623,-5.32860755920410,0.15285021066666,-0.36089581251144
522,1198564698,-0.94151610136032,1.77427411079407,36.11619949340820,-0.30451422929764,-0.17986509203911,9.77883625030518,-5.39234495162964,0.20091246068478,-0.38112983107567
523,1198581365,-0.94237017631531,1.77380192279816,36.11553955078125,-0.30074986815453,-0.19258801639080,9.76257419586182,-5.41850757598877,0.10613262653351,-0.36804169416428
524,1198598032,-0.94230270385742,1.77444052696228,36.11565017700195,-0.30891171097755,-0.17620751261711,9.78833103179932,-5.36442708969116,0.17202131450176,-0.33096733689308
525,1198614699,-0.94236481189728,1.77413570880890,36.11488723754883,-0.29187226295471,-0.19325177371502,9.76593017578125,-5.37031841278076,0.11622405052185,-0.39206647872925
526,1198631366,-0.94141733646393,1.77346873283386,36.11271286010742,-0.30438119173050,-0.17314434051514,9.78462982177734,-5.30805349349976,0.09500391781330,-0.40076196193695
527,1198648033,-0.94039922952652,1.77320015430450,36.11059188842773,-0.30549719929695,-0.19566525518894,9.78986167907715,-5.30386543273926,0.11907986551523,-0.42071422934532
528,1198664700,-0.94134384393692,1.77369523048401,36.11147689819336,-0.30457651615143,-0.18922269344330,9.78073787689209,-5.42573022842407,0.16223725676537,-0.28784835338593
529,1198681367,-0.94163572788239,1.77402639389038,36.10983657836914,-0.29933419823647,-0.18530167639256,9.80284500122070,-5.38285493850708,0.15514253079891,-0.42400547862053
530,1198698034,-0.94148832559586,1.77369761466980,36.10983657836914,-0.30089339613914,-0.17530164122581,9.76079273223877,-5.35845899581909,0.11326576024294,-0.34732103347778
531,1198714701,-0.94038534164429,1.77263796329498,36.10842895507812,-0.29274642467499,-0.17621877789497,9.76535987854004,-5.30033111572266,0.07106884568930,-0.38598340749741
532,1198731368,-0.93993318080902,1.77154207229614,36.10673522949219,-0.31654113531113,-0.19450518488884,9.78608894348145,-5.34140157699585,0.06770077347755,-0.31995385885239
533,1198748035,-0.94025492668152,1.77113008499146,36.10533142089844,-0.30929449200630,-0.17707379162312,9.79477500915527,-5.38822126388550,0.10901406407356,-0.32918727397919
534,1198764702,-0.93922561407089,1.77073407173157,36.10403060913086,-0.31455028057098,-0.17037717998028,9.78177070617676,-5.30427551269531,0.11113992333412,-0.39113155007362
535,1198781369,-0.93878185749054,1.76949775218964,36.10460662841797,-0.30090144276619,-0.18742693960667,9.78060436248779,-5.34142637252808,0.05914613232017,-0.31877565383911
536,1198798036,-0.93780666589737,1.76910626888275,36.10178375244141,-0.29582428932190,-0.18491435050964,9.76716423034668,-5.30909013748169,0.11075571924448,-0.36197146773338
537,1198814703,-0.93602353334427,1.76901149749756,36.10088729858398,-0.30102130770683,-0.16421060264111,9.78356170654297,-5.26069641113281,0.12777538597584,-0.33245292305946
538,1198831370,-0.93603026866913,1.76795184612274,36.09696578979492,-0.30035111308098,-0.18077263236046,9.76118946075439,-5.36467027664185,0.07191406935453,-0.44125568866730
539,1198848037,-0.93519997596741,1.76788711547852,36.09575271606445,-0.29416304826736,-0.18921154737473,9.77643775939941,-5.31706905364990,0.13002927601337,-0.35915410518646
540,1198864704,-0.93396711349487,1.76863658428192,36.09313201904297,-0.30052164196968,-0.17639124393463,9.78145122528076,-5.29213476181030,0.17961546778679,-0.39786770939827
541,1198881371,-0.93340456485748,1.76818597316742,36.09352874755859,-0.30233779549599,-0.18258616328239,9.76217460632324,-5.33408784866333,0.10656804591417,-0.31799447536469
542,1198898038,-0.93326544761658,1.76734769344330,36.09042739868164,-0.29359075427055,-0.19283169507980,9.78393745422363,-5.35749864578247,0.08406729251146,-0.41123753786087
543,1198914705,-0.93207663297653,1.76624226570129,36.08844757080078,-0.29394310712814,-0.19738444685936,9.77651977539062,-5.29572057723999,0.06764955073595,-0.35873147845268
544,1198931372,-0.93107581138611,1.76592051982880,36.08840942382812,-0.30087360739708,-0.18006634712219,9.77288055419922,-5.30713129043579,0.11507146805525,-0.35284057259560
545,1198948039,-0.93091773986816,1.76588439941406,36.08657455444336,-0.30404350161552,-0.18099653720856,9.78315734863281,-5.35714006423950,0.13110502064228,-0.36156168580055
546,1198964706,-0.93027114868164,1.76437938213348,36.08398818969727,-0.29549705982208,-0.18406008183956,9.78013610839844,-5.32640504837036,0.04452127963305,-0.39885380864143
547,1198981373,-0.92960649728775,1.76376962661743,36.08209228515625,-0.29138848185539,-0.18353602290154,9.77135848999023,-5.32605886459351,0.09843601286411,-0.40234991908073
548,1198998040,-0.92834097146988,1.76379585266113,36.08004760742188,-0.29979124665260,-0.18514676392078,9.77562046051025,-5.29103326797485,0.13554883003235,-0.35094526410103
549,1199014707,-0.92641562223434,1.76348292827606,36.07975769042969,-0.31184232234955,-0.17871013283730,9.79334163665771,-5.25397205352783,0.11436712741852,-0.29811906814575
550,1199031374,-0.92536461353302,1.76289618015289,36.08226776123047,-0.30154213309288,-0.16940052807331,9.77902889251709,-5.30717039108276,0.09766764193773,-0.26501464843750
551,1199048041,-0.92462033033371,1.76188015937805,36.08029556274414,-0.30345946550369,-0.17835451662540,9.79149723052979,-5.31982183456421,0.07421921193600,-0.44471332430840
552,1199064708,-0.92385673522949,1.76248753070831,36.07909393310547,-0.30956107378006,-0.19438561797142,9.79871463775635,-5.32112836837769,0.16976739466190,-0.35218745470047
553,1199081375,-0.92303019762039,1.76226913928986,36.07914352416992,-0.30574572086334,-0.18266947567463,9.78055191040039,-5.31815767288208,0.12125694751740,-0.33671739697456
554,1199098042,-0.92245566844940,1.76234996318817,36.07924652099609,-0.29275402426720,-0.19378384947777,9.78627586364746,-5.33294868469238,0.13855831325054,-0.36334177851677
555,1199114709,-0.92184120416641,1.76290202140808,36.07739257812500,-0.29122841358185,-0.17526596784592,9.77191925048828,-5.32903003692627,0.16789765655994,-0.40494963526726
556,1199131376,-0.92183393239975,1.76272618770599,36.07620239257812,-0.29455855488777,-0.20051875710487,9.78563976287842,-5.36575889587402,0.12393346428871,-0.39425635337830
557,1199148043,-0.92287534475327,1.76235055923462,36.07656097412109,-0.30166625976562,-0.17907842993736,9.80184745788574,-5.43095636367798,0.10983366519213,-0.29408505558968
558,1199164710,-0.92180562019348,1.76234698295593,36.07688903808594,-0.30815929174423,-0.18416337668896,9.78529930114746,-5.30252075195312,0.13353821635246,-0.36763194203377
559,1199181377,-0.92112058401108,1.76224958896637,36.07480621337891,-0.31305056810379,-0.17796644568443,9.78476428985596,-5.32452201843262,0.12964509427547,-0.41687232255936
560,1199198044,-0.92080318927765,1.76151812076569,36.07418441772461,-0.29331427812576,-0.18820649385452,9.78308582305908,-5.34635686874390,0.09018872678280,-0.39767560362816
561,1199214711,-0.92014622688293,1.76094949245453,36.07235717773438,-0.30400800704956,-0.19054804742336,9.77835941314697,-5.32823562622070,0.09972945600748,-0.35873147845268
562,1199231378,-0.92004537582397,1.75896787643433,36.07343292236328,-0.30532190203667,-0.17067952454090,9.79299831390381,-5.36112308502197,0.01598873175681,-0.35412126779556
563,1199248045,-0.92003095149994,1.75861370563507,36.07131195068359,-0.28946942090988,-0.19093148410320,9.78702831268311,-5.36372280120850,0.11394451558590,-0.41606554389000
564,1199264712,-0.92001366615295,1.75905871391296,36.06946182250977,-0.31758114695549,-0.18030643463135,9.78815269470215,-5.36707782745361,0.16062365472317,-0.33441221714020
565,1199281379,-0.91822278499603,1.75892794132233,36.06722259521484,-0.29142728447914,-0.19261975586414,9.76506519317627,-5.25813388824463,0.12649475038052,-0.42012515664101
566,1199298046,-0.91802579164505,1.76016271114349,36.06731796264648,-0.29263699054718,-0.16078929603100,9.77980804443359,-5.35553884506226,0.20794312655926,-0.31663703918457
567,1199314713,-0.91752034425735,1.76032781600952,36.06594085693359,-0.29530340433121,-0.19202928245068,9.78173160552979,-5.33575344085693,0.14374488592148,-0.37508517503738
568,1199331380,-0.91768300533295,1.76106321811676,36.06489181518555,-0.28813654184341,-0.19222022593021,9.78132438659668,-5.37969207763672,0.17674684524536,-0.28107380867004
569,1199348047,-0.91800487041473,1.76010596752167,36.06480407714844,-0.31211549043655,-0.17399938404560,9.78621101379395,-5.38722229003906,0.07616577297449,-0.32008191943169
570,1199364714,-0.91735416650772,1.75990593433380,36.06126022338867,-0.30140340328217,-0.18931624293327,9.78697013854980,-5.32758283615112,0.12179479748011,-0.36226609349251
571,1199381381,-0.91739952564240,1.76004779338837,36.05872726440430,-0.30193009972572,-0.17437592148781,9.78211498260498,-5.36913919448853,0.14295089244843,-0.36731174588203
572,1199398048,-0.91618353128433,1.76026344299316,36.05521774291992,-0.28530600667000,-0.18240162730217,9.78455257415771,-5.29434967041016,0.14679279923439,-0.34565618634224
573,1199414715,-0.91500800848007,1.75964283943176,36.05439758300781,-0.29366299510002,-0.18277126550674,9.80708789825439,-5.29632234573364,0.09631016850471,-0.36364918947220
574,1199431382,-0.91412198543549,1.75960195064545,36.05237579345703,-0.29298186302185,-0.18696950376034,9.77350330352783,-5.31281709671021,0.13210391998291,-0.38042545318604
575,1199448049,-0.91305744647980,1.75906431674957,36.05090713500977,-0.30895560979843,-0.17260996997356,9.78834152221680,-5.30412197113037,0.10167602449656,-0.34867852926254
576,1199464716,-0.91157948970795,1.75957584381104,36.04939651489258,-0.31435075402260,-0.18056020140648,9.79130744934082,-5.27833032608032,0.16479854285717,-0.33810049295425
577,1199481383,-0.91054672002792,1.75999379158020,36.04890441894531,-0.30299627780914,-0.17823195457458,9.79806900024414,-5.30659341812134,0.15831851959229,-0.31891655921936
578,1199498050,-0.91098845005035,1.75945341587067,36.04717636108398,-0.30076313018799,-0.18536138534546,9.77274990081787,-5.39412546157837,0.10098449140787,-0.33781877160072
579,1199514717,-0.91058886051178,1.75894916057587,36.04763031005859,-0.29411759972572,-0.19544196128845,9.77723217010498,-5.34339857101440,0.10358417779207,-0.33792117238045
580,1199531384,-0.91153901815414,1.75802993774414,36.04694366455078,-0.29345917701721,-0.17749494314194,9.78689861297607,-5.42405366897583,0.07815075665712,-0.33953481912613
581,1199548051,-0.91102886199951,1.75775015354156,36.04565048217773,-0.29910761117935,-0.19255401194096,9.80468845367432,-5.33545875549316,0.11768396198750,-0.39415386319160
582,1199564718,-0.91029477119446,1.75771713256836,36.04525375366211,-0.30874979496002,-0.18655326962471,9.78707885742188,-5.32389450073242,0.13174533843994,-0.33617949485779
583,1199581385,-0.90989083051682,1.75617158412933,36.04179000854492,-0.30275750160217,-0.17975339293480,9.77021503448486,-5.34204149246216,0.04181914031506,-0.35679778456688
584,1199598052,-0.90961718559265,1.75552368164062,36.03913879394531,-0.30459830164909,-0.17817401885986,9.79160022735596,-5.35023784637451,0.09517040848732,-0.36921992897987
585,1199614719,-0.90868264436722,1.75542294979095,36.03820037841797,-0.31035381555557,-0.18987520039082,9.76607990264893,-5.30926942825317,0.12896636128426,-0.39430752396584
586,1199631386,-0.90794503688812,1.75527608394623,36.03750610351562,-0.30571046471596,-0.18264068663120,9.77674293518066,-5.32402276992798,0.12380541115999,-0.30484235286713
587,1199648053,-0.90715843439102,1.75377392768860,36.03551483154297,-0.29999685287476,-0.17527499794960,9.78621196746826,-5.31861782073975,0.04463653266430,-0.39786770939827
588,1199664720,-0.90575510263443,1.75228309631348,36.03538131713867,-0.30576950311661,-0.18527927994728,9.76418781280518,-5.28331184387207,0.04365045204759,-0.32126012444496
589,1199681387,-0.90546411275864,1.75122439861298,36.03336334228516,-0.30438476800919,-0.18410143256187,9.77594757080078,-5.34712600708008,0.07168354839087,-0.42814195156097
590,1199698054,-0.90525484085083,1.74993097782135,36.03142929077148,-0.30603206157684,-0.18711376190186,9.77661800384521,-5.35241460800171,0.05808320268989,-0.42682284116745
591,1199714721,-0.90531951189041,1.75060129165649,36.03036499023438,-0.29470822215080,-0.17792087793350,9.79984378814697,-5.37016391754150,0.17349402606487,-0.35426208376884
592,1199731388,-0.90510338544846,1.75019037723541,36.03029632568359,-0.28236308693886,-0.18787206709385,9.77720546722412,-5.35616683959961,0.10836094617844,-0.29598039388657
593,1199748055,-0.90520316362381,1.74945580959320,36.03077697753906,-0.30369558930397,-0.17337918281555,9.78821182250977,-5.37482547760010,0.08933069556952,-0.30858179926872
594,1199764722,-0.90506035089493,1.74943959712982,36.03416442871094,-0.30048432946205,-0.16713638603687,9.79177951812744,-5.35944509506226,0.13120748102665,-0.29221531748772
595,1199781389,-0.90376776456833,1.74956393241882,36.03623580932617,-0.30955216288567,-0.18049663305283,9.77900600433350,-5.29186582565308,0.14005665481091,-0.28706717491150
596,1199798056,-0.90270906686783,1.74899685382843,36.03579330444336,-0.30168670415878,-0.17669753730297,9.78246688842773,-5.30319976806641,0.10042100399733,-0.34945970773697
597,1199814723,-0.90208828449249,1.74878776073456,36.03709793090820,-0.30001804232597,-0.20374813675880,9.77064037322998,-5.33042573928833,0.12156428396702,-0.35855221748352
598,1199831390,-0.90089237689972,1.74801170825958,36.03530502319336,-0.30672055482864,-0.17114251852036,9.78578281402588,-5.29554128646851,0.08646208047867,-0.35757893323898
599,1199848057,-0.93336582183838,1.76758432388306,36.04219818115234,-0.29392850399017,-0.19518153369427,9.78857517242432,-5.33214235305786,0.13202707469463,-0.36640253663063
600,1199864724,-0.93185597658157,1.76698374748230,36.04139709472656,-0.29662102460861,-0.17500910162926,9.78705978393555,-5.27323246002197,0.09600280970335,-0.37299779057503
601,1199881391,-0.93121349811554,1.76782059669495,36.04385375976562,-0.29500457644463,-0.19005076587200,9.78355503082275,-5.32545709609985,0.18174134194851,-0.34414505958557
602,1199898058,-0.93006443977356,1.76702594757080,36.04034805297852,-0.30621936917305,-0.17593631148338,9.77234077453613,-5.29372215270996,0.08400325477123,-0.36682507395744
603,1199914725,-0.93055546283722,1.76675176620483,36.04052734375000,-0.30758801102638,-0.19283853471279,9.77764606475830,-5.39392042160034,0.11421345174313,-0.31693157553673
604,1199931392,-0.93028652667999,1.76692104339600,36.03995895385742,-0.30110239982605,-0.17014171183109,9.77315044403076,-5.34816217422485,0.14136289060116,-0.31832745671272
605,1199948059,-0.92949151992798,1.76633262634277,36.04145812988281,-0.30615067481995,-0.18378180265427,9.79394531250000,-5.31881046295166,0.09517040103674,-0.27630984783173
606,1199964726,-0.92806828022003,1.76650524139404,36.03873825073242,-0.30751392245293,-0.20262975990772,9.79956722259521,-5.27441120147705,0.14370647072792,-0.45465111732483
607,1199981393,-0.92899399995804,1.76621341705322,36.03831100463867,-0.30521607398987,-0.17714348435402,9.78372764587402,-5.41784238815308,0.11477693170309,-0.35713070631027
608,1199998060,-0.92822068929672,1.76628053188324,36.03446197509766,-0.30635097622871,-0.19888202846050,9.78691482543945,-5.31690216064453,0.13612511754036,-0.38839101791382
609,1200014727,-0.92675596475601,1.76557564735413,36.03282165527344,-0.30964717268944,-0.17569537460804,9.77585029602051,-5.27574253082275,0.08934350311756,-0.34846079349518
610,1200031394,-0.92634218931198,1.76486194133759,36.03324890136719,-0.30943629145622,-0.19807888567448,9.77300262451172,-5.33981323242188,0.08921544998884,-0.32546061277390
611,1200048061,-0.92578679323196,1.76445794105530,36.03192520141602,-0.30002081394196,-0.17167450487614,9.78216648101807,-5.33034944534302,0.10660646855831,-0.34233939647675
612,1200064728,-0.92472428083420,1.76380074024200,36.03054428100586,-0.31027910113335,-0.19332383573055,9.78563022613525,-5.29883241653442,0.09359522163868,-0.40606379508972
613,1200081395,-0.92317467927933,1.76346230506897,36.03019714355469,-0.29857710003853,-0.18815004825592,9.80446720123291,-5.26962137222290,0.11124236881733,-0.38284584879875
614,1200098062,-0.92124277353287,1.76356196403503,36.02957534790039,-0.30915069580078,-0.17329886555672,9.79915714263916,-5.24660873413086,0.13878883421421,-0.39333426952362
615,1200114729,-0.92152142524719,1.76435780525208,36.02469635009766,-0.29986131191254,-0.17763078212738,9.77749443054199,-5.37915372848511,0.17951303720474,-0.36469927430153
616,1200131396,-0.92104399204254,1.76442646980286,36.02254486083984,-0.29613813757896,-0.17641858756542,9.79079914093018,-5.33301258087158,0.13690628111362,-0.40404036641121
617,1200148063,-0.91961306333542,1.76306068897247,36.02238845825195,-0.28720292448997,-0.19110397994518,9.78966999053955,-5.27713823318481,0.05033536255360,-0.36914303898811
618,1200164730,-0.92010462284088,1.76297879219055,36.02443313598633,-0.29543241858482,-0.17596265673637,9.77549171447754,-5.39351081848145,0.12622579932213,-0.32361653447151
619,1200181397,-0.91903144121170,1.76290774345398,36.02439117431641,-0.29219263792038,-0.18947958946228,9.75652790069580,-5.29844856262207,0.12650753557682,-0.33722966909409
620,1200198064,-0.91876661777496,1.76342821121216,36.02429199218750,-0.28586038947105,-0.17788825929165,9.76406192779541,-5.34865045547485,0.16160976886749,-0.29087066650391
621,1200214731,-0.91779303550720,1.76305794715881,36.02246856689453,-0.28832364082336,-0.18761667609215,9.78317356109619,-5.30253362655640,0.11135762184858,-0.44936203956604
622,1200231398,-0.91700637340546,1.76345717906952,36.02294540405273,-0.30518996715546,-0.16677504777908,9.76921939849854,-5.31649303436279,0.15471993386745,-0.30909413099289
623,1200248065,-0.91644948720932,1.76315665245056,36.02116394042969,-0.29047745466232,-0.18817521631718,9.78549098968506,-5.33086156845093,0.11295843124390,-0.32220780849457
624,1200264732,-0.91575354337692,1.76199293136597,36.01991271972656,-0.29154601693153,-0.18630772829056,9.76798152923584,-5.32050085067749,0.06246297433972,-0.37678846716881
625,1200281399,-0.91465985774994,1.76161706447601,36.02046585083008,-0.29761454463005,-0.18234953284264,9.77642536163330,-5.29628419876099,0.10965438932180,-0.39058092236519
626,1200298066,-0.91469103097916,1.76094317436218,36.02019119262695,-0.29264524579048,-0.18951088190079,9.79311656951904,-5.36458110809326,0.09129007905722,-0.38833981752396
627,1200314733,-0.91346514225006,1.75968468189240,36.01933670043945,-0.29707086086273,-0.18630450963974,9.76916790008545,-5.28876686096191,0.05635434389114,-0.37174275517464
628,1200331400,-0.91234582662582,1.75888037681580,36.01938247680664,-0.30130475759506,-0.18954408168793,9.78491783142090,-5.29634904861450,0.08308120816946,-0.32986602187157
629,1200348067,-0.91095417737961,1.75903499126434,36.02021789550781,-0.30110147595406,-0.18226206302643,9.79175472259521,-5.28180027008057,0.14000543951988,-0.31705966591835
630,1200364734,-0.91025131940842,1.76020479202271,36.01952362060547,-0.29612788558006,-0.18788668513298,9.76579952239990,-5.32117986679077,0.20264130830765,-0.35488963127136
631,1200381401,-0.90965646505356,1.76030611991882,36.01970672607422,-0.30462718009949,-0.17342896759510,9.79036045074463,-5.32799339294434,0.13698315620422,-0.33169734477997
632,1200398068,-0.90965092182159,1.75999271869659,36.01845550537109,-0.29187315702438,-0.18626764416695,9.76402473449707,-5.36335086822510,0.11312489956617,-0.35533779859543
633,1200414735,-0.90917408466339,1.75891745090485,36.01983642578125,-0.30098733305931,-0.17297610640526,9.78838634490967,-5.33439588546753,0.06677871942520,-0.35027933120728
634,1200431402,-0.90852349996567,1.75884902477264,36.01965713500977,-0.30126515030861,-0.18182569742203,9.78280544281006,-5.32357501983643,0.12739117443562,-0.36512190103531
635,1200448069,-0.90785890817642,1.75760436058044,36.01911163330078,-0.30157107114792,-0.18678712844849,9.77472591400146,-5.32322883605957,0.05780146270990,-0.36557009816170
636,1200464736,-0.90783023834229,1.75640523433685,36.01838302612305,-0.29431343078613,-0.18225735425949,9.77424049377441,-5.36132764816284,0.05965838208795,-0.35588851571083
637,1200481403,-0.90758079290390,1.75653433799744,36.01839447021484,-0.30825793743134,-0.19141186773777,9.78528976440430,-5.34879064559937,0.13950598239899,-0.34055933356285
638,1200498070,-0.90670377016068,1.75731325149536,36.01791000366211,-0.28872156143188,-0.18194334208965,9.78579330444336,-5.31074333190918,0.17778418958187,-0.32594728469849
639,1200514737,-0.90612900257111,1.75824022293091,36.01686477661133,-0.28031280636787,-0.18643876910210,9.78151988983154,-5.32844114303589,0.18706877529621,-0.36980900168419
640,1200531404,-0.90459132194519,1.75889503955841,36.01550674438477,-0.31143027544022,-0.19163657724857,9.79740810394287,-5.27038955688477,0.17104801535606,-0.36391809582710
641,1200548071,-0.90389591455460,1.75902378559113,36.01589584350586,-0.29823854565620,-0.17535679042339,9.77268218994141,-5.32189750671387,0.13812290132046,-0.31547164916992
642,1200564738,-0.90241998434067,1.75811517238617,36.01629257202148,-0.29809918999672,-0.19075113534927,9.78232002258301,-5.27759981155396,0.07507723569870,-0.24855849146843
643,1200581405,-0.90232914686203,1.75832402706146,36.01230239868164,-0.30793881416321,-0.17463700473309,9.79849720001221,-5.35616636276245,0.14487184584141,-0.40132546424866
644,1200598072,-0.90095841884613,1.75825858116150,36.01237106323242,-0.31098189949989,-0.18975421786308,9.77823829650879,-5.28154420852661,0.12716066837311,-0.30450943112373
645,1200614739,-0.90056622028351,1.75740349292755,36.01027297973633,-0.29396048188210,-0.15978045761585,9.75957298278809,-5.33793020248413,0.08048151433468,-0.39846962690353
646,1200631406,-0.90041971206665,1.75702023506165,36.01052093505859,-0.30442294478416,-0.19288769364357,9.77738761901855,-5.35512924194336,0.10798955708742,-0.33218395709991
647,1200648073,-0.89967042207718,1.75576150417328,36.01052093505859,-0.28897756338120,-0.18272310495377,9.75364398956299,-5.31681251525879,0.05659766867757,-0.37052616477013
648,1200664740,-0.89899772405624,1.75529432296753,36.01093292236328,-0.29208812117577,-0.18839080631733,9.78400325775146,-5.32444524765015,0.10294386744499,-0.29545533657074
649,1200681407,-0.89802742004395,1.75519216060638,36.01016998291016,-0.29614874720573,-0.17772142589092,9.76295280456543,-5.30514621734619,0.12476588040590,-0.35544025897980
650,1200698074,-0.89834535121918,1.75491559505463,36.01184463500977,-0.28234794735909,-0.19088606536388,9.75375461578369,-5.38065242767334,0.11633929610252,-0.40255486965179
651,1200714741,-0.89832890033722,1.75514364242554,36.01265335083008,-0.29987916350365,-0.17297241091728,9.77381801605225,-5.36442661285400,0.14355279505253,-0.25972563028336
652,1200731408,-0.89795333147049,1.75505888462067,36.01232528686523,-0.30406484007835,-0.19997684657574,9.76859092712402,-5.33914709091187,0.12630262970924,-0.37523889541626
653,1200748075,-0.89806830883026,1.75371634960175,36.01238250732422,-0.28744491934776,-0.19452439248562,9.77929592132568,-5.36869144439697,0.05184651166201,-0.38166767358780
654,1200764742,-0.89734601974487,1.75278818607330,36.00996780395508,-0.30818802118301,-0.17418064177036,9.77399826049805,-5.31974554061890,0.07534615695477,-0.34641179442406
655,1200781409,-0.89633458852768,1.75245916843414,36.00888824462891,-0.31650725007057,-0.18880769610405,9.76951026916504,-5.30176544189453,0.11181864887476,-0.36160013079643
656,1200798076,-0.89620715379715,1.75170886516571,36.00834274291992,-0.30442202091217,-0.17296846210957,9.78792190551758,-5.35546255111694,0.08667979389429,-0.36715814471245
657,1200814743,-0.89544600248337,1.75202572345734,36.00769042968750,-0.29508972167969,-0.19324889779091,9.78280258178711,-5.31628751754761,0.15085241198540,-0.36649218201637
658,1200831410,-0.89510756731033,1.75249278545380,36.00883483886719,-0.29819154739380,-0.17093172669411,9.78429698944092,-5.34558916091919,0.15788312256336,-0.25384750962257
659,1200848077,-0.89395409822464,1.75275325775146,36.00860214233398,-0.27948048710823,-0.17930439114571,9.76315212249756,-5.29209613800049,0.14806061983109,-0.39633098244667
660,1200864744,-0.89338093996048,1.75244212150574,36.00754928588867,-0.31072464585304,-0.18924646079540,9.77020549774170,-5.32982397079468,0.11207478493452,-0.31841713190079
661,1200881411,-0.89229118824005,1.75297927856445,36.00553131103516,-0.29581946134567,-0.16463814675808,9.77723121643066,-5.29579782485962,0.16523395478725,-0.42655399441719
662,1200898078,-0.89120018482208,1.75164616107941,36.00428771972656,-0.30489638447762,-0.18362295627594,9.79031658172607,-5.29660463333130,0.05203860998154,-0.38159084320068
663,1200914745,-0.89048719406128,1.75023937225342,36.00409317016602,-0.31861847639084,-0.18166320025921,9.77242469787598,-5.32018184661865,0.04653188213706,-0.33518064022064
664,1200931412,-0.88923054933548,1.74914634227753,36.00222778320312,-0.30691841244698,-0.19822847843170,9.77493476867676,-5.28675651550293,0.06575421243906,-0.36829784512520
665,1200948079,-0.88809961080551,1.74944007396698,36.00170898437500,-0.30088159441948,-0.16213509440422,9.78544712066650,-5.29310846328735,0.15025050938129,-0.38926187157631
666,1200964746,-0.88674706220627,1.74989223480225,35.99857330322266,-0.29866963624954,-0.17464248836040,9.76788520812988,-5.28159523010254,0.15872831642628,-0.37021884322166
667,1200981413,-0.88583934307098,1.74940443038940,35.99762344360352,-0.29970559477806,-0.18885275721550,9.77983188629150,-5.30756711959839,0.10150954872370,-0.36760634183884
668,1200998080,-0.88529205322266,1.75024580955505,35.99686813354492,-0.29855847358704,-0.19029377400875,9.77380561828613,-5.32878780364990,0.18254815042019,-0.38488212227821
669,1201014747,-0.88444560766220,1.75021779537201,35.99687194824219,-0.29954060912132,-0.16629122197628,9.80265426635742,-5.31125450134277,0.13087451457977,-0.38424172997475
670,1201031414,-0.88408505916595,1.75062119960785,35.99559402465820,-0.28502032160759,-0.17820295691490,9.77836322784424,-5.33973646163940,0.15594935417175,-0.40818962454796
671,1201048081,-0.88368022441864,1.75154078006744,35.99455261230469,-0.30723357200623,-0.18969018757343,9.78689575195312,-5.33794260025024,0.18742734193802,-0.38541993498802
672,1201064748,-0.88364440202713,1.75032579898834,35.99335861206055,-0.30651307106018,-0.18213927745819,9.78204727172852,-5.36041879653931,0.05803198367357,-0.36122879385948
673,1201081415,-0.88318341970444,1.75117647647858,35.99437332153320,-0.28698354959488,-0.20431596040726,9.77666378021240,-5.33823776245117,0.18080647289753,-0.23125711083412
674,1201098082,-0.88295567035675,1.75205063819885,35.99507141113281,-0.29906544089317,-0.17781491577625,9.80338859558105,-5.34964847564697,0.18348300457001,-0.32480749487877
675,1201114749,-0.88415193557739,1.75200784206390,35.99399948120117,-0.29040101170540,-0.17838303744793,9.79213142395020,-5.43499040603638,0.12879990041256,-0.35696426033974
676,1201131416,-0.88481390476227,1.75177800655365,35.99387359619141,-0.30366054177284,-0.16484449803829,9.78592109680176,-5.40155267715454,0.11818341910839,-0.33155646920204
677,1201148083,-0.88461750745773,1.75126147270203,35.99384689331055,-0.29017835855484,-0.19288901984692,9.76242160797119,-5.35197925567627,0.09969104081392,-0.32090154290199
678,1201164750,-0.88471472263336,1.75084280967712,35.99375534057617,-0.29522436857224,-0.19428218901157,9.77058887481689,-5.36978006362915,0.10579966753721,-0.32914882898331
679,1201181417,-0.88522815704346,1.75156235694885,35.99149322509766,-0.30196908116341,-0.17985115945339,9.77838802337646,-5.38959121704102,0.17572234570980,-0.45307585597038
680,1201198084,-0.88536381721497,1.75153517723083,35.98998260498047,-0.29110804200172,-0.18481102585793,9.79835796356201,-5.37162399291992,0.12996524572372,-0.33812612295151
681,1201214751,-0.88564360141754,1.75172412395477,35.99090576171875,-0.30378657579422,-0.15887697041035,9.78777503967285,-5.38043498992920,0.14245145022869,-0.33393841981888
682,1201231418,-0.88511782884598,1.74976253509521,35.99046707153320,-0.30799901485443,-0.19234788417816,9.79215431213379,-5.33090019226074,0.01340184733272,-0.36843875050545
683,1201248085,-0.88463616371155,1.74978220462799,35.98957443237305,-0.30168333649635,-0.18723003566265,9.79057216644287,-5.33178329467773,0.13384558260441,-0.41281270980835
684,1201264752,-0.88525474071503,1.74984514713287,35.98835754394531,-0.29808828234673,-0.19669574499130,9.76315975189209,-5.39937496185303,0.13520306348801,-0.38072001934052
685,1201281419,-0.88559043407440,1.75040388107300,35.98740386962891,-0.30482298135757,-0.17515423893929,9.78081035614014,-5.38268899917603,0.16531078517437,-0.34665510058403
686,1201298086,-0.88593351840973,1.74898850917816,35.98619079589844,-0.29963877797127,-0.18506257236004,9.77692985534668,-5.38104915618896,0.04696729779243,-0.43311083316803
687,1201314753,-0.88565391302109,1.74952602386475,35.98762130737305,-0.30481249094009,-0.18218514323235,9.76754093170166,-5.34816217422485,0.16184026002884,-0.23874878883362
