sep=,
DeviceTag:,Xsens DOT
FirmwareVersion:,3.0.0
AppVersion:,2023.6.0
StartTime: ,2025-02-06_09:48:19_000 PST
© Movella Technologies B. V. 2005-2025

PacketCounter,SampleTimeFine,Euler_X,Euler_Y,Euler_Z,Acc_X,Acc_Y,Acc_Z,Gyr_X,Gyr_Y,Gyr_Z
0,1027204312,-1.10661005973816,1.96508467197418,36.92300415039062,0.00000000000000,0.00000000000000,0.00000000000000,0.00000000000000,0.00000000000000,0.00000000000000
1,1027220979,-1.19140541553497,1.97371292114258,36.97863769531250,-0.35715517401695,-0.16338258981705,9.78982162475586,-5.35451459884644,0.14423151314259,-0.36801609396935
2,1027237646,-1.24502730369568,1.99988603591919,36.99421691894531,-0.36124360561371,-0.17349314689636,9.78315544128418,-5.37421083450317,0.15798555314541,-0.29913076758385
3,1027254313,-1.29431354999542,2.02744793891907,37.01445388793945,-0.35606300830841,-0.19140987098217,9.76910495758057,-5.40452337265015,0.08127551525831,-0.40592291951180
4,1027270980,-1.35222339630127,2.04638648033142,37.02519607543945,-0.33250808715820,-0.17836728692055,9.78735351562500,-5.29470872879028,0.09674557298422,-0.37389424443245
5,1027287647,-1.40818142890930,2.04926371574402,37.06260681152344,-0.35016158223152,-0.18063950538635,9.78260993957520,-5.28901052474976,0.09162303805351,-0.32718947529793
6,1027304314,-1.46540856361389,2.05000114440918,37.09410858154297,-0.33290687203407,-0.17624747753143,9.76790237426758,-5.33159160614014,0.00740847410634,-0.36866924166679
7,1027320981,-1.52077984809875,2.04896426200867,37.13778305053711,-0.33034315705299,-0.18247643113136,9.77322959899902,-5.24480295181274,0.12751924991608,-0.30312633514404
8,1027337648,-1.57800984382629,2.04409432411194,37.15318679809570,-0.33879011869431,-0.18377122282982,9.78228950500488,-5.28003263473511,0.02316028811038,-0.38338372111320
9,1027354315,-1.63601469993591,2.04164409637451,37.19089889526367,-0.31795758008957,-0.18399311602116,9.77033424377441,-5.26373052597046,0.13594581186771,-0.33988055586815
10,1027370982,-1.69486844539642,2.03658151626587,37.21920013427734,-0.30270361900330,-0.17907501757145,9.78413200378418,-5.26289796829224,0.08046870678663,-0.36986023187637
11,1027387649,-1.75369322299957,2.02917408943176,37.26375579833984,-0.29281085729599,-0.18847727775574,9.77754497528076,-5.26131010055542,0.05326801538467,-0.26684594154358
12,1027404316,-1.81498742103577,2.02093625068665,37.29537582397461,-0.27106052637100,-0.18214155733585,9.77311611175537,-5.35315752029419,0.09499111026525,-0.34513112902641
13,1027420983,-1.87615227699280,2.01188158988953,37.32804489135742,-0.24306643009186,-0.17111478745937,9.78623580932617,-5.33275651931763,0.16070050001144,-0.35669529438019
14,1027437650,-1.93571364879608,1.99894130229950,37.36230087280273,-0.23788443207741,-0.17673483490944,9.76421451568604,-5.25978612899780,0.06461444497108,-0.33568009734154
15,1027454317,-1.99516570568085,1.98619985580444,37.40626144409180,-0.24096043407917,-0.17697881162167,9.76063823699951,-5.24517488479614,0.15925338864326,-0.36482733488083
16,1027470984,-2.05642485618591,1.97119748592377,37.44838333129883,-0.22388654947281,-0.17403019964695,9.78282356262207,-5.34758710861206,0.05077077820897,-0.34992074966431
17,1027487651,-2.11820936203003,1.95714652538300,37.49413681030273,-0.24244861304760,-0.18921753764153,9.76788043975830,-5.37805223464966,0.14301492273808,-0.26747345924377
18,1027504318,-2.18045449256897,1.94380116462708,37.53400039672852,-0.26486206054688,-0.18852062523365,9.75246047973633,-5.37322521209717,0.16318494081497,-0.35570922493935
19,1027520985,-2.24180054664612,1.93209850788116,37.57327270507812,-0.28095981478691,-0.17811077833176,9.75844383239746,-5.29545164108276,0.19407385587692,-0.33308041095734
20,1027537652,-2.30486178398132,1.91987037658691,37.61563491821289,-0.28046363592148,-0.17649017274380,9.77245235443115,-5.39540529251099,0.07721588760614,-0.31288474798203
21,1027554319,-2.36827683448792,1.91010892391205,37.65414428710938,-0.27618184685707,-0.19383870065212,9.75193595886230,-5.41274499893188,0.15962475538254,-0.38609865307808
22,1027570986,-2.43203210830688,1.90075993537903,37.69104766845703,-0.28489595651627,-0.17983581125736,9.77374935150146,-5.41446161270142,0.12360049039125,-0.29820871353149
23,1027587653,-2.49568486213684,1.89375472068787,37.72607040405273,-0.29272681474686,-0.17535775899887,9.77969169616699,-5.40479183197021,0.20798155665398,-0.33761382102966
24,1027604320,-2.55950665473938,1.88723587989807,37.76055526733398,-0.29235374927521,-0.18013441562653,9.76606559753418,-5.41878938674927,0.17821958661079,-0.32672840356827
25,1027620987,-2.62345719337463,1.88147044181824,37.79430007934570,-0.31303244829178,-0.18046753108501,9.77644538879395,-5.42128705978394,0.17784821987152,-0.38822454214096
26,1027637654,-2.68506026268005,1.87734580039978,37.82830810546875,-0.33194145560265,-0.17372669279575,9.77431583404541,-5.28044319152832,0.21478173136711,-0.34146857261658
27,1027654321,-2.74900555610657,1.87168097496033,37.86046600341797,-0.34976044297218,-0.17494125664234,9.78745841979980,-5.42544889450073,0.05851862207055,-0.32857254147530
28,1027670988,-2.81207871437073,1.86673581600189,37.89119720458984,-0.36731067299843,-0.17553102970123,9.77958393096924,-5.37383985519409,0.03733691573143,-0.36674830317497
29,1027687655,-2.87497735023499,1.86454749107361,37.92416763305664,-0.36204311251640,-0.19098585844040,9.78203582763672,-5.36755180358887,0.13219356536865,-0.28582495450974
30,1027704322,-2.93808436393738,1.86300587654114,37.95713806152344,-0.36061760783195,-0.17866991460323,9.76107597351074,-5.37089490890503,0.12216620892286,-0.34674477577209
31,1027720989,-3.00084567070007,1.86087656021118,37.98503112792969,-0.34532865881920,-0.17313054203987,9.75542926788330,-5.35284996032715,0.04078182578087,-0.30367702245712
32,1027737656,-3.06310486793518,1.86011946201324,38.01182174682617,-0.33544766902924,-0.19004033505917,9.76973342895508,-5.32433032989502,0.09496550261974,-0.33670458197594
33,1027754323,-3.12512993812561,1.85934746265411,38.03826141357422,-0.30647304654121,-0.17481100559235,9.76833629608154,-5.30638790130615,0.07306662946939,-0.31270548701286
34,1027770990,-3.18735766410828,1.85807526111603,38.06203842163086,-0.32404071092606,-0.18055537343025,9.76396656036377,-5.32116699218750,0.04281803220510,-0.37747997045517
35,1027787657,-3.24944353103638,1.85825943946838,38.08379745483398,-0.29680633544922,-0.19161997735500,9.77401542663574,-5.31405878067017,0.11738941073418,-0.34588673710823
36,1027804324,-3.31062507629395,1.85797047615051,38.10295104980469,-0.29801890254021,-0.19786471128464,9.76138210296631,-5.25588035583496,0.09149497747421,-0.38266658782959
37,1027820991,-3.37305879592896,1.85845351219177,38.12420654296875,-0.27463409304619,-0.18463413417339,9.76828002929688,-5.32910680770874,0.13512620329857,-0.31010580062866
38,1027837658,-3.43562316894531,1.85814249515533,38.14242172241211,-0.28240421414375,-0.17351879179478,9.78792858123779,-5.33731555938721,0.10025452822447,-0.40383547544479
39,1027854325,-3.49724912643433,1.85655450820923,38.16028594970703,-0.25779742002487,-0.19620312750340,9.77527999877930,-5.28894615173340,0.02642590366304,-0.34707772731781
40,1027870992,-3.55959582328796,1.85620319843292,38.17734146118164,-0.24155035614967,-0.19046463072300,9.75338935852051,-5.32938861846924,0.11751747131348,-0.42865416407585
41,1027887659,-3.62234306335449,1.85480594635010,38.19471740722656,-0.24377697706223,-0.18056435883045,9.79051685333252,-5.35986804962158,0.05953032150865,-0.26249176263809
42,1027904326,-3.68525433540344,1.85392272472382,38.19076919555664,-0.22476904094219,-0.17868421971798,9.73637104034424,-5.37565755844116,0.10480077564716,-0.29297089576721
43,1027920993,-3.74761033058167,1.85124933719635,38.18638229370117,-0.22226189076900,-0.18496796488762,9.77063465118408,-5.34770202636719,0.01413180865347,-0.32560145854950
44,1027937660,-3.81208825111389,1.85122179985046,38.18198013305664,-0.23901882767677,-0.19542153179646,9.76422691345215,-5.48109292984009,0.18813169002533,-0.31466484069824
45,1027954327,-3.87555003166199,1.85005092620850,38.17569732666016,-0.26249095797539,-0.18589974939823,9.78221607208252,-5.41954565048218,0.13426820933819,-0.43221437931061
46,1027970994,-3.93898677825928,1.84997296333313,38.17090606689453,-0.28137004375458,-0.17205445468426,9.76936149597168,-5.42893266677856,0.19563624262810,-0.33892008662224
47,1027987661,-4.00232791900635,1.85005903244019,38.16653823852539,-0.29387322068214,-0.17463898658752,9.76818466186523,-5.43405485153198,0.20115575194359,-0.31165534257889
48,1028004328,-4.06538057327271,1.84986090660095,38.16131973266602,-0.30441027879715,-0.20878173410892,9.78294372558594,-5.42593574523926,0.18106260895729,-0.36494258046150
49,1028020995,-4.12794876098633,1.84966027736664,38.15539169311523,-0.32619613409042,-0.17911687493324,9.79071998596191,-5.39899063110352,0.17627301812172,-0.40859943628311
50,1028037662,-4.19118833541870,1.84936165809631,38.15011596679688,-0.32119351625443,-0.18962664902210,9.79907321929932,-5.45244407653809,0.15656404197216,-0.37006509304047
51,1028054329,-4.25229692459106,1.84876871109009,38.14581680297852,-0.32534623146057,-0.17691287398338,9.78084564208984,-5.33527946472168,0.12591843307018,-0.31460082530975
52,1028070996,-4.31409835815430,1.84828591346741,38.14069747924805,-0.33302763104439,-0.19207637012005,9.78698825836182,-5.38791370391846,0.12617456912994,-0.36386686563492
53,1028087663,-4.37512493133545,1.84910941123962,38.13623428344727,-0.35920608043671,-0.17810772359371,9.76796340942383,-5.35302925109863,0.19165344536304,-0.31924954056740
54,1028104330,-4.43547058105469,1.84991109371185,38.13141632080078,-0.35157173871994,-0.18275636434555,9.78329849243164,-5.32444572448730,0.17795066535473,-0.34199365973473
55,1028120997,-4.49575853347778,1.85005939006805,38.12621307373047,-0.37130069732666,-0.18584150075912,9.79045772552490,-5.33266687393188,0.12987561523914,-0.36870765686035
56,1028137664,-4.55582761764526,1.85071444511414,38.12039566040039,-0.36159795522690,-0.19108065962791,9.76164436340332,-5.33205270767212,0.14876498281956,-0.40562832355499
57,1028154331,-4.61415719985962,1.85099470615387,38.11571884155273,-0.35656562447548,-0.19170752167702,9.77186775207520,-5.24194765090942,0.10993614792824,-0.33920186758041
58,1028170998,-4.67286586761475,1.84933793544769,38.11138534545898,-0.34589850902557,-0.17772167921066,9.78806400299072,-5.27785539627075,-0.01616161316633,-0.32948178052902
59,1028187665,-4.73112964630127,1.84943127632141,38.10753250122070,-0.31679993867874,-0.17651611566544,9.80223560333252,-5.26933956146240,0.07816356420517,-0.29306054115295
60,1028204332,-4.78903865814209,1.84902572631836,38.10278320312500,-0.30514842271805,-0.16160182654858,9.75886917114258,-5.26201438903809,0.05137267708778,-0.35012564063072
61,1028220999,-4.84667158126831,1.84936749935150,38.09875869750977,-0.28516674041748,-0.18606717884541,9.77243137359619,-5.26648426055908,0.09264755249023,-0.30466312170029
62,1028237666,-4.90511226654053,1.84925448894501,38.09373474121094,-0.27544373273849,-0.18086516857147,9.77414035797119,-5.32893991470337,0.07332275807858,-0.36641532182693
63,1028254333,-4.96260929107666,1.84874737262726,38.08856964111328,-0.26742315292358,-0.19168500602245,9.78534698486328,-5.28967618942261,0.05339608341455,-0.37558469176292
64,1028271000,-5.02018785476685,1.84757137298584,38.08406448364258,-0.26311475038528,-0.18242917954922,9.79949951171875,-5.31195878982544,0.01548928022385,-0.34144291281700
65,1028287667,-5.07885885238647,1.84736216068268,38.07920074462891,-0.25962427258492,-0.17802087962627,9.76812744140625,-5.39526462554932,0.08008451759815,-0.35791188478470
66,1028304334,-5.13511276245117,1.84616005420685,38.07484817504883,-0.25346127152443,-0.17953531444073,9.77849006652832,-5.27138853073120,0.02417198754847,-0.33199182152748
67,1028321001,-5.19218826293945,1.84617948532104,38.06989669799805,-0.24641014635563,-0.17262616753578,9.76398277282715,-5.33913421630859,0.10519777983427,-0.36308568716049
68,1028337668,-5.24883317947388,1.84728825092316,38.06533813476562,-0.24224781990051,-0.18343572318554,9.76602077484131,-5.33554840087891,0.17415997385979,-0.33228638768196
69,1028354335,-5.30571126937866,1.84890174865723,38.06111526489258,-0.23013800382614,-0.17408117651939,9.76662540435791,-5.37039518356323,0.20892922580242,-0.30992653965950
70,1028371002,-5.36320352554321,1.84943234920502,38.05589675903320,-0.24447008967400,-0.18463873863220,9.78985595703125,-5.42781877517700,0.15816485881805,-0.37520051002502
71,1028387669,-5.41929006576538,1.85060369968414,38.05014801025391,-0.25056692957878,-0.17896686494350,9.77258300781250,-5.36418342590332,0.20433172583580,-0.40375864505768
72,1028404336,-5.47497844696045,1.85151100158691,38.04544448852539,-0.26663905382156,-0.19545528292656,9.76566028594971,-5.36524724960327,0.18688949942589,-0.34237784147263
73,1028421003,-5.52990102767944,1.85234415531158,38.04063034057617,-0.28750702738762,-0.18553686141968,9.78017234802246,-5.34085083007812,0.18662056326866,-0.35057386755943
74,1028437670,-5.58507061004639,1.85309028625488,38.03454971313477,-0.32385757565498,-0.18117173016071,9.77290534973145,-5.37711763381958,0.18841342628002,-0.42524769902229
75,1028454337,-5.64063119888306,1.85362803936005,38.03047180175781,-0.33363071084023,-0.18483647704124,9.79056072235107,-5.42915058135986,0.16087979078293,-0.31037473678589
76,1028471004,-5.69524574279785,1.85496246814728,38.02630615234375,-0.34427285194397,-0.18336850404739,9.77107143402100,-5.39673709869385,0.20379388332367,-0.31188589334488
77,1028487671,-5.74918079376221,1.85510015487671,38.02103805541992,-0.34116438031197,-0.19042849540710,9.77823734283447,-5.38019132614136,0.13440905511379,-0.38506138324738
78,1028504338,-5.80266952514648,1.85616242885590,38.01649856567383,-0.34461694955826,-0.17229375243187,9.78300189971924,-5.37988376617432,0.18072964251041,-0.33707600831985
79,1028521005,-5.85588073730469,1.85729897022247,38.01221084594727,-0.34153804183006,-0.18307164311409,9.79804611206055,-5.39247226715088,0.17900075018406,-0.32324507832527
80,1028537672,-5.90795612335205,1.85764312744141,38.00670242309570,-0.35679057240486,-0.17407894134521,9.79616451263428,-5.34975147247314,0.13485728204250,-0.40154314041138
81,1028554339,-5.95812988281250,1.85725522041321,38.00138854980469,-0.33868145942688,-0.18531517684460,9.75767898559570,-5.26439666748047,0.08488689363003,-0.39807263016701
82,1028571006,-6.00902938842773,1.85759627819061,37.99668502807617,-0.35113960504532,-0.17879994213581,9.79061412811279,-5.33878850936890,0.12048855423927,-0.35646474361420
83,1028587673,-6.05823802947998,1.85671329498291,37.99238204956055,-0.34418898820877,-0.17152763903141,9.78040504455566,-5.26727819442749,0.04099953547120,-0.34187841415405
84,1028604340,-6.10722351074219,1.85696876049042,37.98872375488281,-0.33980873227119,-0.18315869569778,9.77596187591553,-5.28595018386841,0.10135586559772,-0.29932284355164
85,1028621007,-6.15620279312134,1.85564756393433,37.98373031616211,-0.32909396290779,-0.18623784184456,9.78378009796143,-5.31363725662231,0.01268469169736,-0.38746899366379
86,1028637674,-6.20336914062500,1.85353147983551,37.97948837280273,-0.30256226658821,-0.18787309527397,9.77340126037598,-5.23732423782349,-0.04209448024631,-0.35002318024635
87,1028654341,-6.24942827224731,1.85297417640686,37.97536087036133,-0.29922491312027,-0.16590847074986,9.77633476257324,-5.20188903808594,0.05153916403651,-0.33533433079720
88,1028671008,-6.29583454132080,1.85358488559723,37.97069549560547,-0.27927502989769,-0.18654479086399,9.77718544006348,-5.25586795806885,0.12444572895765,-0.35911571979523
89,1028687675,-6.34122943878174,1.85327136516571,37.96741867065430,-0.26241385936737,-0.17848768830299,9.80049324035645,-5.22969102859497,0.06339783966541,-0.28369909524918
90,1028704342,-6.38766574859619,1.85237789154053,37.96276473999023,-0.24519890546799,-0.17768150568008,9.77385520935059,-5.32340764999390,0.04198562353849,-0.37000107765198
91,1028721009,-6.43439340591431,1.85222625732422,37.95867538452148,-0.25749129056931,-0.16670811176300,9.76904106140137,-5.37658023834229,0.08746097981930,-0.33150523900986
92,1028737676,-6.47974395751953,1.85162484645844,37.95465850830078,-0.25315997004509,-0.18067772686481,9.78095626831055,-5.32911968231201,0.06466566771269,-0.33147960901260
93,1028754343,-6.52533912658691,1.85182821750641,37.95049667358398,-0.26728615164757,-0.17472696304321,9.76621150970459,-5.37814235687256,0.11731258034706,-0.33510378003120
94,1028771010,-6.57070827484131,1.85172724723816,37.94565963745117,-0.25590774416924,-0.18027453124523,9.80072402954102,-5.39970827102661,0.10716994851828,-0.37699335813522
95,1028787677,-6.61456489562988,1.85219562053680,37.94110488891602,-0.25897648930550,-0.18443387746811,9.77060222625732,-5.34517908096313,0.14387294650078,-0.35857787728310
96,1028804344,-6.65775775909424,1.85198163986206,37.93543243408203,-0.25208789110184,-0.18761445581913,9.76473617553711,-5.33864688873291,0.11395730823278,-0.42988356947899
97,1028821011,-6.70068788528442,1.85356390476227,37.93054962158203,-0.26000344753265,-0.19788123667240,9.78374290466309,-5.36098194122314,0.22036530077457,-0.37166595458984
98,1028837678,-6.74340629577637,1.85326325893402,37.92623901367188,-0.26997745037079,-0.17425172030926,9.78296566009521,-5.38624858856201,0.10673452913761,-0.34926763176918
99,1028854345,-6.78612565994263,1.85377037525177,37.92245483398438,-0.29038169980049,-0.19479392468929,9.77345275878906,-5.42469358444214,0.15497604012489,-0.31681632995605
100,1028871012,-6.82717847824097,1.85517585277557,37.91776657104492,-0.30570340156555,-0.18903963267803,9.76071071624756,-5.35948371887207,0.21499943733215,-0.36462244391441
101,1028887679,-6.86792850494385,1.85556972026825,37.91278076171875,-0.31941509246826,-0.17878516018391,9.79134559631348,-5.37920475006104,0.15694823861122,-0.39067053794861
102,1028904346,-6.90836429595947,1.85581302642822,37.90933990478516,-0.34641388058662,-0.18554711341858,9.78216075897217,-5.40261507034302,0.13567687571049,-0.30116695165634
103,1028921013,-6.94691944122314,1.85655200481415,37.90520095825195,-0.35622251033783,-0.17100168764591,9.76998615264893,-5.32821083068848,0.16639934480190,-0.34050813317299
104,1028937680,-6.98524761199951,1.85594427585602,37.90068054199219,-0.37225294113159,-0.17876839637756,9.78016281127930,-5.35355424880981,0.08515582233667,-0.37436804175377
105,1028954347,-7.02226686477661,1.85603237152100,37.89593887329102,-0.35717120766640,-0.17888520658016,9.78987407684326,-5.31544256210327,0.12408713996410,-0.38508701324463
106,1028971014,-7.05947065353394,1.85516643524170,37.89170455932617,-0.34924575686455,-0.18614621460438,9.78540992736816,-5.36811494827271,0.05874913185835,-0.36434066295624
107,1028987681,-7.09486627578735,1.85472118854523,37.88731002807617,-0.35153883695602,-0.17137904465199,9.77903747558594,-5.29948568344116,0.08274822682142,-0.37125611305237
108,1029004348,-7.12965393066406,1.85525929927826,37.88344573974609,-0.32820215821266,-0.17042295634747,9.77879714965820,-5.30594015121460,0.13390961289406,-0.33487328886986
109,1029021015,-7.16325569152832,1.85519981384277,37.88049697875977,-0.32759064435959,-0.17626047134399,9.75689983367920,-5.27899599075317,0.08957403898239,-0.28599146008492
110,1029037682,-7.19604063034058,1.85481131076813,37.87666702270508,-0.32957094907761,-0.20760576426983,9.78069782257080,-5.27010822296143,0.07565352320671,-0.34314620494843
111,1029054349,-7.22921419143677,1.85448777675629,37.87223815917969,-0.32131856679916,-0.16755667328835,9.80126476287842,-5.33214235305786,0.08255614340305,-0.37888869643211
112,1029071016,-7.26174449920654,1.85454881191254,37.86867141723633,-0.29135110974312,-0.17457605898380,9.78300952911377,-5.33928775787354,0.09832075983286,-0.32487151026726
113,1029087683,-7.29307651519775,1.85428416728973,37.86498641967773,-0.28713676333427,-0.17832338809967,9.78107929229736,-5.30989742279053,0.08140357583761,-0.33621793985367
114,1029104350,-7.32297468185425,1.85442900657654,37.86070251464844,-0.28744551539421,-0.19056390225887,9.78504467010498,-5.26512670516968,0.11190830171108,-0.37044933438301
115,1029121017,-7.35265922546387,1.85363292694092,37.85696029663086,-0.25777989625931,-0.17317499220371,9.77771854400635,-5.29565715789795,0.05357537418604,-0.34619411826134
116,1029137684,-7.38329267501831,1.85448193550110,37.85315322875977,-0.24714061617851,-0.17950011789799,9.76981735229492,-5.39543104171753,0.15510413050652,-0.33797240257263
117,1029154351,-7.41319036483765,1.85301065444946,37.84995269775391,-0.23118367791176,-0.17301507294178,9.77828979492188,-5.39664745330811,0.01775600574911,-0.32100400328636
118,1029171018,-7.44090700149536,1.85290527343750,37.84630584716797,-0.23326300084591,-0.17763516306877,9.77159500122070,-5.30783557891846,0.10802797228098,-0.33880484104156
119,1029187685,-7.46924972534180,1.85319983959198,37.84288787841797,-0.23828606307507,-0.17756402492523,9.75836849212646,-5.38992452621460,0.13472920656204,-0.32168272137642
120,1029204352,-7.49726724624634,1.85419034957886,37.83864212036133,-0.26464134454727,-0.17349833250046,9.76728916168213,-5.41278457641602,0.18827259540558,-0.36692762374878
121,1029221019,-7.52388954162598,1.85506427288055,37.83457565307617,-0.26537784934044,-0.18054638803005,9.79098892211914,-5.37284135818481,0.18261216580868,-0.35670813918114
122,1029237686,-7.55078363418579,1.85506212711334,37.83024597167969,-0.26767155528069,-0.18157881498337,9.76546192169189,-5.43219852447510,0.13542076945305,-0.38361430168152
123,1029254353,-7.57695341110229,1.85559833049774,37.82635498046875,-0.28199300169945,-0.18907578289509,9.78066730499268,-5.43450307846069,0.16684754192829,-0.35097086429596
124,1029271020,-7.60230636596680,1.85657227039337,37.82142257690430,-0.29298317432404,-0.17450569570065,9.78812408447266,-5.42515468597412,0.20256446301937,-0.41254383325577
125,1029287687,-7.62606191635132,1.85668957233429,37.81689834594727,-0.30461782217026,-0.17422579228878,9.78254508972168,-5.37586259841919,0.15014806389809,-0.39538332819939
126,1029304354,-7.64939355850220,1.85810387134552,37.81338882446289,-0.30602756142616,-0.18864722549915,9.77774906158447,-5.39662170410156,0.21820099651814,-0.32693332433701
127,1029321021,-7.67186498641968,1.85841441154480,37.80892562866211,-0.33978694677353,-0.18399021029472,9.78231811523438,-5.38582563400269,0.16141763329506,-0.39274516701698
128,1029337688,-7.69453620910645,1.85881268978119,37.80538558959961,-0.33855748176575,-0.18833296000957,9.78798770904541,-5.44400548934937,0.15662807226181,-0.34066173434258
129,1029354355,-7.71663618087769,1.85844027996063,37.80143737792969,-0.33445516228676,-0.19082011282444,9.77914619445801,-5.45231676101685,0.11186988651752,-0.37079507112503
130,1029371022,-7.73628473281860,1.85829830169678,37.79704666137695,-0.34781667590141,-0.18542671203613,9.77279281616211,-5.34734344482422,0.12687893211842,-0.39789330959320
131,1029387689,-7.75531768798828,1.85831093788147,37.79380035400391,-0.37315303087234,-0.18127717077732,9.77646446228027,-5.35533380508423,0.12482989579439,-0.33057034015656
132,1029404356,-7.77395391464233,1.85818266868591,37.78865814208984,-0.35167089104652,-0.19041526317596,9.78694152832031,-5.37282800674438,0.12762168049812,-0.44572502374649
133,1029421023,-7.79247903823853,1.85714983940125,37.78546905517578,-0.34478661417961,-0.18263764679432,9.77095985412598,-5.41256618499756,0.05427971854806,-0.33815169334412
134,1029437690,-7.80764722824097,1.85645890235901,37.78228759765625,-0.33879992365837,-0.18138501048088,9.77702713012695,-5.25408744812012,0.07346364110708,-0.33742174506187
135,1029454357,-7.82194900512695,1.85663390159607,37.77902603149414,-0.30158597230911,-0.18896202743053,9.77095699310303,-5.24578905105591,0.12302421778440,-0.33794686198235
136,1029471024,-7.83615064620972,1.85590302944183,37.77529144287109,-0.31693530082703,-0.17136938869953,9.77109909057617,-5.28043031692505,0.07470585405827,-0.37374058365822
137,1029487691,-7.84986829757690,1.85544455051422,37.77226638793945,-0.31638234853745,-0.17920830845833,9.78083038330078,-5.29751348495483,0.08305559307337,-0.33003246784210
138,1029504358,-7.86340236663818,1.85420536994934,37.76824188232422,-0.28752046823502,-0.17786197364330,9.78893756866455,-5.32637929916382,0.04559701308608,-0.39685603976250
139,1029521025,-7.87572050094604,1.85323274135590,37.76572799682617,-0.28783032298088,-0.16987502574921,9.76849079132080,-5.29987001419067,0.05001519992948,-0.30728837847710
140,1029537692,-7.88674259185791,1.85170567035675,37.76199722290039,-0.28155812621117,-0.17994694411755,9.76279354095459,-5.26288604736328,0.02912804856896,-0.38456198573112
141,1029554359,-7.89689731597900,1.85165560245514,37.75793457031250,-0.26395714282990,-0.16963449120522,9.78890800476074,-5.25161552429199,0.12100080400705,-0.39416667819023
142,1029571026,-7.90822601318359,1.85144662857056,37.75522232055664,-0.26519617438316,-0.17565196752548,9.77287101745605,-5.36757707595825,0.10322558879852,-0.31644493341446
143,1029587693,-7.91848278045654,1.85225236415863,37.75212478637695,-0.24440130591393,-0.20337285101414,9.78475570678711,-5.34378290176392,0.17031806707382,-0.33197903633118
144,1029604360,-7.92896604537964,1.85142350196838,37.74848175048828,-0.23225298523903,-0.19628475606441,9.78496646881104,-5.39627647399902,0.08180056512356,-0.37681406736374
145,1029621027,-7.93738603591919,1.85040962696075,37.74570083618164,-0.24276161193848,-0.18395891785622,9.76279354095459,-5.31508398056030,0.06796970963478,-0.32955864071846
146,1029637694,-7.94566011428833,1.85164034366608,37.74306106567383,-0.25082731246948,-0.18257759511471,9.78416538238525,-5.34638309478760,0.20476716756821,-0.30156397819519
147,1029654361,-7.95346927642822,1.85122251510620,37.73963546752930,-0.26077249646187,-0.17717757821083,9.79150485992432,-5.35757589340210,0.11628808081150,-0.36467367410660
148,1029671028,-7.96199846267700,1.85210573673248,37.73606109619141,-0.28587082028389,-0.19511233270168,9.78772640228271,-5.44039440155029,0.19877377152443,-0.36273989081383
149,1029687695,-7.96909666061401,1.85258102416992,37.73312759399414,-0.29125267267227,-0.18014264106750,9.76548862457275,-5.39538002014160,0.16960091888905,-0.32894399762154
150,1029704362,-7.97595930099487,1.85252892971039,37.73011016845703,-0.31101304292679,-0.19057849049568,9.77099609375000,-5.41957092285156,0.14017191529274,-0.33994460105896
151,1029721029,-7.98133754730225,1.85267281532288,37.72721862792969,-0.31349679827690,-0.18574164807796,9.76428508758545,-5.36981773376465,0.15118537843227,-0.33191502094269
152,1029737696,-7.98650598526001,1.85362052917480,37.72463607788086,-0.32790997624397,-0.18917319178581,9.76868247985840,-5.39550781250000,0.19516238570213,-0.30777505040169
153,1029754363,-7.99087238311768,1.85340368747711,37.72174835205078,-0.33517956733704,-0.18018750846386,9.77618980407715,-5.38548088073730,0.12708383798599,-0.33826699852943
154,1029771030,-7.99437189102173,1.85289156436920,37.71866989135742,-0.32675057649612,-0.16965560615063,9.77854061126709,-5.37097120285034,0.10915493220091,-0.35282775759697
155,1029787697,-7.99683952331543,1.85226798057556,37.71512222290039,-0.32414135336876,-0.19169303774834,9.77273559570312,-5.34578180313110,0.10563319921494,-0.38297393918037
156,1029804364,-7.99840879440308,1.85202825069427,37.71264266967773,-0.34209328889847,-0.19056826829910,9.77362537384033,-5.33084917068481,0.11849077790976,-0.31860920786858
157,1029821031,-8.00025653839111,1.85209500789642,37.70964050292969,-0.34908238053322,-0.18882040679455,9.76817417144775,-5.38268852233887,0.13892970979214,-0.34679597616196
158,1029837698,-7.99994373321533,1.85200154781342,37.70707321166992,-0.36099362373352,-0.16790723800659,9.77033996582031,-5.28979110717773,0.12380539625883,-0.32534533739090
159,1029854365,-7.99994516372681,1.85089588165283,37.70409393310547,-0.33056342601776,-0.17082467675209,9.80631637573242,-5.34342432022095,0.06241175532341,-0.35965353250504
160,1029871032,-7.99897909164429,1.84881830215454,37.69972229003906,-0.33509853482246,-0.18224516510963,9.77960205078125,-5.32016849517822,0.01634730771184,-0.45133426785469
161,1029887699,-7.99729633331299,1.84715294837952,37.69797897338867,-0.31771060824394,-0.19151279330254,9.76483154296875,-5.31700420379639,0.01600153371692,-0.29195916652679
162,1029904366,-7.99334907531738,1.84499168395996,37.69574737548828,-0.30268362164497,-0.18080346286297,9.78353595733643,-5.21473360061646,-0.00911812298000,-0.32795783877373
163,1029921033,-7.99002122879028,1.84419059753418,37.69192886352539,-0.28464141488075,-0.17773354053497,9.76914119720459,-5.28194093704224,0.08528389781713,-0.41109672188759
164,1029937700,-7.98632097244263,1.84260082244873,37.68846130371094,-0.27399325370789,-0.18196600675583,9.77173709869385,-5.29447841644287,0.03644047304988,-0.39845681190491
165,1029954367,-7.98264646530151,1.84265744686127,37.68506622314453,-0.27098894119263,-0.17510423064232,9.78198814392090,-5.32897901535034,0.13533110916615,-0.37913200259209
166,1029971034,-7.97813844680786,1.84141027927399,37.68151855468750,-0.27653902769089,-0.19825841486454,9.77198505401611,-5.31229257583618,0.06230930984020,-0.40105652809143
167,1029987701,-7.97267341613770,1.83979940414429,37.67812347412109,-0.25891479849815,-0.17892770469189,9.77150344848633,-5.28538608551025,0.04032079875469,-0.39563941955566
168,1030004368,-7.96657133102417,1.83979105949402,37.67551803588867,-0.26847368478775,-0.18905180692673,9.78388977050781,-5.28108310699463,0.13177093863487,-0.33644846081734
169,1030021035,-7.96075296401978,1.83884620666504,37.67325973510742,-0.26167175173759,-0.18209703266621,9.76964473724365,-5.32914543151855,0.07506442815065,-0.32350122928619
170,1030037702,-7.95444011688232,1.83845746517181,37.67055130004883,-0.25752544403076,-0.17839159071445,9.75268650054932,-5.32915878295898,0.11534040421247,-0.34625816345215
171,1030054369,-7.94816064834595,1.83866107463837,37.66829299926758,-0.24560923874378,-0.17955370247364,9.79234218597412,-5.36236524581909,0.14894427359104,-0.31539484858513
172,1030071036,-7.94113159179688,1.83851766586304,37.66589355468750,-0.25156360864639,-0.18302315473557,9.77630138397217,-5.34785556793213,0.13334612548351,-0.32743281126022
173,1030087703,-7.93350458145142,1.83850634098053,37.66334915161133,-0.25300690531731,-0.18563641607761,9.76810550689697,-5.34024858474731,0.14508956670761,-0.33413052558899
174,1030104370,-7.92615985870361,1.83979892730713,37.66061401367188,-0.26504522562027,-0.16627067327499,9.76134967803955,-5.38458442687988,0.22771613299847,-0.33620515465736
175,1030121037,-7.91898536682129,1.84095585346222,37.65883636474609,-0.29217496514320,-0.18686537444592,9.76802444458008,-5.42574405670166,0.21318094432354,-0.28129148483276
176,1030137704,-7.91058349609375,1.84058427810669,37.65589141845703,-0.32235190272331,-0.18198469281197,9.77432727813721,-5.37736082077026,0.13246250152588,-0.36435347795486
177,1030154371,-7.90179920196533,1.84077608585358,37.65237808227539,-0.31749421358109,-0.17670996487141,9.75895690917969,-5.38067817687988,0.16967774927616,-0.39397460222244
178,1030171038,-7.89312458038330,1.84100687503815,37.65004730224609,-0.32585057616234,-0.16673044860363,9.77635288238525,-5.41699695587158,0.16132800281048,-0.32493558526039
179,1030187705,-7.88357162475586,1.84057533740997,37.64720916748047,-0.36356320977211,-0.19315427541733,9.77181529998779,-5.38984727859497,0.12534216046333,-0.36142084002495
180,1030204372,-7.87354087829590,1.84061884880066,37.64472961425781,-0.32888805866241,-0.18095296621323,9.79391098022461,-5.38658237457275,0.14606285095215,-0.33781877160072
181,1030221039,-7.86339473724365,1.84057438373566,37.64267730712891,-0.33766025304794,-0.17645463347435,9.77075576782227,-5.40620136260986,0.13662455976009,-0.31360194087029
182,1030237706,-7.85105228424072,1.83906543254852,37.63986206054688,-0.33980897068977,-0.19491085410118,9.78476047515869,-5.29737329483032,0.05348572507501,-0.37324112653732
183,1030254373,-7.83952808380127,1.83745813369751,37.63840103149414,-0.33967921137810,-0.17231464385986,9.78515720367432,-5.37337875366211,0.03476283699274,-0.29425153136253
184,1030271040,-7.82704257965088,1.83717966079712,37.63641738891602,-0.32359060645103,-0.17954619228840,9.79201221466064,-5.33827590942383,0.11604474484921,-0.31551006436348
185,1030287707,-7.81435394287109,1.83548641204834,37.63476562500000,-0.33946087956429,-0.17858514189720,9.77165126800537,-5.35049390792847,0.02866701781750,-0.30762135982513
186,1030304374,-7.80049610137939,1.83369112014771,37.63195037841797,-0.33891314268112,-0.18852959573269,9.79495239257812,-5.30117654800415,0.02946101501584,-0.37780016660690
187,1030321041,-7.78587961196899,1.83115279674530,37.62963867187500,-0.32655897736549,-0.16837029159069,9.77667713165283,-5.27816343307495,-0.02069506235421,-0.35615745186806
188,1030337708,-7.77138233184814,1.82917928695679,37.62661743164062,-0.31089112162590,-0.18031956255436,9.76112461090088,-5.30718278884888,0.01773039251566,-0.39368003606796
189,1030354375,-7.75611448287964,1.82781326770782,37.62387084960938,-0.29482087492943,-0.17718927562237,9.76168251037598,-5.28168535232544,0.05056588351727,-0.37301060557365
190,1030371042,-7.74087190628052,1.82632279396057,37.62092971801758,-0.29433080554008,-0.17924527823925,9.76920413970947,-5.30455732345581,0.04607085138559,-0.38871118426323
191,1030387709,-7.72547245025635,1.82560026645660,37.61769866943359,-0.25984001159668,-0.19425061345100,9.78342723846436,-5.31393098831177,0.09381292015314,-0.39817506074905
192,1030404376,-7.71025228500366,1.82431602478027,37.61567687988281,-0.25784307718277,-0.17253808677197,9.76962757110596,-5.34670352935791,0.05333204939961,-0.32982757687569
193,1030421043,-7.69443035125732,1.82440948486328,37.61406707763672,-0.24448156356812,-0.18086044490337,9.76962852478027,-5.33083581924438,0.13364067673683,-0.29522481560707
194,1030437710,-7.67906236648560,1.82388699054718,37.61255264282227,-0.26156845688820,-0.17430144548416,9.75603675842285,-5.37675905227661,0.09970384836197,-0.29315021634102
195,1030454377,-7.66451311111450,1.82380330562592,37.60961914062500,-0.25103023648262,-0.19018742442131,9.77091598510742,-5.44219923019409,0.14022313058376,-0.37756961584091
196,1030471044,-7.64822387695312,1.82336795330048,37.60748291015625,-0.25290969014168,-0.17667157948017,9.77972602844238,-5.35569286346436,0.11398293077946,-0.33080086112022
197,1030487711,-7.63185882568359,1.82415616512299,37.60551071166992,-0.25710150599480,-0.18119557201862,9.76852893829346,-5.37039518356323,0.18860554695129,-0.31016984581947
198,1030504378,-7.61591958999634,1.82430362701416,37.60179519653320,-0.26913306117058,-0.16963349282742,9.77389144897461,-5.40867280960083,0.16625845432281,-0.41919028759003
199,1030521045,-7.60053205490112,1.82444190979004,37.60007476806641,-0.25962141156197,-0.18069168925285,9.77886962890625,-5.46187019348145,0.15273492038250,-0.30453500151634
200,1030537712,-7.58299207687378,1.82534337043762,37.59783554077148,-0.28043460845947,-0.18429464101791,9.77363204956055,-5.34927701950073,0.20320478081703,-0.32776576280594
201,1030554379,-7.56671762466431,1.82523405551910,37.59539031982422,-0.28755962848663,-0.17687904834747,9.75282669067383,-5.43974113464355,0.14572988450527,-0.34801259636879
202,1030571046,-7.54933071136475,1.82555329799652,37.59243774414062,-0.28552559018135,-0.18763250112534,9.77047920227051,-5.38672208786011,0.17665721476078,-0.37698057293892
203,1030587713,-7.53236246109009,1.82658362388611,37.59063720703125,-0.31489521265030,-0.17972828447819,9.77094841003418,-5.42866325378418,0.20895482599735,-0.30146148800850
204,1030604380,-7.51386737823486,1.82687664031982,37.58869171142578,-0.33789384365082,-0.17046010494232,9.77383899688721,-5.35081338882446,0.16678351163864,-0.31798169016838
205,1030621047,-7.49668788909912,1.82774245738983,37.58599853515625,-0.35761287808418,-0.17936952412128,9.75829124450684,-5.44226312637329,0.20372983813286,-0.35720753669739
206,1030637714,-7.47896862030029,1.82945382595062,37.58298492431641,-0.36535471677780,-0.18115933239460,9.80018234252930,-5.42350292205811,0.25440460443497,-0.37135860323906
207,1030654381,-7.45944452285767,1.82885062694550,37.58052825927734,-0.34679481387138,-0.17078296840191,9.76800537109375,-5.32885074615479,0.10745169967413,-0.35522255301476
208,1030671048,-7.44117975234985,1.82861948013306,37.57902526855469,-0.34997493028641,-0.18427474796772,9.77608966827393,-5.41957092285156,0.12087275087833,-0.30106452107430
209,1030687715,-7.42133855819702,1.82746171951294,37.57662582397461,-0.34123346209526,-0.18941707909107,9.77246379852295,-5.33561229705811,0.06987785547972,-0.35905164480209
210,1030704382,-7.40104436874390,1.82623338699341,37.57387924194336,-0.32475212216377,-0.16489242017269,9.76740741729736,-5.31874656677246,0.06748306751251,-0.38352459669113
211,1030721049,-7.38093280792236,1.82450211048126,37.57107925415039,-0.33066716790199,-0.17153920233250,9.77874088287354,-5.34150362014771,0.03507019206882,-0.38988935947418
212,1030737716,-7.35916757583618,1.82331109046936,37.56880569458008,-0.31975421309471,-0.17953681945801,9.76069736480713,-5.25534248352051,0.06221966072917,-0.35266131162643
213,1030754383,-7.33667850494385,1.82277774810791,37.56555557250977,-0.29611554741859,-0.19093412160873,9.74999046325684,-5.21977949142456,0.10740046948195,-0.40648642182350
214,1030771050,-7.31571912765503,1.82218205928802,37.56290054321289,-0.29999661445618,-0.18550285696983,9.79073715209961,-5.32274246215820,0.10025452822447,-0.37071827054024
215,1030787717,-7.29501867294312,1.82315337657928,37.56063842773438,-0.29827034473419,-0.17200611531734,9.79465866088867,-5.34866333007812,0.19059054553509,-0.34137892723083
216,1030804384,-7.27261638641357,1.82310616970062,37.55837631225586,-0.27931231260300,-0.18642096221447,9.77633857727051,-5.25554704666138,0.13015735149384,-0.34639900922775
217,1030821051,-7.25046682357788,1.82193911075592,37.55474853515625,-0.26392295956612,-0.16705235838890,9.78725719451904,-5.27775287628174,0.07386062294245,-0.43183013796806
218,1030837718,-7.22846031188965,1.82119607925415,37.55383682250977,-0.25201570987701,-0.17635224759579,9.75797080993652,-5.29994678497314,0.08060958981514,-0.26945844292641
219,1030854385,-7.20746946334839,1.82132911682129,37.55216598510742,-0.24019718170166,-0.16716876626015,9.77426147460938,-5.36938285827637,0.14132449030876,-0.30750611424446
220,1030871052,-7.18633651733398,1.82126677036285,37.54944992065430,-0.24325460195541,-0.18749600648880,9.77702331542969,-5.36653995513916,0.14063292741776,-0.37507238984108
221,1030887719,-7.16492891311646,1.82229006290436,37.54780578613281,-0.24306157231331,-0.19332432746887,9.78389358520508,-5.35906076431274,0.19961901009083,-0.30239638686180
222,1030904386,-7.14500236511230,1.82149851322174,37.54460144042969,-0.26567581295967,-0.18670657277107,9.76131820678711,-5.45154762268066,0.10641437023878,-0.40815117955208
223,1030921053,-7.12312459945679,1.82122409343719,37.54149246215820,-0.26844823360443,-0.17921765148640,9.77319240570068,-5.34200334548950,0.13794361054897,-0.39557540416718
224,1030937720,-7.10333728790283,1.82099997997284,37.53922653198242,-0.27903476357460,-0.18575827777386,9.76927852630615,-5.47526550292969,0.13539513945580,-0.34747469425201
225,1030954387,-7.08344984054565,1.82190835475922,37.53701782226562,-0.29544103145599,-0.18187975883484,9.76532268524170,-5.47441959381104,0.20337122678757,-0.33629474043846
226,1030971054,-7.06208753585815,1.82293605804443,37.53320693969727,-0.28037160634995,-0.16884300112724,9.78348827362061,-5.39011621475220,0.22132575511932,-0.42187961935997
227,1030987721,-7.04180526733398,1.82278943061829,37.53133010864258,-0.31099942326546,-0.18767994642258,9.78275108337402,-5.46443080902100,0.13969807326794,-0.32444885373116
228,1031004388,-7.02192258834839,1.82132697105408,37.52801132202148,-0.30645790696144,-0.17463196814060,9.78640365600586,-5.49065876007080,0.07008275389671,-0.42043247818947
229,1031021055,-7.00096559524536,1.82096219062805,37.52618026733398,-0.30849173665047,-0.19113628566265,9.78373050689697,-5.43419599533081,0.12513726949692,-0.32035085558891
230,1031037722,-6.97957229614258,1.82135272026062,37.52311325073242,-0.31658586859703,-0.17998939752579,9.76407241821289,-5.41032505035400,0.17906481027603,-0.39546012878418
231,1031054389,-6.95794486999512,1.82145118713379,37.52094268798828,-0.34690722823143,-0.18317852914333,9.78884220123291,-5.40267944335938,0.15370823442936,-0.34262111783028
232,1031071056,-6.93501567840576,1.82107269763947,37.51852035522461,-0.36050787568092,-0.17759372293949,9.78462123870850,-5.32803106307983,0.12430483847857,-0.36359789967537
233,1031087723,-6.91290473937988,1.82039546966553,37.51716995239258,-0.36284479498863,-0.18577334284782,9.78809356689453,-5.38291931152344,0.09629736095667,-0.29653105139732
234,1031104390,-6.89063835144043,1.81912398338318,37.51546859741211,-0.35319274663925,-0.18061514198780,9.76824188232422,-5.37647724151611,0.05967119336128,-0.32334759831429
235,1031121057,-6.86699295043945,1.81905746459961,37.51348114013672,-0.33934655785561,-0.17451739311218,9.77517414093018,-5.29719352722168,0.13179656863213,-0.33383595943451
236,1031137724,-6.84299755096436,1.81820368766785,37.51079940795898,-0.32916674017906,-0.17411810159683,9.78879165649414,-5.27806091308594,0.08772990852594,-0.37788981199265
237,1031154391,-6.81885147094727,1.81818652153015,37.50878906250000,-0.32150885462761,-0.17592971026897,9.78780364990234,-5.27370643615723,0.13081046938896,-0.33147960901260
238,1031171058,-6.79506635665894,1.81662869453430,37.50675964355469,-0.29779741168022,-0.18630021810532,9.76975917816162,-5.29832029342651,0.03866877406836,-0.33979091048241
239,1031187725,-6.77073717117310,1.81683075428009,37.50450134277344,-0.28936484456062,-0.17173592746258,9.75459194183350,-5.26620244979858,0.14537128806114,-0.35043299198151
240,1031204392,-6.74615526199341,1.81469094753265,37.50272750854492,-0.29256826639175,-0.18484452366829,9.77178192138672,-5.25522756576538,0.00278538162820,-0.33244007825851
241,1031221059,-6.72359132766724,1.81416630744934,37.50043869018555,-0.27762204408646,-0.18432851135731,9.78267955780029,-5.37650346755981,0.10346892476082,-0.35634952783585
242,1031237726,-6.69967126846313,1.81253612041473,37.49816513061523,-0.27429956197739,-0.18844738602638,9.77492523193359,-5.29716777801514,0.03764427080750,-0.36033231019974
243,1031254393,-6.67493486404419,1.81139183044434,37.49547195434570,-0.26828670501709,-0.18764483928680,9.76721668243408,-5.24823427200317,0.07119691371918,-0.37960585951805
244,1031271060,-6.65159797668457,1.81103444099426,37.49301147460938,-0.26004040241241,-0.17132510244846,9.76367473602295,-5.33394765853882,0.11604475229979,-0.35801434516907
245,1031287727,-6.62858438491821,1.81120312213898,37.49046707153320,-0.26094663143158,-0.17344023287296,9.78247261047363,-5.35357999801636,0.15133905410767,-0.36466082930565
246,1031304394,-6.60606193542480,1.81136643886566,37.48847198486328,-0.24600195884705,-0.17898045480251,9.78038024902344,-5.38539075851440,0.14826552569866,-0.33370789885521
247,1031321061,-6.58381080627441,1.81178390979767,37.48668670654297,-0.23735523223877,-0.18570785224438,9.77174758911133,-5.40319204330444,0.16456802189350,-0.31561252474785
248,1031337728,-6.56086254119873,1.81201052665710,37.48437118530273,-0.24833624064922,-0.17940552532673,9.76926231384277,-5.35954809188843,0.15903566777706,-0.35249480605125
249,1031354395,-6.53822851181030,1.81191623210907,37.48247528076172,-0.26939311623573,-0.18098723888397,9.78157138824463,-5.37943601608276,0.14004385471344,-0.33381035923958
250,1031371062,-6.51578903198242,1.81330358982086,37.47946929931641,-0.28219181299210,-0.17175428569317,9.76658821105957,-5.38964319229126,0.23569451272488,-0.37849175930023
251,1031387729,-6.49447393417358,1.81282424926758,37.47696685791016,-0.28370487689972,-0.18211002647877,9.76633834838867,-5.45761823654175,0.12176918983459,-0.36469927430153
252,1031404396,-6.47186708450317,1.81395030021667,37.47431564331055,-0.30825322866440,-0.16350638866425,9.79408359527588,-5.37949991226196,0.21981461346149,-0.36492976546288
253,1031421063,-6.44989967346191,1.81469082832336,37.47159194946289,-0.31956773996353,-0.17388589680195,9.76704025268555,-5.41765022277832,0.19591797888279,-0.37326675653458
254,1031437730,-6.42857980728149,1.81403875350952,37.46811676025391,-0.32588464021683,-0.18431591987610,9.78766250610352,-5.45485258102417,0.11648016422987,-0.42543977499008
255,1031454397,-6.40672445297241,1.81365108489990,37.46380615234375,-0.31451529264450,-0.17706444859505,9.76225662231445,-5.41982698440552,0.13583056628704,-0.46909660100937
256,1031471064,-6.38287544250488,1.81413793563843,37.46144866943359,-0.32810962200165,-0.18594697117805,9.77653312683105,-5.30298233032227,0.17553025484085,-0.35601657629013
257,1031487731,-6.36058998107910,1.81476831436157,37.45898056030273,-0.34925451874733,-0.18266971409321,9.78009319305420,-5.39590501785278,0.18198466300964,-0.35267409682274
258,1031504398,-6.33822488784790,1.81357920169830,37.45570755004883,-0.33901008963585,-0.18662036955357,9.78870296478271,-5.38674831390381,0.07710063457489,-0.41597589850426
259,1031521065,-6.31599235534668,1.81307029724121,37.45325851440430,-0.35095429420471,-0.16860680282116,9.78176403045654,-5.39581489562988,0.11016663163900,-0.36156168580055
260,1031537732,-6.29362249374390,1.81188595294952,37.44953918457031,-0.35967645049095,-0.17361922562122,9.77994251251221,-5.38332891464233,0.07657557725906,-0.44130685925484
261,1031554399,-6.27005147933960,1.81073892116547,37.44779586791992,-0.35378497838974,-0.17462831735611,9.77979850769043,-5.31338071823120,0.06239894032478,-0.32762488722801
262,1031571066,-6.24674177169800,1.81008613109589,37.44428253173828,-0.34196236729622,-0.18879956007004,9.76898193359375,-5.32434320449829,0.10111254453659,-0.42601612210274
263,1031587733,-6.22276878356934,1.80956494808197,37.44182968139648,-0.32617002725601,-0.18644760549068,9.76842117309570,-5.28361892700195,0.10099729150534,-0.36646655201912
264,1031604400,-6.19890403747559,1.80921995639801,37.43979644775391,-0.30807763338089,-0.17225596308708,9.77799892425537,-5.28886938095093,0.10733643174171,-0.34093067049980
265,1031621067,-6.17623567581177,1.80808818340302,37.43686294555664,-0.27705255150795,-0.18611280620098,9.76831150054932,-5.35672998428345,0.06694520264864,-0.40424525737762
266,1031637734,-6.15378665924072,1.80728411674500,37.43445968627930,-0.28254100680351,-0.16858717799187,9.76061916351318,-5.36889600753784,0.08196704834700,-0.36095979809761
267,1031654401,-6.13116455078125,1.80668926239014,37.43324661254883,-0.26391381025314,-0.17132613062859,9.76582622528076,-5.35767793655396,0.08756342530251,-0.28773310780525
268,1031671068,-6.10762691497803,1.80550849437714,37.43085479736328,-0.26501458883286,-0.19393147528172,9.77731990814209,-5.29833364486694,0.06227088719606,-0.36580064892769
269,1031687735,-6.08509778976440,1.80487895011902,37.42848205566406,-0.25575268268585,-0.17229923605919,9.75634098052979,-5.35588455200195,0.09647663682699,-0.35296863317490
270,1031704402,-6.06138038635254,1.80454409122467,37.42634582519531,-0.25543031096458,-0.18451726436615,9.77150630950928,-5.28164672851562,0.11368839442730,-0.34227535128593
271,1031721069,-6.03903436660767,1.80488538742065,37.42264556884766,-0.26016670465469,-0.17934042215347,9.78344154357910,-5.35827970504761,0.16582304239273,-0.43378952145576
272,1031737736,-6.01694965362549,1.80385124683380,37.42173385620117,-0.25969600677490,-0.18083250522614,9.76829147338867,-5.37537622451782,0.06837951391935,-0.27465781569481
273,1031754403,-5.99539041519165,1.80354738235474,37.41956329345703,-0.25774747133255,-0.17274901270866,9.76554679870605,-5.40183401107788,0.12025804817677,-0.34159663319588
274,1031771070,-5.97350120544434,1.80453455448151,37.41686248779297,-0.25642809271812,-0.18331494927406,9.76142692565918,-5.37778377532959,0.20228269696236,-0.36984744668007
275,1031787737,-5.95248603820801,1.80417740345001,37.41368865966797,-0.25663319230080,-0.17888402938843,9.77317142486572,-5.42615413665771,0.12609775364399,-0.39683043956757
276,1031804404,-5.92961406707764,1.80406451225281,37.41127395629883,-0.26783880591393,-0.17067949473858,9.78466224670410,-5.31171560287476,0.13645808398724,-0.34458047151566
277,1031821071,-5.90907049179077,1.80538320541382,37.40753555297852,-0.28034734725952,-0.17790132761002,9.77697563171387,-5.44623327255249,0.23212149739265,-0.42579829692841
278,1031837738,-5.88757467269897,1.80535757541656,37.40625000000000,-0.30700019001961,-0.18350653350353,9.79234313964844,-5.39024448394775,0.13670137524605,-0.27876862883568
279,1031854405,-5.86717319488525,1.80660486221313,37.40253067016602,-0.31714427471161,-0.17584046721458,9.78552722930908,-5.44716835021973,0.22801065444946,-0.43686303496361
280,1031871072,-5.84647607803345,1.80702555179596,37.39896774291992,-0.32600572705269,-0.19663935899734,9.79791164398193,-5.42566680908203,0.17560708522797,-0.41487452387810
281,1031887739,-5.82496881484985,1.80714559555054,37.39667892456055,-0.32777723670006,-0.18603752553463,9.78055381774902,-5.37613153457642,0.14953336119652,-0.34744912385941
282,1031904406,-5.80417251586914,1.80713057518005,37.39289093017578,-0.34598815441132,-0.18025635182858,9.77088832855225,-5.41113185882568,0.14884182810783,-0.43268820643425
283,1031921073,-5.78229808807373,1.80704605579376,37.39031600952148,-0.34549471735954,-0.16407409310341,9.77938175201416,-5.34414148330688,0.13750818371773,-0.37785133719444
284,1031937740,-5.76012086868286,1.80808496475220,37.38858032226562,-0.33375370502472,-0.16520334780216,9.79500102996826,-5.32440757751465,0.19591797888279,-0.31504905223846
285,1031954407,-5.73818683624268,1.80784285068512,37.38578033447266,-0.33710619807243,-0.18564452230930,9.75667476654053,-5.33406305313110,0.12349805235863,-0.36685070395470
286,1031971074,-5.71543550491333,1.80780363082886,37.38452148437500,-0.34736439585686,-0.17966730892658,9.76855754852295,-5.28336286544800,0.12526533007622,-0.27883267402649
287,1031987741,-5.69257354736328,1.80661940574646,37.38161087036133,-0.33519896864891,-0.17724154889584,9.76453208923340,-5.26855802536011,0.06494741141796,-0.38927468657494
288,1032004408,-5.67064523696899,1.80677795410156,37.37842941284180,-0.32812124490738,-0.16761539876461,9.77921009063721,-5.31946372985840,0.14685682952404,-0.39775243401527
289,1032021075,-5.64798688888550,1.80608749389648,37.37480926513672,-0.31601390242577,-0.17703194916248,9.79298686981201,-5.27152919769287,0.09643822163343,-0.42765527963638
290,1032037742,-5.62565040588379,1.80551993846893,37.37147521972656,-0.31564867496490,-0.17978268861771,9.79054260253906,-5.28693532943726,0.10138147324324,-0.40982881188393
291,1032054409,-5.60370779037476,1.80508387088776,37.36938095092773,-0.29667344689369,-0.18546606600285,9.77452182769775,-5.30847644805908,0.10097169131041,-0.32932817935944
292,1032071076,-5.58134937286377,1.80471789836884,37.36755371093750,-0.28542432188988,-0.18963587284088,9.77965927124023,-5.27925157546997,0.10339207202196,-0.31604793667793
293,1032087743,-5.55915975570679,1.80430126190186,37.36515808105469,-0.25980326533318,-0.17087689042091,9.76446151733398,-5.28331232070923,0.10587652027607,-0.37025725841522
294,1032104410,-5.53692817687988,1.80361974239349,37.36242294311523,-0.24608203768730,-0.18763862550259,9.75214004516602,-5.27558946609497,0.09199442714453,-0.37859418988228
295,1032121077,-5.51647520065308,1.80275690555573,37.35895156860352,-0.24472895264626,-0.17408594489098,9.77432346343994,-5.37561941146851,0.08780674636364,-0.42478665709496
296,1032137744,-5.49476623535156,1.80260288715363,37.35577011108398,-0.24991899728775,-0.18230774998665,9.78255558013916,-5.29648923873901,0.13031101226807,-0.40684494376183
297,1032154411,-5.47429275512695,1.80206537246704,37.35286331176758,-0.26490783691406,-0.16696995496750,9.78736209869385,-5.36550283432007,0.10728521645069,-0.38155248761177
298,1032171078,-5.45423936843872,1.79994249343872,37.35136413574219,-0.27086701989174,-0.16312952339649,9.77516937255859,-5.38964319229126,0.00615345174447,-0.31894215941429
299,1032187745,-5.43373632431030,1.79923105239868,37.34917831420898,-0.27271914482117,-0.18435864150524,9.77893638610840,-5.35657644271851,0.09463252872229,-0.34496468305588
300,1032204412,-5.41459417343140,1.79934012889862,37.34837722778320,-0.27292329072952,-0.19022919237614,9.81022071838379,-5.43616867065430,0.13645808398724,-0.25708752870560
301,1032221079,-5.39477586746216,1.79955255985260,37.34590911865234,-0.26383358240128,-0.19464261829853,9.77246570587158,-5.38646650314331,0.15220989286900,-0.34415787458420
302,1032237746,-5.37387180328369,1.79968035221100,37.34329986572266,-0.27631011605263,-0.17446655035019,9.77881240844727,-5.31646728515625,0.14946934580803,-0.36307287216187
303,1032254413,-5.35473728179932,1.79927074909210,37.33961868286133,-0.28732523322105,-0.17007488012314,9.77936744689941,-5.41457653045654,0.12411274015903,-0.43216311931610
304,1032271080,-5.33557701110840,1.79951536655426,37.33720779418945,-0.30333039164543,-0.17432673275471,9.76420307159424,-5.41145133972168,0.15657684206963,-0.35690018534660
305,1032287747,-5.31696510314941,1.80089128017426,37.33495330810547,-0.31032046675682,-0.18949858844280,9.76706409454346,-5.43980550765991,0.22316989302635,-0.33756262063980
306,1032304414,-5.29771614074707,1.80076277256012,37.33028793334961,-0.32841506600380,-0.17671407759190,9.78448200225830,-5.39160156250000,0.14353998005390,-0.47151705622673
307,1032321081,-5.27961397171021,1.79938626289368,37.32746124267578,-0.34412553906441,-0.19783101975918,9.78628063201904,-5.45845031738281,0.05938944220543,-0.38366541266441
308,1032337748,-5.26047039031982,1.79872775077820,37.32481384277344,-0.35238796472549,-0.18919496238232,9.78830623626709,-5.39098739624023,0.10077958554029,-0.37575116753578
309,1032354415,-5.24033117294312,1.79948341846466,37.32193756103516,-0.34186792373657,-0.18631608784199,9.76437759399414,-5.32503461837769,0.18307317793369,-0.36956563591957
310,1032371082,-5.22051334381104,1.79893267154694,37.31969070434570,-0.33746021986008,-0.18905134499073,9.78406810760498,-5.34001779556274,0.10006242245436,-0.34883221983910
311,1032387749,-5.19972896575928,1.79831814765930,37.31751632690430,-0.33305168151855,-0.17343990504742,9.78045940399170,-5.27684450149536,0.09526005387306,-0.33539837598801
312,1032404416,-5.17963838577271,1.79761230945587,37.31647109985352,-0.33442759513855,-0.19091331958771,9.79647541046143,-5.31595420837402,0.08249210566282,-0.27633544802666
313,1032421083,-5.15910768508911,1.79633951187134,37.31430435180664,-0.32311254739761,-0.17693299055099,9.77337646484375,-5.28151798248291,0.05256366729736,-0.34027755260468
314,1032437750,-5.13935613632202,1.79611885547638,37.31102371215820,-0.30827611684799,-0.17899775505066,9.78107738494873,-5.32137203216553,0.12143623083830,-0.39855930209160
315,1032454417,-5.11873912811279,1.79373407363892,37.30829238891602,-0.29784789681435,-0.17788900434971,9.77817440032959,-5.26449918746948,-0.01050120778382,-0.39425635337830
316,1032471084,-5.09813737869263,1.79242694377899,37.30590438842773,-0.30452156066895,-0.18273751437664,9.77399444580078,-5.26163053512573,0.05151354894042,-0.35838571190834
317,1032487751,-5.07761240005493,1.79172515869141,37.30298233032227,-0.28331089019775,-0.18435040116310,9.78514957427979,-5.25901746749878,0.08881844580173,-0.37522608041763
318,1032504418,-5.05829143524170,1.79073619842529,37.30142974853516,-0.27715095877647,-0.19397298991680,9.77940845489502,-5.32929897308350,0.06593349575996,-0.30959349870682
319,1032521085,-5.03904819488525,1.79059255123138,37.29888534545898,-0.26447662711143,-0.18523947894573,9.78590393066406,-5.32598209381104,0.12228143960238,-0.35789909958839
320,1032537752,-5.02039194107056,1.78923869132996,37.29706954956055,-0.25872588157654,-0.17198260128498,9.76462936401367,-5.35652494430542,0.04772286489606,-0.31625282764435
321,1032554419,-5.00175952911377,1.78819382190704,37.29525756835938,-0.25318324565887,-0.18121379613876,9.79377079010010,-5.35364341735840,0.06606156378984,-0.31161695718765
322,1032571086,-4.98310899734497,1.78810679912567,37.29319000244141,-0.25567358732224,-0.17649067938328,9.78358364105225,-5.34637022018433,0.12594406306744,-0.32674121856689
323,1032587753,-4.96434974670410,1.78741991519928,37.28969192504883,-0.24276460707188,-0.18997345864773,9.76023578643799,-5.33209085464478,0.09798778593540,-0.41095578670502
324,1032604420,-4.94569158554077,1.78766167163849,37.28776550292969,-0.26689213514328,-0.16508768498898,9.79361820220947,-5.33539485931396,0.14774046838284,-0.31860920786858
325,1032621087,-4.92914390563965,1.78696095943451,37.28582763671875,-0.26966160535812,-0.19215652346611,9.79522991180420,-5.45747804641724,0.09331347793341,-0.32247671484947
326,1032637754,-4.91124486923218,1.78741824626923,37.28384780883789,-0.27627941966057,-0.17429085075855,9.78323745727539,-5.37007427215576,0.16255742311478,-0.31250056624413
327,1032654421,-4.89482736587524,1.78819322586060,37.28036880493164,-0.28906044363976,-0.18696190416813,9.80005455017090,-5.45076704025269,0.18961723148823,-0.40848413109779
328,1032671088,-4.87711906433105,1.78878617286682,37.27699661254883,-0.30724030733109,-0.17867659032345,9.77642440795898,-5.36878108978271,0.17765611410141,-0.37987482547760
329,1032687755,-4.86001300811768,1.78856337070465,37.27571868896484,-0.30163073539734,-0.17844879627228,9.77332687377930,-5.40333223342896,0.11892617493868,-0.28115063905716
330,1032704422,-4.84300947189331,1.78943741321564,37.27357864379883,-0.31018725037575,-0.16521619260311,9.77029132843018,-5.40289688110352,0.18825976550579,-0.31891655921936
331,1032721089,-4.82697391510010,1.79023587703705,37.27102279663086,-0.30270713567734,-0.19303365051746,9.75552272796631,-5.45472431182861,0.18425135314465,-0.34237778186798
332,1032737756,-4.81030368804932,1.78909540176392,37.26852416992188,-0.32208254933357,-0.19577684998512,9.77197933197021,-5.41140031814575,0.06823863834143,-0.34328705072403
333,1032754423,-4.79275846481323,1.78881657123566,37.26630020141602,-0.32923644781113,-0.17203776538372,9.78443050384521,-5.35318279266357,0.11895179748535,-0.34820470213890
334,1032771090,-4.77546787261963,1.78954172134399,37.26321411132812,-0.33972564339638,-0.17986533045769,9.77169322967529,-5.36119985580444,0.18160048127174,-0.37996447086334
335,1032787757,-4.75690937042236,1.78928530216217,37.26062011718750,-0.34460383653641,-0.17336544394493,9.77959918975830,-5.28154420852661,0.11891336739063,-0.34967738389969
336,1032804424,-4.73930311203003,1.78951108455658,37.25799942016602,-0.34946668148041,-0.18960957229137,9.77750492095947,-5.33405017852783,0.14684402942657,-0.35273814201355
337,1032821091,-4.72098350524902,1.78866755962372,37.25539016723633,-0.33405989408493,-0.18436264991760,9.78493213653564,-5.28478431701660,0.08104499429464,-0.35412120819092
338,1032837758,-4.70311832427979,1.78773617744446,37.25366210937500,-0.33115005493164,-0.17353129386902,9.77324771881104,-5.30883407592773,0.07151707261801,-0.32038930058479
339,1032854425,-4.68557596206665,1.78652262687683,37.25255966186523,-0.32152077555656,-0.17660254240036,9.76943302154541,-5.32429170608521,0.04920840635896,-0.26715329289436
340,1032871092,-4.66851472854614,1.78744101524353,37.24937820434570,-0.30135869979858,-0.17765806615353,9.77744960784912,-5.34419298171997,0.18560887873173,-0.38572731614113
341,1032887759,-4.65051651000977,1.78547823429108,37.24720001220703,-0.28549548983574,-0.18693731725216,9.78607845306396,-5.28460502624512,0.00847140140831,-0.33349016308784
342,1032904426,-4.63340616226196,1.78526794910431,37.24517440795898,-0.27076235413551,-0.18338693678379,9.79148197174072,-5.33273077011108,0.11324014514685,-0.32814994454384
343,1032921093,-4.61519670486450,1.78366661071777,37.24282455444336,-0.27589118480682,-0.18832321465015,9.79307746887207,-5.26090097427368,0.03193263709545,-0.33989337086678
344,1032937760,-4.59845638275146,1.78320217132568,37.24017715454102,-0.27743315696716,-0.17832159996033,9.77777481079102,-5.34234857559204,0.10221388190985,-0.35342964529991
345,1032954427,-4.58150768280029,1.78213965892792,37.23843002319336,-0.27522832155228,-0.18046781420708,9.77358913421631,-5.32754468917847,0.06438393145800,-0.33238887786865
346,1032971094,-4.56456327438354,1.78154850006104,37.23653793334961,-0.26228749752045,-0.18189243972301,9.78158378601074,-5.32174301147461,0.09276279807091,-0.30841535329819
347,1032987761,-4.54745960235596,1.78072524070740,37.23363113403320,-0.27635025978088,-0.18585619330406,9.76878261566162,-5.30527400970459,0.08445147424936,-0.37535414099693
348,1033004428,-4.52973031997681,1.78065371513367,37.23014831542969,-0.24818944931030,-0.18321609497070,9.78358268737793,-5.26116943359375,0.13224478065968,-0.40950867533684
349,1033021095,-4.51335668563843,1.78054916858673,37.22686767578125,-0.26338821649551,-0.18596239387989,9.77455615997314,-5.33727741241455,0.13061837852001,-0.39943006634712
350,1033037762,-4.49797534942627,1.78269529342651,37.22346496582031,-0.25306099653244,-0.19734451174736,9.77355194091797,-5.39134645462036,0.26463684439659,-0.37079513072968
351,1033054429,-4.48345947265625,1.78227317333221,37.22031402587891,-0.26642513275146,-0.18035481870174,9.77040290832520,-5.43820428848267,0.11115273088217,-0.37001392245293
352,1033071096,-4.46806812286377,1.78276216983795,37.21801757812500,-0.27473965287209,-0.19667138159275,9.75672912597656,-5.38266277313232,0.16351789236069,-0.33455312252045
353,1033087763,-4.45255184173584,1.78364574909210,37.21599197387695,-0.30936652421951,-0.18527680635452,9.77170085906982,-5.36907577514648,0.18813171982765,-0.33014774322510
354,1033104430,-4.43752241134644,1.78399741649628,37.21351242065430,-0.29171314835548,-0.19510553777218,9.77262687683105,-5.39252471923828,0.15735805034637,-0.35528662800789
355,1033121097,-4.42216444015503,1.78435087203979,37.21133422851562,-0.32473641633987,-0.17805129289627,9.79235649108887,-5.36903715133667,0.15509131550789,-0.33369508385658
356,1033137764,-4.40665960311890,1.78565692901611,37.20824813842773,-0.33625486493111,-0.18116009235382,9.77568531036377,-5.35240173339844,0.21684353053570,-0.38170611858368
357,1033154431,-4.39277839660645,1.78446733951569,37.20557022094727,-0.33351469039917,-0.17396071553230,9.76689052581787,-5.44547748565674,0.06294962018728,-0.36842587590218
358,1033171098,-4.37770223617554,1.78344571590424,37.20291519165039,-0.33927220106125,-0.18547776341438,9.76483249664307,-5.37018966674805,0.07114568352699,-0.34434998035431
359,1033187765,-4.36280250549316,1.78382611274719,37.20029830932617,-0.32705429196358,-0.19756779074669,9.77412128448486,-5.37474870681763,0.15445099771023,-0.34350475668907
360,1033204432,-4.34682321548462,1.78302240371704,37.19677352905273,-0.34257665276527,-0.17566703259945,9.78625488281250,-5.30439090728760,0.08556564152241,-0.38096335530281
361,1033221099,-4.33157253265381,1.78217172622681,37.19540023803711,-0.33975654840469,-0.18334162235260,9.76248645782471,-5.34502506256104,0.07713906466961,-0.33082646131516
362,1033237766,-4.31581115722656,1.78143441677094,37.19266510009766,-0.34304112195969,-0.18212904036045,9.75311660766602,-5.30770826339722,0.08571930974722,-0.37256237864494
363,1033254433,-4.30106592178345,1.77968597412109,37.19006729125977,-0.33528754115105,-0.17268908023834,9.77408599853516,-5.36415767669678,0.02368534728885,-0.36546763777733
364,1033271100,-4.28587055206299,1.77894663810730,37.18841171264648,-0.33747503161430,-0.17639373242855,9.76796245574951,-5.33434438705444,0.07867581397295,-0.30316472053528
365,1033287767,-4.27038288116455,1.77660346031189,37.18539810180664,-0.33114650845528,-0.18103209137917,9.79405498504639,-5.31134414672852,-0.01641774177551,-0.33267056941986
366,1033304434,-4.25529861450195,1.77483522891998,37.18234634399414,-0.30276462435722,-0.17663763463497,9.76718616485596,-5.32940149307251,0.01835790276527,-0.34742349386215
367,1033321101,-4.24036836624146,1.77263438701630,37.18044281005859,-0.27916297316551,-0.19116593897343,9.77606678009033,-5.33625364303589,-0.01157694309950,-0.30422773957253
368,1033337768,-4.22476577758789,1.77196907997131,37.17680358886719,-0.28249984979630,-0.19826517999172,9.78649902343750,-5.28971481323242,0.08180057257414,-0.30463752150536
369,1033354435,-4.20937681198120,1.77106595039368,37.17359924316406,-0.26084092259407,-0.17537887394428,9.77814197540283,-5.29737281799316,0.06814900040627,-0.32248955965042
370,1033371102,-4.19404649734497,1.77077722549438,37.17081832885742,-0.27765128016472,-0.19020609557629,9.78128051757812,-5.29493951797485,0.10843776911497,-0.35419806838036
371,1033387769,-4.17898273468018,1.77024865150452,37.16854858398438,-0.25895962119102,-0.18265052139759,9.80128765106201,-5.30618381500244,0.09387695789337,-0.34329986572266
372,1033404436,-4.16433286666870,1.76942837238312,37.16673278808594,-0.25915464758873,-0.20132921636105,9.76469039916992,-5.32690429687500,0.07610173523426,-0.32229745388031
373,1033421103,-4.15033292770386,1.77003133296967,37.16593170166016,-0.25132563710213,-0.18417352437973,9.76262378692627,-5.36171197891235,0.16030350327492,-0.28282827138901
374,1033437770,-4.13675355911255,1.77119326591492,37.16448211669922,-0.28239721059799,-0.20170328021049,9.77964305877686,-5.38034486770630,0.19919639825821,-0.36207395792007
375,1033454437,-4.12316751480103,1.77121496200562,37.16202545166016,-0.26252317428589,-0.17241683602333,9.78808021545410,-5.37623405456543,0.12928649783134,-0.31727734208107
376,1033471104,-4.10978460311890,1.77174615859985,37.15884017944336,-0.27199608087540,-0.17051376402378,9.75963973999023,-5.38220214843750,0.16271108388901,-0.36295759677887
377,1033487771,-4.09579515457153,1.77147960662842,37.15809631347656,-0.26592004299164,-0.16448777914047,9.76792907714844,-5.34352684020996,0.10985928028822,-0.28200867772102
378,1033504438,-4.08333396911621,1.77198863029480,37.16052627563477,-0.27037245035172,-0.17934189736843,9.78456497192383,-5.42940711975098,0.16240377724171,-0.34210890531540
379,1033521105,-4.07159185409546,1.77267599105835,37.15890884399414,-0.29217258095741,-0.17125135660172,9.76254653930664,-5.46791362762451,0.17181637883186,-0.32757359743118
380,1033537772,-4.05907583236694,1.77241396903992,37.15549087524414,-0.29787176847458,-0.16315747797489,9.75947856903076,-5.41636943817139,0.11823464184999,-0.37883749604225
381,1033554439,-4.04672384262085,1.77323329448700,37.15365982055664,-0.31353351473808,-0.18924619257450,9.76078510284424,-5.42350292205811,0.18019177019596,-0.33511662483215
382,1033571106,-4.03313875198364,1.77310824394226,37.15087890625000,-0.34113526344299,-0.17915789783001,9.78979110717773,-5.34475612640381,0.12421520799398,-0.33471962809563
383,1033587773,-4.02030897140503,1.77235984802246,37.14741134643555,-0.34359869360924,-0.17226937413216,9.77266883850098,-5.38463497161865,0.08539915084839,-0.35048422217369
384,1033604440,-4.00760221481323,1.77247834205627,37.14294815063477,-0.34753525257111,-0.16648358106613,9.78017520904541,-5.38817024230957,0.13338455557823,-0.30317756533623
385,1033621107,-3.99507713317871,1.77225399017334,37.13780593872070,-0.33029553294182,-0.18087141215801,9.77168083190918,-5.39472675323486,0.11350908875465,-0.34460610151291
386,1033637774,-3.98195981979370,1.77190887928009,37.13315582275391,-0.32474580407143,-0.18077489733696,9.77403831481934,-5.35359287261963,0.10816885530949,-0.38814771175385
387,1033654441,-3.96907639503479,1.77095580101013,37.13398361206055,-0.33149692416191,-0.18251389265060,9.79668426513672,-5.36452960968018,0.07077430933714,-0.37076950073242
388,1033671108,-3.95658135414124,1.77068996429443,37.13079452514648,-0.33005878329277,-0.20393361151218,9.77318477630615,-5.38298320770264,0.11163936555386,-0.37625056505203
389,1033687775,-3.94396471977234,1.77064967155457,37.12776184082031,-0.33629068732262,-0.17777521908283,9.77050781250000,-5.37281513214111,0.12057818472385,-0.32450014352798
390,1033704442,-3.92994141578674,1.76847791671753,37.12420654296875,-0.31726923584938,-0.18703334033489,9.80331611633301,-5.28277444839478,-0.00654404610395,-0.35962802171707
391,1033721109,-3.91668581962585,1.76793241500854,37.12124633789062,-0.32428580522537,-0.17236374318600,9.78246307373047,-5.32500934600830,0.08843427151442,-0.31461364030838
392,1033737776,-3.90364813804626,1.76749658584595,37.11588287353516,-0.31607228517532,-0.18910643458366,9.77547740936279,-5.33203935623169,0.09914036095142,-0.38700792193413
393,1033754443,-3.88982105255127,1.76589131355286,37.10719680786133,-0.29163482785225,-0.18335293233395,9.75191593170166,-5.28026390075684,0.02891034074128,-0.39521682262421
394,1033771110,-3.87608027458191,1.76622104644775,37.10262680053711,-0.28176099061966,-0.17447319626808,9.75507259368896,-5.28347826004028,0.14015913009644,-0.32044053077698
395,1033787777,-3.86234617233276,1.76497852802277,37.10359191894531,-0.26302906870842,-0.18225100636482,9.75544548034668,-5.27832984924316,0.04833757132292,-0.35316073894501
396,1033804444,-3.85039281845093,1.76538443565369,37.10016632080078,-0.24764266610146,-0.17754524946213,9.76147651672363,-5.37887239456177,0.15142869949341,-0.39417949318886
397,1033821111,-3.83827900886536,1.76606917381287,37.09735488891602,-0.25114402174950,-0.16858434677124,9.77740287780762,-5.36672019958496,0.16755190491676,-0.38987660408020
398,1033837778,-3.82659435272217,1.76586294174194,37.09549713134766,-0.25857985019684,-0.16823272407055,9.78155422210693,-5.38946390151978,0.11448238790035,-0.37617376446724
399,1033854445,-3.81383895874023,1.76621913909912,37.09884643554688,-0.25941303372383,-0.18671002984047,9.76868629455566,-5.32027053833008,0.14785572886467,-0.35212340950966
400,1033871112,-3.80095028877258,1.76714229583740,37.09876251220703,-0.27464130520821,-0.18070265650749,9.78025436401367,-5.30937194824219,0.18285547196865,-0.35030490159988
401,1033887779,-3.78839945793152,1.76896202564240,37.09136962890625,-0.28955465555191,-0.17154780030251,9.77038478851318,-5.32490587234497,0.23488767445087,-0.33366945385933
402,1033904446,-3.77888846397400,1.77000939846039,37.08591461181641,-0.26905730366707,-0.16746546328068,9.77876663208008,-5.50377225875854,0.18913057446480,-0.32917445898056
403,1033921113,-3.76793718338013,1.76934182643890,37.08278274536133,-0.28024888038635,-0.18409721553326,9.77308177947998,-5.41293716430664,0.08925386518240,-0.38440823554993
404,1033937780,-3.75679707527161,1.77047240734100,37.08359527587891,-0.28679224848747,-0.18230937421322,9.77515316009521,-5.39902973175049,0.19349755346775,-0.30381789803505
405,1033954447,-3.74627971649170,1.76968157291412,37.08445739746094,-0.31431749463081,-0.18189202249050,9.77618217468262,-5.43046951293945,0.08276104927063,-0.36020424962044
406,1033971114,-3.73642683029175,1.77018725872040,37.08108520507812,-0.30390155315399,-0.18979805707932,9.77572154998779,-5.46626234054565,0.15965037047863,-0.37589198350906
407,1033987781,-3.72479033470154,1.77008354663849,37.08214569091797,-0.31322765350342,-0.16492120921612,9.78349876403809,-5.35560321807861,0.12306262552738,-0.36218923330307
408,1034004448,-3.71442937850952,1.77109193801880,37.07860946655273,-0.32323512434959,-0.19290013611317,9.78082275390625,-5.43018817901611,0.18747860193253,-0.33466839790344
409,1034021115,-3.70364999771118,1.77164089679718,37.06837463378906,-0.34724971652031,-0.17273676395416,9.79219818115234,-5.40205192565918,0.15372103452682,-0.27233988046646
410,1034037782,-3.69296860694885,1.77215671539307,37.06784820556641,-0.34664887189865,-0.17880894243717,9.77487373352051,-5.40002822875977,0.16186587512493,-0.40616625547409
411,1034054449,-3.68189764022827,1.77199542522430,37.06816482543945,-0.35013350844383,-0.18611191213131,9.77722549438477,-5.37406969070435,0.11603193730116,-0.35478711128235
412,1034071116,-3.66976428031921,1.77127254009247,37.06606674194336,-0.33946409821510,-0.17933160066605,9.78528976440430,-5.30615854263306,0.08253052830696,-0.38973566889763
413,1034087783,-3.65862083435059,1.77065932750702,37.05167388916016,-0.35379818081856,-0.17326229810715,9.77111911773682,-5.36442661285400,0.08019977062941,-0.29595476388931
414,1034104450,-3.64675831794739,1.76900565624237,37.19195175170898,-0.33010867238045,-0.19971337914467,9.78423213958740,-5.31567287445068,0.04897788539529,-0.31046435236931
415,1034121117,-3.63542532920837,1.76743817329407,37.32406616210938,-0.31474709510803,-0.18182438611984,9.77790927886963,-5.34209251403809,0.05850582197309,-0.34560501575470
416,1034137784,-3.62357115745544,1.76676332950592,37.45766067504883,-0.30248209834099,-0.16867643594742,9.78656387329102,-5.30667018890381,0.11649298667908,-0.35359615087509
417,1034154451,-3.61269164085388,1.76610159873962,37.59085845947266,-0.29531747102737,-0.18361403048038,9.78061676025391,-5.36221122741699,0.11718451976776,-0.29763236641884
418,1034171118,-3.60105085372925,1.76515829563141,37.73244094848633,-0.30026638507843,-0.17219889163971,9.78119945526123,-5.31192064285278,0.11033311486244,-0.35071471333504
419,1034187785,-3.58884835243225,1.76469838619232,37.86661148071289,-0.29846450686455,-0.18366621434689,9.79877471923828,-5.27523040771484,0.13894250988960,-0.33046793937683
420,1034204452,-3.57681655883789,1.76267969608307,37.99951934814453,-0.27020990848541,-0.19335509836674,9.78757667541504,-5.28135204315186,0.05084761604667,-0.34929323196411
421,1034221119,-3.56481671333313,1.76151049137115,38.16517257690430,-0.28593197464943,-0.17470201849937,9.77398490905762,-5.27703619003296,0.11688996106386,-0.39526805281639
422,1034237786,-3.55359172821045,1.76148283481598,38.27504348754883,-0.25334042310715,-0.17329213023186,9.78637599945068,-5.32161521911621,0.17225183546543,-0.34210887551308
423,1034254453,-3.54146385192871,1.76061558723450,38.39676284790039,-0.24932451546192,-0.19369816780090,9.76467895507812,-5.26379442214966,0.13049031794071,-0.36560851335526
424,1034271120,-3.53087997436523,1.76006603240967,38.51454544067383,-0.25828808546066,-0.19209963083267,9.78882122039795,-5.35352897644043,0.15016086399555,-0.33274742960930
425,1034287787,-3.52109408378601,1.75838041305542,38.62221908569336,-0.24680784344673,-0.19170747697353,9.77192497253418,-5.39666032791138,0.08356784284115,-0.35610622167587
426,1034304454,-3.51074457168579,1.75809252262115,38.73025512695312,-0.26931443810463,-0.18674996495247,9.78411102294922,-5.35813856124878,0.17500518262386,-0.39978867769241
427,1034321121,-3.50048899650574,1.75846385955811,38.83337020874023,-0.27131587266922,-0.17686560750008,9.77099227905273,-5.36182737350464,0.21246381103992,-0.34269800782204
428,1034337788,-3.49058270454407,1.75756180286407,38.95353317260742,-0.28947302699089,-0.16906175017357,9.78308582305908,-5.37990951538086,0.14182393252850,-0.33533430099487
429,1034354455,-3.48181962966919,1.75687050819397,39.06792068481445,-0.28482380509377,-0.17681168019772,9.75602722167969,-5.44344186782837,0.15844658017159,-0.34230095148087
430,1034371122,-3.47250247001648,1.75653398036957,39.16804885864258,-0.30053386092186,-0.18555751442909,9.76814460754395,-5.41093969345093,0.17270004749298,-0.27639949321747
431,1034387789,-3.46220660209656,1.75657880306244,39.24893188476562,-0.31592985987663,-0.17715519666672,9.77841186523438,-5.34589624404907,0.19544412195683,-0.30973440408707
432,1034404456,-3.45265769958496,1.75634241104126,39.34159851074219,-0.31738507747650,-0.17528325319290,9.78852844238281,-5.38889980316162,0.18087048828602,-0.28573530912399
433,1034421123,-3.44311809539795,1.75501692295074,39.43674850463867,-0.32608145475388,-0.18164506554604,9.77786254882812,-5.38320064544678,0.12225582450628,-0.35588848590851
434,1034437790,-3.43400692939758,1.75507199764252,39.52030944824219,-0.31723287701607,-0.18260367214680,9.78674125671387,-5.40355062484741,0.20909570157528,-0.43335413932800
435,1034454457,-3.42492818832397,1.75371932983398,39.61359024047852,-0.33139622211456,-0.16689059138298,9.77748870849609,-5.40355014801025,0.12324192374945,-0.36987304687500
436,1034471124,-3.41546249389648,1.75319015979767,39.69966125488281,-0.34328240156174,-0.17421005666256,9.78379440307617,-5.37768173217773,0.17058701813221,-0.34953656792641
437,1034487791,-3.40578007698059,1.75067293643951,39.79283905029297,-0.35187447071075,-0.17818884551525,9.77034187316895,-5.36050796508789,0.05650802329183,-0.38477963209152
438,1034504458,-3.39646625518799,1.74892091751099,39.86416625976562,-0.34857821464539,-0.19104959070683,9.77317523956299,-5.38147211074829,0.09435079246759,-0.34807664155960
439,1034521125,-3.38636231422424,1.74676263332367,39.93882751464844,-0.34037542343140,-0.19256006181240,9.78156185150146,-5.33008050918579,0.07261841744184,-0.36421260237694
440,1034537792,-3.37689089775085,1.74436128139496,40.00420761108398,-0.33251494169235,-0.17776279151440,9.78244113922119,-5.36752605438232,0.04831195995212,-0.26447674632072
441,1034554459,-3.36697173118591,1.74216377735138,40.08403015136719,-0.31066769361496,-0.17427670955658,9.79020977020264,-5.33608627319336,0.06809777021408,-0.29817026853561
442,1034571126,-3.35639309883118,1.73979997634888,40.16075134277344,-0.30729097127914,-0.17226429283619,9.77213668823242,-5.29164791107178,0.06271910667419,-0.36256060004234
443,1034587793,-3.34671664237976,1.73930931091309,40.22412109375000,-0.30842202901840,-0.17330014705658,9.78224182128906,-5.34268140792847,0.17239269614220,-0.37759527564049
444,1034604460,-3.33694958686829,1.73762476444244,40.28598022460938,-0.29077142477036,-0.19318887591362,9.76734924316406,-5.33690595626831,0.09556739777327,-0.29468694329262
445,1034621127,-3.32724404335022,1.73665320873260,40.33571624755859,-0.27822804450989,-0.17458233237267,9.75466346740723,-5.33553552627563,0.13844305276871,-0.34552812576294
446,1034637794,-3.31711554527283,1.73597717285156,40.38026046752930,-0.27534744143486,-0.18804347515106,9.76537322998047,-5.30813026428223,0.15304230153561,-0.30695542693138
447,1034654461,-3.30734658241272,1.73461961746216,40.41750717163086,-0.27378556132317,-0.17379766702652,9.78728675842285,-5.32758283615112,0.11099904775620,-0.31726455688477
448,1034671128,-3.29854130744934,1.73463010787964,40.45611190795898,-0.26438522338867,-0.19187207520008,9.76803493499756,-5.38102340698242,0.19397138059139,-0.31372997164726
449,1034687795,-3.29036259651184,1.73291409015656,40.49636077880859,-0.26701325178146,-0.17676678299904,9.77420330047607,-5.41543483734131,0.09344154596329,-0.35609340667725
450,1034704462,-3.28238534927368,1.73119413852692,40.56131362915039,-0.27362960577011,-0.17785198986530,9.78486919403076,-5.42401456832886,0.10011365264654,-0.28659331798553
451,1034721129,-3.27286195755005,1.73129987716675,40.60245513916016,-0.24397125840187,-0.18341770768166,9.77828598022461,-5.32772493362427,0.20739248394966,-0.37489315867424
452,1034737796,-3.26475453376770,1.72913992404938,40.64978027343750,-0.24361044168472,-0.17891824245453,9.75888919830322,-5.40817308425903,0.07658838480711,-0.39497345685959
453,1034754463,-3.25644683837891,1.72890996932983,40.67620468139648,-0.26393023133278,-0.19324876368046,9.78123283386230,-5.39420175552368,0.18281707167625,-0.36449438333511
454,1034771130,-3.24760627746582,1.72806727886200,40.70217514038086,-0.29302754998207,-0.18082398176193,9.78434753417969,-5.35772895812988,0.15027612447739,-0.42528617382050
455,1034787797,-3.23920178413391,1.72818863391876,40.72525024414062,-0.29813390970230,-0.17593972384930,9.76031208038330,-5.38386678695679,0.20212903618813,-0.35217460989952
456,1034804464,-3.23057389259338,1.72731339931488,40.75096511840820,-0.30145263671875,-0.17364776134491,9.77163028717041,-5.36665534973145,0.14379611611366,-0.34931886196136
457,1034821131,-3.22407221794128,1.72626698017120,40.77774429321289,-0.31190192699432,-0.18529406189919,9.76618289947510,-5.49112033843994,0.13457554578781,-0.37489312887192
458,1034837798,-3.21571969985962,1.72641563415527,40.81921386718750,-0.33251589536667,-0.18215733766556,9.77234649658203,-5.37861585617065,0.20841693878174,-0.30972158908844
459,1034854465,-3.20710754394531,1.72608661651611,40.84421539306641,-0.33140313625336,-0.19286875426769,9.77242374420166,-5.35780572891235,0.17678527534008,-0.38978692889214
460,1034871132,-3.19764256477356,1.72589147090912,40.86565017700195,-0.33398094773293,-0.18094496428967,9.77738857269287,-5.30574798583984,0.17925688624382,-0.32284811139107
461,1034887799,-3.19015574455261,1.72507560253143,40.88789367675781,-0.33026558160782,-0.18387493491173,9.77576732635498,-5.42067193984985,0.14446204900742,-0.37290814518929
462,1034904466,-3.18156647682190,1.72293162345886,40.91151428222656,-0.33010184764862,-0.18127301335335,9.76916885375977,-5.35141563415527,0.06270629167557,-0.34194239974022
463,1034921133,-3.17253041267395,1.72161412239075,40.93169021606445,-0.36112076044083,-0.19355797767639,9.78257083892822,-5.32329225540161,0.11025627702475,-0.35449257493019
464,1034937800,-3.16436386108398,1.72134840488434,40.95563888549805,-0.33562248945236,-0.18274497985840,9.77245521545410,-5.37147092819214,0.17294338345528,-0.32863661646843
465,1034954467,-3.15668630599976,1.72045719623566,40.96524429321289,-0.32798084616661,-0.17518666386604,9.78016662597656,-5.40116834640503,0.12393346428871,-0.27308264374733
466,1034971134,-3.14701032638550,1.71918535232544,40.98450088500977,-0.33229547739029,-0.19236561655998,9.79282760620117,-5.27448797225952,0.11020506173372,-0.36681231856346
467,1034987801,-3.13816142082214,1.71682417392731,40.99376296997070,-0.33691161870956,-0.18286961317062,9.75792789459229,-5.32466316223145,0.03669659793377,-0.30850499868393
468,1035004468,-3.12873506546021,1.71469223499298,41.01738357543945,-0.31316807866096,-0.18058973550797,9.76463794708252,-5.28414440155029,0.05908210575581,-0.37343317270279
469,1035021135,-3.11962556838989,1.71258473396301,41.04510116577148,-0.30111438035965,-0.18445411324501,9.77066040039062,-5.30176544189453,0.06008099764585,-0.33819010853767
470,1035037802,-3.11110782623291,1.71106088161469,41.03979110717773,-0.27905550599098,-0.18243028223515,9.77089786529541,-5.33237218856812,0.08455394208431,-0.41522032022476
471,1035054469,-3.10234785079956,1.71090066432953,41.04931640625000,-0.27271798253059,-0.17305903136730,9.79036712646484,-5.31742763519287,0.16803853213787,-0.34351760149002
472,1035071136,-3.09407138824463,1.70881116390228,41.05697250366211,-0.25980830192566,-0.20428891479969,9.76923751831055,-5.34497404098511,0.05074516683817,-0.33726808428764
473,1035087803,-3.08539128303528,1.70706701278687,41.07212829589844,-0.26140987873077,-0.17953036725521,9.76573085784912,-5.31536531448364,0.07770253717899,-0.37768492102623
474,1035104470,-3.07724070549011,1.70520043373108,41.08997344970703,-0.27401459217072,-0.16856524348259,9.77812671661377,-5.34598588943481,0.07146584242582,-0.35673370957375
475,1035121137,-3.06964206695557,1.70436620712280,41.10373306274414,-0.26431286334991,-0.17255085706711,9.76730918884277,-5.37746381759644,0.12845411896706,-0.32880309224129
476,1035137804,-3.06112170219421,1.70262312889099,41.11557769775391,-0.26649898290634,-0.18628969788551,9.76819896697998,-5.31849002838135,0.07529494911432,-0.36230444908142
477,1035154471,-3.05309033393860,1.70235979557037,41.12318801879883,-0.27807748317719,-0.18106789886951,9.75179958343506,-5.34526920318604,0.16242936253548,-0.35943585634232
478,1035171138,-3.04599237442017,1.70219612121582,41.13177490234375,-0.26934504508972,-0.17370015382767,9.78009986877441,-5.40132188796997,0.16356912255287,-0.27595126628876
479,1035187805,-3.03801918029785,1.70119118690491,41.14724731445312,-0.27279397845268,-0.18607400357723,9.78608608245850,-5.34316778182983,0.12247353792191,-0.36035788059235
480,1035204472,-3.02994370460510,1.70017302036285,41.15377807617188,-0.27189117670059,-0.17888432741165,9.77790260314941,-5.33686780929565,0.11226688325405,-0.31595832109451
481,1035221139,-3.02445030212402,1.70009458065033,41.15898513793945,-0.27767151594162,-0.18551424145699,9.79203987121582,-5.48776483535767,0.17145784199238,-0.36193311214447
482,1035237806,-3.01652073860168,1.70057415962219,41.16836547851562,-0.30605193972588,-0.18171073496342,9.77978038787842,-5.33684206008911,0.20946706831455,-0.39681759476662
483,1035254473,-3.01001143455505,1.70040035247803,41.17746353149414,-0.31514865159988,-0.16825141012669,9.78283882141113,-5.42267084121704,0.16508027911186,-0.31472891569138
484,1035271140,-3.00316405296326,1.70103538036346,41.18310928344727,-0.32656356692314,-0.19361966848373,9.79087734222412,-5.39753103256226,0.21621601283550,-0.41077652573586
485,1035287807,-2.99533772468567,1.69930505752563,41.18503189086914,-0.33613750338554,-0.17632837593555,9.78093814849854,-5.33851957321167,0.06668907403946,-0.34807661175728
486,1035304474,-2.98829913139343,1.69877779483795,41.19243621826172,-0.35754138231277,-0.19324328005314,9.78318309783936,-5.38259887695312,0.14260512590408,-0.36419981718063
487,1035321141,-2.98107218742371,1.69863069057465,41.19878768920898,-0.33668503165245,-0.16634291410446,9.78257751464844,-5.37017726898193,0.15984249114990,-0.31581744551659
488,1035337808,-2.97324419021606,1.69763112068176,41.20264434814453,-0.33086597919464,-0.17651782929897,9.75648880004883,-5.33037471771240,0.11016663163900,-0.35666969418526
489,1035354475,-2.96469759941101,1.69539785385132,41.20636749267578,-0.32781893014908,-0.18003179132938,9.78262424468994,-5.28819131851196,0.02921769209206,-0.28198307752609
490,1035371142,-2.95727944374084,1.69421756267548,41.20925903320312,-0.32523992657661,-0.17599706351757,9.78789329528809,-5.35119819641113,0.09438921511173,-0.34039279818535
491,1035387809,-2.94812941551208,1.69208300113678,41.21352767944336,-0.32452785968781,-0.17551019787788,9.76985836029053,-5.24388074874878,0.03992380201817,-0.39332145452499
492,1035404476,-2.94066786766052,1.69016003608704,41.21043777465820,-0.32002320885658,-0.18079786002636,9.78513431549072,-5.34656190872192,0.04034640640020,-0.28719523549080
493,1035421143,-2.93205022811890,1.68955612182617,41.21081542968750,-0.30208760499954,-0.18581880629063,9.77818107604980,-5.27305316925049,0.12440729141235,-0.32602405548096
494,1035437810,-2.92350244522095,1.68770742416382,41.20449447631836,-0.30814006924629,-0.17953242361546,9.78970432281494,-5.27637052536011,0.04252349212766,-0.30098772048950
495,1035454477,-2.91553616523743,1.68581402301788,41.21595001220703,-0.30079400539398,-0.19271883368492,9.75661849975586,-5.30620861053467,0.05411323532462,-0.34443959593773
496,1035471144,-2.90716791152954,1.68621742725372,41.21389389038086,-0.28343197703362,-0.16954281926155,9.75782871246338,-5.28039216995239,0.18085770308971,-0.33427140116692
497,1035487811,-2.89994096755981,1.68405377864838,41.23120498657227,-0.26447138190269,-0.18026687204838,9.77955341339111,-5.34845733642578,0.03592821955681,-0.28524866700172
498,1035504478,-2.89180493354797,1.68269109725952,41.23203659057617,-0.25260367989540,-0.18015938997269,9.78539752960205,-5.29102039337158,0.07427043467760,-0.29929724335670
499,1035521145,-2.88398694992065,1.68226218223572,41.23918533325195,-0.24924026429653,-0.19312836229801,9.78327560424805,-5.30505657196045,0.13876320421696,-0.38384479284286
500,1035537812,-2.87598156929016,1.68213951587677,41.23694610595703,-0.25705870985985,-0.17235124111176,9.77090263366699,-5.29427289962769,0.14697207510471,-0.32108083367348
501,1035554479,-2.86963987350464,1.68173921108246,41.24197387695312,-0.27245375514030,-0.17466910183430,9.76552677154541,-5.39155054092407,0.13741855323315,-0.31714928150177
502,1035571146,-2.86235141754150,1.68134069442749,41.24419784545898,-0.25313824415207,-0.17140777409077,9.78469467163086,-5.33107948303223,0.13557446002960,-0.33433544635773
503,1035587813,-2.85591197013855,1.68143022060394,41.24854660034180,-0.27520775794983,-0.16444210708141,9.77460002899170,-5.37924337387085,0.17017719149590,-0.38889047503471
504,1035604480,-2.85053706169128,1.68040204048157,41.24411010742188,-0.27882850170135,-0.19216214120388,9.80332279205322,-5.44148302078247,0.09437641501427,-0.36419981718063
505,1035621147,-2.84389352798462,1.68066513538361,41.24574661254883,-0.30035591125488,-0.17235223948956,9.79074478149414,-5.36564350128174,0.17330195009708,-0.32900798320770
506,1035637814,-2.83769202232361,1.68058061599731,41.25057983398438,-0.27865764498711,-0.18216100335121,9.78024291992188,-5.39023160934448,0.15397715568542,-0.30546990036964
507,1035654481,-2.83172798156738,1.68089807033539,41.25037002563477,-0.29954481124878,-0.16070076823235,9.77170848846436,-5.40247440338135,0.17293056845665,-0.30044981837273
508,1035671148,-2.82451415061951,1.67994785308838,41.25866317749023,-0.29664304852486,-0.18276128172874,9.76436233520508,-5.32356214523315,0.10850182175636,-0.35788628458977
509,1035687815,-2.81901216506958,1.67912161350250,41.26172637939453,-0.31104087829590,-0.18464159965515,9.78443050384521,-5.42412996292114,0.10976963490248,-0.36107510328293
510,1035704482,-2.81344866752625,1.67810988426208,41.25574874877930,-0.32151523232460,-0.18052257597446,9.79112243652344,-5.41797018051147,0.09202003479004,-0.38817328214645
511,1035721149,-2.80731582641602,1.67815852165222,41.25020217895508,-0.32741111516953,-0.18218211829662,9.75128555297852,-5.38373851776123,0.15147991478443,-0.33265775442123
512,1035737816,-2.80088591575623,1.67843520641327,41.25023269653320,-0.34542968869209,-0.18352782726288,9.76546573638916,-5.36262083053589,0.17173957824707,-0.36229163408279
513,1035754483,-2.79413294792175,1.67715847492218,41.25241470336914,-0.32373362779617,-0.18144658207893,9.77075576782227,-5.33959579467773,0.07911124080420,-0.37112811207771
514,1035771150,-2.78712749481201,1.67669117450714,41.24775695800781,-0.32738238573074,-0.17092046141624,9.81032276153564,-5.32500934600830,0.11573740839958,-0.31995388865471
515,1035787817,-2.77986216545105,1.67644155025482,41.24732208251953,-0.32292479276657,-0.18537649512291,9.77782726287842,-5.30633783340454,0.13585618138313,-0.36389249563217
516,1035804484,-2.77142047882080,1.67669475078583,41.25037384033203,-0.32708287239075,-0.18010227382183,9.78170108795166,-5.23416090011597,0.16819220781326,-0.35757893323898
517,1035821151,-2.76491332054138,1.67620790004730,41.25827026367188,-0.32024866342545,-0.19397681951523,9.78362655639648,-5.34598636627197,0.12494517117739,-0.38880082964897
518,1035837818,-2.75941014289856,1.67448794841766,41.25080108642578,-0.30003979802132,-0.19251765310764,9.75722694396973,-5.40639305114746,0.03878403455019,-0.34341511130333
519,1035854485,-2.75197958946228,1.67258965969086,41.24433517456055,-0.29559680819511,-0.16216012835503,9.75825214385986,-5.28778076171875,0.03051112964749,-0.40571796894073
520,1035871152,-2.74464750289917,1.67121124267578,41.23403549194336,-0.31058004498482,-0.18934085965157,9.77721214294434,-5.29349231719971,0.05734043940902,-0.34796136617661
521,1035887819,-2.73732495307922,1.67011189460754,41.23511886596680,-0.29388976097107,-0.18140420317650,9.76651382446289,-5.29152059555054,0.07679329067469,-0.33076244592667
522,1035904486,-2.72937679290771,1.66868770122528,41.22706985473633,-0.28888911008835,-0.18929985165596,9.79253959655762,-5.25330591201782,0.04747954756021,-0.31191146373749
523,1035921153,-2.72244715690613,1.66801273822784,41.22874069213867,-0.27671888470650,-0.17185837030411,9.76908779144287,-5.31208753585815,0.10326401889324,-0.30631512403488
524,1035937820,-2.71525716781616,1.66754937171936,41.23321151733398,-0.26488518714905,-0.17702198028564,9.77669715881348,-5.29356956481934,0.11811939626932,-0.32484593987465
525,1035954487,-2.70768666267395,1.66742610931396,41.23187637329102,-0.26096847653389,-0.17945285141468,9.77116584777832,-5.26780319213867,0.13755942881107,-0.36991143226624
526,1035971154,-2.70151162147522,1.66684782505035,41.22803497314453,-0.25296580791473,-0.18199311196804,9.78005409240723,-5.35003280639648,0.10362258553505,-0.36501944065094
527,1035987821,-2.69524812698364,1.66709661483765,41.22663116455078,-0.25744649767876,-0.17492516338825,9.76749420166016,-5.34260463714600,0.15970160067081,-0.37818434834480
528,1036004488,-2.68902277946472,1.66737627983093,41.21712493896484,-0.25133207440376,-0.18838283419609,9.76231288909912,-5.34667778015137,0.14622932672501,-0.28401926159859
529,1036021155,-2.68334031105042,1.66649270057678,41.21094131469727,-0.26216664910316,-0.17876829206944,9.77044296264648,-5.37720727920532,0.07774095237255,-0.27055978775024
530,1036037822,-2.67790365219116,1.66658437252045,41.20536422729492,-0.27903345227242,-0.18573836982250,9.78741455078125,-5.38815689086914,0.14001822471619,-0.34374806284904
531,1036054489,-2.67242455482483,1.66712236404419,41.20467376708984,-0.29920768737793,-0.19399002194405,9.76790904998779,-5.38266277313232,0.17615777254105,-0.36642816662788
532,1036071156,-2.66733264923096,1.66758000850677,41.19481277465820,-0.30223128199577,-0.16441898047924,9.76242160797119,-5.40527915954590,0.15920217335224,-0.31510028243065
533,1036087823,-2.66211509704590,1.66765820980072,41.19657516479492,-0.30597168207169,-0.19161719083786,9.78999519348145,-5.39486789703369,0.14717699587345,-0.35002318024635
534,1036104490,-2.65682291984558,1.66766881942749,41.19428634643555,-0.32148215174675,-0.17614391446114,9.76794528961182,-5.38908004760742,0.13977493345737,-0.36322659254074
535,1036121157,-2.65045142173767,1.66779983043671,41.18627929687500,-0.32054910063744,-0.18365125358105,9.77327251434326,-5.32226848602295,0.14044085144997,-0.33998301625252
536,1036137824,-2.64492583274841,1.66858828067780,41.16317367553711,-0.33175396919250,-0.18756385147572,9.77901172637939,-5.37412166595459,0.15600056946278,-0.30767261981964
537,1036154491,-2.63969850540161,1.66894614696503,41.15873718261719,-0.32270714640617,-0.17924575507641,9.76928329467773,-5.38669681549072,0.15276055037975,-0.32731753587723
538,1036171158,-2.63415002822876,1.66815710067749,41.15214538574219,-0.33776646852493,-0.19472485780716,9.79503536224365,-5.36847400665283,0.08008452504873,-0.30401000380516
539,1036187825,-2.62803554534912,1.66826581954956,41.15194702148438,-0.33954310417175,-0.16097101569176,9.78058528900146,-5.33045196533203,0.14333510398865,-0.35451826453209
540,1036204492,-2.62255358695984,1.66731178760529,41.14324951171875,-0.32551831007004,-0.17847046256065,9.79174232482910,-5.36587381362915,0.06919912248850,-0.39181029796600
541,1036221159,-2.61656618118286,1.66707825660706,41.14008331298828,-0.33260422945023,-0.17784550786018,9.78564929962158,-5.33513879776001,0.11532759666443,-0.35833454132080
542,1036237826,-2.61080408096313,1.66658627986908,41.13138580322266,-0.32155644893646,-0.18033696711063,9.78719997406006,-5.34827804565430,0.09158462285995,-0.32430806756020
543,1036254493,-2.60470795631409,1.66511094570160,41.12857437133789,-0.32333946228027,-0.17253023386002,9.77986907958984,-5.32307529449463,0.04503353312612,-0.39286041259766
544,1036271160,-2.59829640388489,1.66491663455963,41.12715911865234,-0.29202330112457,-0.18354177474976,9.76606082916260,-5.30496740341187,0.11550689488649,-0.33844625949860
545,1036287827,-2.59196257591248,1.66420507431030,41.11656570434570,-0.28741249442101,-0.17185890674591,9.77681350708008,-5.30610704421997,0.08274823427200,-0.40921413898468
546,1036304494,-2.58642077445984,1.66334748268127,41.10202407836914,-0.27682954072952,-0.17148257791996,9.76628017425537,-5.35484743118286,0.06164336577058,-0.34196802973747
547,1036321161,-2.58109760284424,1.66290259361267,41.10187149047852,-0.27274015545845,-0.18485537171364,9.79357719421387,-5.36272382736206,0.11157534271479,-0.42844930291176
548,1036337828,-2.57579588890076,1.66208148002625,41.09844589233398,-0.28684899210930,-0.16703113913536,9.78408336639404,-5.36449098587036,0.07543580234051,-0.34324860572815
549,1036354495,-2.56977343559265,1.66192626953125,41.09354019165039,-0.27332934737206,-0.17077526450157,9.77148914337158,-5.31955337524414,0.11275351047516,-0.36466085910797
550,1036371162,-2.56363821029663,1.66249155998230,41.08038711547852,-0.27474942803383,-0.17151275277138,9.75989627838135,-5.31015348434448,0.14685682952404,-0.41488736867905
551,1036387829,-2.55844211578369,1.66310107707977,41.07677841186523,-0.26459184288979,-0.18612177670002,9.74640464782715,-5.36945915222168,0.15253005921841,-0.27953702211380
552,1036404496,-2.55361795425415,1.66444456577301,41.07073974609375,-0.27283662557602,-0.18452347815037,9.78544712066650,-5.38905334472656,0.19356159865856,-0.27184042334557
553,1036421163,-2.54817152023315,1.66645300388336,41.06718063354492,-0.27040135860443,-0.18749409914017,9.76540470123291,-5.34847021102905,0.24098351597786,-0.34268513321877
554,1036437830,-2.54235816001892,1.66811132431030,41.06351470947266,-0.25403112173080,-0.18068282306194,9.77528667449951,-5.32513713836670,0.21934077143669,-0.34894746541977
555,1036454497,-2.53775310516357,1.66863775253296,41.04611206054688,-0.26726329326630,-0.17369654774666,9.77180004119873,-5.39806890487671,0.13403767347336,-0.30976003408432
556,1036471164,-2.53255867958069,1.67061471939087,41.03489685058594,-0.28032067418098,-0.19042639434338,9.78848266601562,-5.35952234268188,0.23160931468010,-0.32665160298347
557,1036487831,-2.52782297134399,1.67124867439270,41.03183364868164,-0.29236406087875,-0.18104140460491,9.77488613128662,-5.38478899002075,0.15794713795185,-0.30970880389214
558,1036504498,-2.52300572395325,1.67172789573669,41.02545166015625,-0.30107000470161,-0.18261757493019,9.76116657257080,-5.37999963760376,0.14382174611092,-0.29645425081253
559,1036521165,-2.51872730255127,1.67295074462891,41.01782226562500,-0.32916992902756,-0.16670076549053,9.77690124511719,-5.40914726257324,0.19180715084076,-0.34689849615097
560,1036537832,-2.51466512680054,1.67343401908875,41.01010513305664,-0.32462781667709,-0.18876940011978,9.79571151733398,-5.42077445983887,0.14493587613106,-0.33826693892479
561,1036554499,-2.50962781906128,1.67302751541138,41.00238418579102,-0.32488763332367,-0.17196072638035,9.78274822235107,-5.35890769958496,0.09534969180822,-0.40802317857742
562,1036571166,-2.50561189651489,1.67423844337463,40.99460601806641,-0.33279392123222,-0.19018478691578,9.79035282135010,-5.42060756683350,0.18336772918701,-0.31772556900978
563,1036587833,-2.50098252296448,1.67420744895935,40.98669433593750,-0.34066408872604,-0.19204470515251,9.77933502197266,-5.38311100006104,0.10629913210869,-0.32469224929810
564,1036604500,-2.49668741226196,1.67288315296173,40.98609924316406,-0.32516694068909,-0.17564065754414,9.78851699829102,-5.40005397796631,0.04099953174591,-0.34484943747520
565,1036621167,-2.49275708198547,1.67282032966614,40.97678375244141,-0.32197973132133,-0.18005917966366,9.78421306610107,-5.42232418060303,0.09555459767580,-0.31768715381622
566,1036637834,-2.48662734031677,1.67195534706116,40.96700668334961,-0.34049707651138,-0.18394899368286,9.77199840545654,-5.28651332855225,0.04974626749754,-0.41329938173294
567,1036654501,-2.48158502578735,1.67184424400330,40.96761322021484,-0.32634249329567,-0.18187816441059,9.78372478485107,-5.35063505172729,0.11564776301384,-0.32663878798485
568,1036671168,-2.47598600387573,1.67223834991455,40.94758987426758,-0.33739256858826,-0.16900254786015,9.77028846740723,-5.31846523284912,0.10889881849289,-0.33507820963860
569,1036687835,-2.46912050247192,1.67204451560974,40.94163131713867,-0.31997439265251,-0.18839241564274,9.76762199401855,-5.23823308944702,0.10083080083132,-0.36816978454590
570,1036704502,-2.46320652961731,1.67140793800354,40.93213272094727,-0.29446899890900,-0.18140202760696,9.78818035125732,-5.29513168334961,0.06099024042487,-0.30342087149620
571,1036721169,-2.45803713798523,1.67142033576965,40.90158462524414,-0.29026135802269,-0.18952485918999,9.78617668151855,-5.33866024017334,0.06273191422224,-0.40310552716255
572,1036737836,-2.45245385169983,1.67102813720703,40.88554000854492,-0.27030313014984,-0.17064197361469,9.77405166625977,-5.31303453445435,0.06884054094553,-0.36279109120369
573,1036754503,-2.44712018966675,1.67150902748108,40.87688827514648,-0.27179670333862,-0.17722642421722,9.77271080017090,-5.32521390914917,0.12699417769909,-0.36152327060699
574,1036771170,-2.44152069091797,1.67186605930328,40.86877059936523,-0.27311769127846,-0.17699515819550,9.77996921539307,-5.30786085128784,0.12708382308483,-0.36233007907867
575,1036787837,-2.43546748161316,1.67169582843781,40.86273574829102,-0.25948569178581,-0.18112589418888,9.78601837158203,-5.27893114089966,0.09623331576586,-0.36244532465935
576,1036804504,-2.43029785156250,1.67100393772125,40.86111450195312,-0.25917357206345,-0.18177096545696,9.78022289276123,-5.33087444305420,0.07351486384869,-0.31673949956894
577,1036821171,-2.42501258850098,1.67108225822449,40.85268020629883,-0.25573432445526,-0.15896277129650,9.76297664642334,-5.32493209838867,0.10348171740770,-0.28594022989273
578,1036837838,-2.41943073272705,1.67022597789764,40.83500671386719,-0.26469480991364,-0.19472104310989,9.79582786560059,-5.30354499816895,0.03661976382136,-0.39473015069962
579,1036854505,-2.41611456871033,1.67205429077148,40.82152938842773,-0.27646496891975,-0.16463778913021,9.76007938385010,-5.43926715850830,0.19967024028301,-0.32818835973740
580,1036871172,-2.41144466400146,1.67298495769501,40.80874633789062,-0.27649417519569,-0.18209825456142,9.77324390411377,-5.35729408264160,0.14748434722424,-0.33728086948395
581,1036887839,-2.40694952011108,1.67362403869629,40.79668045043945,-0.27052038908005,-0.18567670881748,9.78379154205322,-5.36618185043335,0.12767292559147,-0.32894396781921
582,1036904506,-2.40361261367798,1.67484176158905,40.78385925292969,-0.28857937455177,-0.19298666715622,9.80272579193115,-5.43272352218628,0.16141766309738,-0.37992605566978
583,1036921173,-2.39922714233398,1.67589819431305,40.78283691406250,-0.28843244910240,-0.18199124932289,9.78293418884277,-5.36797428131104,0.16627125442028,-0.32952022552490
584,1036937840,-2.39475321769714,1.67638993263245,40.75981521606445,-0.29039835929871,-0.17799881100655,9.77916336059570,-5.36411952972412,0.10400678217411,-0.34002140164375
585,1036954507,-2.39117121696472,1.67697191238403,40.74706649780273,-0.31141480803490,-0.18059362471104,9.79997253417969,-5.41683053970337,0.11884935200214,-0.27682211995125
586,1036971174,-2.38724088668823,1.67830097675323,40.74501800537109,-0.33255687355995,-0.18242183327675,9.77715396881104,-5.39158916473389,0.19326704740524,-0.32050454616547
587,1036987841,-2.38196253776550,1.67874336242676,40.73880386352539,-0.32839781045914,-0.18458350002766,9.78461551666260,-5.30760526657104,0.14068417251110,-0.42332679033279
588,1037004508,-2.37704062461853,1.67808890342712,40.74172210693359,-0.33841562271118,-0.18112939596176,9.77859592437744,-5.32978582382202,0.07657557725906,-0.33007091283798
589,1037021175,-2.37255978584290,1.67835617065430,40.73086547851562,-0.33127117156982,-0.18962687253952,9.77033042907715,-5.35692214965820,0.11362434923649,-0.29751715064049
590,1037037842,-2.36645913124084,1.67832207679749,40.72102355957031,-0.33482897281647,-0.20106534659863,9.77827739715576,-5.25726318359375,0.08788358420134,-0.32762488722801
591,1037054509,-2.36130690574646,1.67822563648224,40.69713592529297,-0.30417129397392,-0.18313093483448,9.77387428283691,-5.31096029281616,0.06863563507795,-0.40844577550888
592,1037071176,-2.35683202743530,1.67864620685577,40.68796539306641,-0.30957180261612,-0.18998625874519,9.77845859527588,-5.35059642791748,0.12362610548735,-0.38527908921242
593,1037087843,-2.35118389129639,1.67859447002411,40.68189620971680,-0.31300371885300,-0.17689172923565,9.77945518493652,-5.27884197235107,0.09633577615023,-0.37167876958847
594,1037104510,-2.34639978408813,1.67743241786957,40.68416976928711,-0.31557404994965,-0.18042756617069,9.78072261810303,-5.32812070846558,0.03668379411101,-0.38931310176849
595,1037121177,-2.34177637100220,1.67790186405182,40.67015075683594,-0.31657412648201,-0.17090763151646,9.79511356353760,-5.33841705322266,0.11683873832226,-0.37052613496780
596,1037137844,-2.33851003646851,1.67658579349518,40.67218399047852,-0.29409816861153,-0.18410585820675,9.77768898010254,-5.41745805740356,0.03346940129995,-0.39594680070877
597,1037154511,-2.33384609222412,1.67566525936127,40.67525863647461,-0.29545542597771,-0.17204031348228,9.77877521514893,-5.33018302917480,0.05570122599602,-0.42341643571854
598,1037171178,-2.32940316200256,1.67513620853424,40.66195678710938,-0.28072294592857,-0.19682879745960,9.74223232269287,-5.34795761108398,0.05620067194104,-0.31972336769104
599,1037187845,-2.32505893707275,1.67640674114227,40.65532302856445,-0.26271960139275,-0.16489450633526,9.77923870086670,-5.35037899017334,0.16869165003300,-0.38255134224892
600,1037204512,-2.32169699668884,1.67732667922974,40.64761734008789,-0.26906141638756,-0.16616788506508,9.77370834350586,-5.40704631805420,0.15295265614986,-0.39863607287407
601,1037221179,-2.31588101387024,1.67770671844482,40.63925170898438,-0.25115546584129,-0.20390957593918,9.77652931213379,-5.25918436050415,0.12360049039125,-0.39083698391914
602,1037237846,-2.31150579452515,1.67662787437439,40.63626861572266,-0.27265584468842,-0.17275168001652,9.75572299957275,-5.34364271163940,0.04654468223453,-0.37308746576309
603,1037254513,-2.30732560157776,1.67708098888397,40.63411712646484,-0.25994881987572,-0.16873508691788,9.77536392211914,-5.35497570037842,0.13069522380829,-0.36553165316582
604,1037271180,-2.30327725410461,1.67756259441376,40.62034606933594,-0.26256191730499,-0.17690569162369,9.79782104492188,-5.36245441436768,0.12176918983459,-0.35925656557083
605,1037287847,-2.30090928077698,1.67720115184784,40.62171173095703,-0.28326654434204,-0.19130291044712,9.76144504547119,-5.46096038818359,0.09446603804827,-0.32473060488701
606,1037304514,-2.29903936386108,1.67727553844452,40.62512207031250,-0.28661671280861,-0.17404749989510,9.75649642944336,-5.49356603622437,0.11557092517614,-0.21314890682697
607,1037321181,-2.29581379890442,1.67789900302887,40.61209106445312,-0.28363078832626,-0.20115576684475,9.77479743957520,-5.40814781188965,0.13321807980537,-0.35162401199341
608,1037337848,-2.29240131378174,1.67955541610718,40.59821701049805,-0.30314612388611,-0.18734896183014,9.78252983093262,-5.39530324935913,0.18221516907215,-0.36888694763184
609,1037354515,-2.28937411308289,1.68046665191650,40.58507156372070,-0.30152973532677,-0.14318369328976,9.78047180175781,-5.41951942443848,0.13341015577316,-0.30956789851189
610,1037371182,-2.28588891029358,1.68134462833405,40.58227920532227,-0.31250736117363,-0.19096298515797,9.76185035705566,-5.38939905166626,0.15653844177723,-0.36847713589668
611,1037387849,-2.28185653686523,1.68162763118744,40.57560729980469,-0.30909705162048,-0.16543899476528,9.76007366180420,-5.35397672653198,0.12316509336233,-0.35684898495674
612,1037404516,-2.27850127220154,1.68273591995239,40.56533813476562,-0.31158739328384,-0.18480612337589,9.78928375244141,-5.39333152770996,0.16191710531712,-0.43247044086456
613,1037421183,-2.27552056312561,1.68348014354706,40.55802154541016,-0.33903455734253,-0.17232041060925,9.77175331115723,-5.41853332519531,0.13740573823452,-0.29227933287621
614,1037437850,-2.27103614807129,1.68304371833801,40.55205535888672,-0.32059109210968,-0.19883015751839,9.77413272857666,-5.32292127609253,0.07599928975105,-0.42209732532501
615,1037454517,-2.26586890220642,1.68365240097046,40.54660415649414,-0.34650534391403,-0.15836100280285,9.77876663208008,-5.28245353698730,0.13809728622437,-0.36818256974220
616,1037471184,-2.26191735267639,1.68424093723297,40.54629135131836,-0.32176196575165,-0.17672951519489,9.79399490356445,-5.35530853271484,0.14197760820389,-0.34126365184784
617,1037487851,-2.25745439529419,1.68412697315216,40.54900360107422,-0.34583407640457,-0.16594819724560,9.76590251922607,-5.32105207443237,0.11618562787771,-0.38871118426323
618,1037504518,-2.25418043136597,1.68274915218353,40.55579376220703,-0.31643748283386,-0.17560100555420,9.77505779266357,-5.39467573165894,0.02573436126113,-0.32319387793541
619,1037521185,-2.24995279312134,1.68032038211823,40.54595565795898,-0.30753144621849,-0.17091120779514,9.76294612884521,-5.33410120010376,-0.05227552726865,-0.42464578151703
620,1037537852,-2.24399757385254,1.68047821521759,40.54278945922852,-0.29672428965569,-0.20096689462662,9.79922485351562,-5.23419904708862,0.10732362419367,-0.25457745790482
621,1037554519,-2.23923873901367,1.68155562877655,40.53480148315430,-0.30645835399628,-0.18303222954273,9.77237796783447,-5.30163669586182,0.15199215710163,-0.35431331396103
622,1037571186,-2.23510241508484,1.68160581588745,40.52594375610352,-0.29752501845360,-0.17184290289879,9.76485919952393,-5.33849382400513,0.09257070720196,-0.37230625748634
623,1037587853,-2.23015952110291,1.68222129344940,40.51481628417969,-0.28981643915176,-0.17793747782707,9.78113746643066,-5.29050827026367,0.11626245081425,-0.31209078431129
624,1037604520,-2.22501015663147,1.68190467357635,40.51371765136719,-0.28888142108917,-0.17881701886654,9.80011367797852,-5.27537155151367,0.09268596768379,-0.35235393047333
625,1037621187,-2.22056603431702,1.68293654918671,40.50395965576172,-0.28652012348175,-0.18512099981308,9.79302310943604,-5.31934928894043,0.14283564686775,-0.27816680073738
626,1037637854,-2.21703267097473,1.68260788917542,40.50846481323242,-0.26170483231544,-0.18148273229599,9.78619575500488,-5.36933135986328,0.09815426915884,-0.33883044123650
627,1037654521,-2.21160078048706,1.68297827243805,40.49794387817383,-0.25810083746910,-0.19768381118774,9.78252410888672,-5.25509881973267,0.11106307059526,-0.39393615722656
628,1037671188,-2.20872735977173,1.68306636810303,40.49242019653320,-0.24935649335384,-0.18043239414692,9.77445125579834,-5.40913391113281,0.09481181204319,-0.33858713507652
629,1037687855,-2.20530748367310,1.68475759029388,40.48949813842773,-0.26334989070892,-0.18427540361881,9.77858734130859,-5.37309694290161,0.21029949188232,-0.36959126591682
630,1037704522,-2.20222878456116,1.68519830703735,40.48835372924805,-0.25403255224228,-0.19405654072762,9.77976322174072,-5.39600753784180,0.12430485337973,-0.26069891452789
631,1037721189,-2.19980359077454,1.68624007701874,40.48527526855469,-0.28061580657959,-0.17850133776665,9.78007411956787,-5.43132686614990,0.17656756937504,-0.36909180879593
632,1037737856,-2.19682025909424,1.68746817111969,40.48104858398438,-0.30187821388245,-0.17411297559738,9.77378654479980,-5.39838886260986,0.16486257314682,-0.32766330242157
633,1037754523,-2.19429802894592,1.68800222873688,40.47223281860352,-0.30639639496803,-0.18559728562832,9.77941608428955,-5.42489814758301,0.12319070845842,-0.36266306042671
634,1037771190,-2.19084072113037,1.69040822982788,40.46417236328125,-0.29542711377144,-0.20285347104073,9.77123832702637,-5.36580991744995,0.23744896054268,-0.39088824391365
635,1037787857,-2.18731617927551,1.69195246696472,40.45655822753906,-0.31753003597260,-0.14555503427982,9.78861618041992,-5.36616897583008,0.17203412950039,-0.25765100121498
636,1037804524,-2.18435955047607,1.69219875335693,40.44626617431641,-0.31361180543900,-0.19005382061005,9.78366756439209,-5.39434289932251,0.10184251517057,-0.39499911665916
637,1037821191,-2.18029761314392,1.69206142425537,40.44113922119141,-0.32789272069931,-0.18791449069977,9.77324390411377,-5.32993936538696,0.07713905721903,-0.27808994054794
638,1037837858,-2.17795038223267,1.69282150268555,40.43582534790039,-0.31150177121162,-0.16416339576244,9.75216674804688,-5.42920160293579,0.14282283186913,-0.39679202437401
639,1037854525,-2.17407393455505,1.69345641136169,40.41767501831055,-0.32669305801392,-0.19709342718124,9.77199459075928,-5.33899354934692,0.10661927610636,-0.36887419223785
640,1037871192,-2.17051172256470,1.69415760040283,40.40970993041992,-0.33406737446785,-0.19923196732998,9.81071662902832,-5.35994434356689,0.11216442286968,-0.24670155346394
641,1037887859,-2.16708517074585,1.69526791572571,40.40168380737305,-0.34040585160255,-0.15916186571121,9.80580329895020,-5.36098194122314,0.16693718731403,-0.42907685041428
642,1037904526,-2.16247844696045,1.69486892223358,40.39874649047852,-0.34024208784103,-0.18376614153385,9.78553009033203,-5.29271173477173,0.08173654228449,-0.29271480441093
643,1037921193,-2.15775847434998,1.69540250301361,40.38668441772461,-0.32381105422974,-0.19345156848431,9.79504776000977,-5.28273487091064,0.12048855423927,-0.41554045677185
644,1037937860,-2.15323829650879,1.69599080085754,40.37337112426758,-0.31770777702332,-0.17338737845421,9.78163623809814,-5.29673242568970,0.10939826071262,-0.32462820410728
645,1037954527,-2.14913535118103,1.69559133052826,40.36585998535156,-0.29786676168442,-0.16386109590530,9.78039455413818,-5.32080888748169,0.04158863052726,-0.33899691700935
646,1037971194,-2.14512491226196,1.69533514976501,40.36500549316406,-0.30112358927727,-0.17621499300003,9.78462123870850,-5.32368993759155,0.08329891413450,-0.40794634819031
647,1037987861,-2.14040112495422,1.69451510906219,40.36352920532227,-0.28892371058464,-0.19637688994408,9.77970314025879,-5.27998161315918,0.05570122227073,-0.35161116719246
648,1038004528,-2.13703060150146,1.69343173503876,40.35087203979492,-0.29558306932449,-0.14426796138287,9.77676296234131,-5.36021327972412,0.01260785385966,-0.42625939846039
649,1038021195,-2.13273787498474,1.69270026683807,40.34613800048828,-0.28225830197334,-0.21335373818874,9.77775573730469,-5.30742597579956,0.04564823955297,-0.28273862600327
650,1038037862,-2.12794876098633,1.69163203239441,40.34383010864258,-0.28574740886688,-0.16482730209827,9.76892375946045,-5.27292490005493,0.05216667056084,-0.38671338558197
651,1038054529,-2.12463521957397,1.69072902202606,40.33805084228516,-0.29262238740921,-0.18779344856739,9.76449108123779,-5.36388921737671,0.03606908768415,-0.30121821165085
652,1038071196,-2.12053370475769,1.69148492813110,40.33122253417969,-0.28913378715515,-0.17374387383461,9.77330589294434,-5.31541681289673,0.13763625919819,-0.30331844091415
653,1038087863,-2.11716818809509,1.69178283214569,40.32353210449219,-0.27452847361565,-0.21154072880745,9.78814506530762,-5.35688352584839,0.12138500064611,-0.36094704270363
654,1038104530,-2.11270785331726,1.69171321392059,40.32537078857422,-0.26451867818832,-0.16257821023464,9.78038120269775,-5.29066181182861,0.10075397789478,-0.29948934912682
655,1038121197,-2.10963916778564,1.69267153739929,40.31418991088867,-0.26544389128685,-0.15988193452358,9.79379367828369,-5.37377595901489,0.14327105879784,-0.34545135498047
656,1038137864,-2.10668110847473,1.69381141662598,40.30153656005859,-0.27436530590057,-0.19517411291599,9.78030872344971,-5.37873077392578,0.15273493528366,-0.39772680401802
657,1038154531,-2.10295867919922,1.69416737556458,40.30527496337891,-0.28203645348549,-0.14628101885319,9.77607727050781,-5.33329486846924,0.13152763247490,-0.33021178841591
658,1038171198,-2.10002326965332,1.69479632377625,40.28906631469727,-0.27702289819717,-0.18413324654102,9.78116989135742,-5.37814235687256,0.10417326539755,-0.44988712668419
659,1038187865,-2.09723162651062,1.69625627994537,40.28046798706055,-0.30564796924591,-0.18298840522766,9.78052520751953,-5.38881063461304,0.16511870920658,-0.34323582053185
660,1038204532,-2.09464287757874,1.69703364372253,40.27548980712891,-0.29961344599724,-0.18986748158932,9.79060554504395,-5.40217971801758,0.12321630865335,-0.25327119231224
661,1038221199,-2.09103393554688,1.69801962375641,40.26574325561523,-0.32391664385796,-0.14743795990944,9.77649116516113,-5.33540725708008,0.15236356854439,-0.37841486930847
662,1038237866,-2.08727884292603,1.69952547550201,40.25806045532227,-0.32994648814201,-0.18511894345284,9.79770278930664,-5.32922267913818,0.17574796080589,-0.35104769468307
663,1038254533,-2.08471393585205,1.69939887523651,40.24822235107422,-0.32655432820320,-0.20170864462852,9.79726409912109,-5.40029764175415,0.06808497011662,-0.29731222987175
664,1038271200,-2.08100819587708,1.70190989971161,40.23471832275391,-0.32431918382645,-0.16282431781292,9.76946163177490,-5.33024740219116,0.21986585855484,-0.33373352885246
665,1038287867,-2.07707428932190,1.70294904708862,40.22222137451172,-0.32197585701942,-0.19113764166832,9.79735374450684,-5.31605720520020,0.12448414415121,-0.32772737741470
666,1038304534,-2.07401037216187,1.70339500904083,40.21902465820312,-0.33260571956635,-0.19129580259323,9.78722953796387,-5.36556673049927,0.12733994424343,-0.34578427672386
667,1038321201,-2.07047080993652,1.70383286476135,40.20895385742188,-0.31286922097206,-0.17083252966404,9.79433822631836,-5.33583021163940,0.09429956972599,-0.39661270380020
668,1038337868,-2.06673502922058,1.70431220531464,40.20304870605469,-0.33614742755890,-0.15408766269684,9.80226993560791,-5.32497072219849,0.12034767866135,-0.32589599490166
669,1038354535,-2.06401276588440,1.70592379570007,40.18515777587891,-0.32290005683899,-0.20095686614513,9.79688167572021,-5.38597965240479,0.15317036211491,-0.33916339278221
670,1038371202,-2.06031966209412,1.70725953578949,40.17794036865234,-0.32525381445885,-0.17137484252453,9.77690792083740,-5.32776260375977,0.15585970878601,-0.28404489159584
671,1038387869,-2.05644726753235,1.70776116847992,40.16869354248047,-0.31690046191216,-0.16971771419048,9.77076244354248,-5.31313753128052,0.10930860787630,-0.38283306360245
672,1038404536,-2.05171108245850,1.70836448669434,40.16159820556641,-0.30570632219315,-0.18343070149422,9.75992965698242,-5.26350021362305,0.11083255708218,-0.29526323080063
673,1038421203,-2.04681634902954,1.70943820476532,40.14852523803711,-0.29251801967621,-0.16401116549969,9.76954650878906,-5.25132083892822,0.13122028112411,-0.36399492621422
674,1038437870,-2.04174947738647,1.70886576175690,40.13993453979492,-0.28522527217865,-0.18512310087681,9.77125263214111,-5.24263858795166,0.04090989008546,-0.30076995491982
675,1038454537,-2.03855609893799,1.70921409130096,40.13536834716797,-0.28251728415489,-0.17145116627216,9.77824115753174,-5.35333681106567,0.11165218055248,-0.35135501623154
676,1038471204,-2.03526306152344,1.70971691608429,40.12444686889648,-0.25408381223679,-0.19845378398895,9.76575756072998,-5.34803533554077,0.09705293923616,-0.31438314914703
677,1038487871,-2.03054094314575,1.70958316326141,40.11640930175781,-0.27647763490677,-0.14003822207451,9.77371311187744,-5.26029825210571,0.07465462386608,-0.32552462816238
678,1038504538,-2.02731800079346,1.71145153045654,40.10636901855469,-0.26934555172920,-0.18232196569443,9.76000976562500,-5.34926414489746,0.17828363180161,-0.33468115329742
679,1038521205,-2.02416181564331,1.71238732337952,40.09657669067383,-0.27025139331818,-0.19077330827713,9.79794502258301,-5.35550117492676,0.12424082309008,-0.29623651504517
680,1038537872,-2.02159667015076,1.71320390701294,40.09996032714844,-0.28705561161041,-0.17047531902790,9.76473903656006,-5.38358545303345,0.15411804616451,-0.42185404896736
681,1038554539,-2.01876688003540,1.71328604221344,40.09415054321289,-0.28682824969292,-0.16307717561722,9.78648567199707,-5.37336587905884,0.07961068302393,-0.27159708738327
682,1038571206,-2.01558732986450,1.71577572822571,40.08649826049805,-0.28476715087891,-0.17533425986767,9.78910827636719,-5.34686946868896,0.23100738227367,-0.39930203557014
683,1038587873,-2.01269316673279,1.71828234195709,40.07210922241211,-0.29552620649338,-0.19086505472660,9.77222442626953,-5.36758995056152,0.20727720856667,-0.31186026334763
684,1038604540,-2.00965213775635,1.71945011615753,40.05740737915039,-0.29614558815956,-0.15607912838459,9.78435993194580,-5.35793399810791,0.12060381472111,-0.32402628660202
685,1038621207,-2.00616073608398,1.72130787372589,40.04435348510742,-0.29057934880257,-0.20227511227131,9.78473377227783,-5.32903003692627,0.17106083035469,-0.33970126509666
686,1038637874,-2.00294566154480,1.72331845760345,40.02774047851562,-0.30476042628288,-0.16612878441811,9.79085540771484,-5.34693384170532,0.17121452093124,-0.31046438217163
687,1038654541,-1.99992930889130,1.72499668598175,40.00663757324219,-0.31825530529022,-0.17582498490810,9.78966140747070,-5.35583353042603,0.15121099352837,-0.35599094629288
