sep=,
DeviceTag:,Xsens DOT
FirmwareVersion:,3.0.0
AppVersion:,2023.6.0
StartTime: ,2025-02-06_09:46:40_000 PST
© Movella Technologies B. V. 2005-2025

PacketCounter,SampleTimeFine,Euler_X,Euler_Y,Euler_Z,Acc_X,Acc_Y,Acc_Z,Gyr_X,Gyr_Y,Gyr_Z
0,928414532,-1.20746338367462,1.79115629196167,34.30801773071289,0.00000000000000,0.00000000000000,0.00000000000000,0.00000000000000,0.00000000000000,0.00000000000000
1,928431199,-1.27220332622528,1.78725337982178,34.28578186035156,-0.29084026813507,-0.19114856421947,9.77783393859863,-5.30535125732422,0.13782835006714,-0.40479591488838
2,928447866,-1.33402681350708,1.77152049541473,34.29137420654297,-0.29207244515419,-0.18422949314117,9.77214050292969,-5.34386014938354,0.09341593086720,-0.34178870916367
3,928464533,-1.38376951217651,1.75679922103882,34.31027221679688,-0.29414463043213,-0.18794479966164,9.78015899658203,-5.37583732604980,0.08007171005011,-0.27299299836159
4,928481200,-1.43326830863953,1.74915540218353,34.29883193969727,-0.30361294746399,-0.19229260087013,9.78451442718506,-5.37996101379395,0.14858569204807,-0.39238658547401
5,928497867,-1.48496901988983,1.74780428409576,34.31514358520508,-0.28747826814651,-0.17797492444515,9.77717781066895,-5.33572816848755,0.09955018013716,-0.24835358560085
6,928514534,-1.53585326671600,1.74398350715637,34.32836151123047,-0.30784186720848,-0.18896043300629,9.78150367736816,-5.37670803070068,0.06004257127643,-0.36660742759705
7,928531201,-1.58988332748413,1.74572908878326,34.37342453002930,-0.29804265499115,-0.19032865762711,9.76673030853271,-5.40301227569580,0.14045366644859,-0.25547388195992
8,928547868,-1.64513731002808,1.74722301959991,34.39690017700195,-0.30845263600349,-0.19626389443874,9.76654911041260,-5.34072208404541,0.10992331057787,-0.33845904469490
9,928564535,-1.70389747619629,1.74990093708038,34.43257141113281,-0.30327671766281,-0.17247611284256,9.77236461639404,-5.40880060195923,0.09473498165607,-0.28531268239021
10,928581202,-1.76091074943542,1.75395667552948,34.45384597778320,-0.29448541998863,-0.20256412029266,9.77180194854736,-5.36706542968750,0.17766891419888,-0.30016806721687
11,928597869,-1.82021808624268,1.75527966022491,34.48454284667969,-0.29940599203110,-0.18926967680454,9.76195430755615,-5.37358331680298,0.06009379774332,-0.34963899850845
12,928614536,-1.87933409214020,1.75817453861237,34.50909805297852,-0.31529548764229,-0.17201638221741,9.75224876403809,-5.32616186141968,0.16080296039581,-0.33632040023804
13,928631203,-1.93771183490753,1.76161479949951,34.54634857177734,-0.30199718475342,-0.19072000682354,9.78759670257568,-5.31636381149292,0.14593477547169,-0.32416713237762
14,928647870,-1.99781823158264,1.76512825489044,34.56681060791016,-0.30062326788902,-0.17819795012474,9.76688766479492,-5.37788629531860,0.16377402842045,-0.31169378757477
15,928664537,-2.05717563629150,1.76734149456024,34.59348297119141,-0.29364094138145,-0.19776375591755,9.76647663116455,-5.33693122863770,0.09816709160805,-0.24201443791389
16,928681204,-2.11795330047607,1.76913714408875,34.62914276123047,-0.29488390684128,-0.18786425888538,9.77507781982422,-5.36811542510986,0.10515934973955,-0.33701193332672
17,928697871,-2.17792868614197,1.77111268043518,34.65816116333008,-0.30800855159760,-0.20438703894615,9.76281356811523,-5.30262327194214,0.13237285614014,-0.28742575645447
18,928714538,-2.23938632011414,1.77247977256775,34.69568634033203,-0.28459540009499,-0.17279092967510,9.79689788818359,-5.34526920318604,0.08530952036381,-0.32175961136818
19,928731205,-2.30128765106201,1.77360725402832,34.72875595092773,-0.28484982252121,-0.18414892256260,9.77933502197266,-5.38717079162598,0.10316156595945,-0.31165537238121
20,928747872,-2.36328673362732,1.77505278587341,34.75972747802734,-0.30257907509804,-0.19344860315323,9.76181221008301,-5.38726043701172,0.14544813334942,-0.34130203723907
21,928764539,-2.42534160614014,1.77598679065704,34.79198837280273,-0.29014289379120,-0.18956272304058,9.76217460632324,-5.37336540222168,0.10503128916025,-0.27885827422142
22,928781206,-2.48600792884827,1.77641463279724,34.82245254516602,-0.28678637742996,-0.18295338749886,9.77090358734131,-5.27917528152466,0.08418255299330,-0.25298950076103
23,928797873,-2.54876422882080,1.77636265754700,34.85488510131836,-0.31174543499947,-0.17482885718346,9.75774192810059,-5.40136051177979,0.06761113554239,-0.29434120655060
24,928814540,-2.61088371276855,1.77785801887512,34.88646697998047,-0.29371541738510,-0.19699394702911,9.76726245880127,-5.36790990829468,0.14480780065060,-0.30019363760948
25,928831207,-2.67359781265259,1.77990543842316,34.91729354858398,-0.29882606863976,-0.18050177395344,9.77466392517090,-5.38606929779053,0.18315003812313,-0.33138996362686
26,928847874,-2.73607373237610,1.78134584426880,34.94986343383789,-0.29106590151787,-0.17786851525307,9.76138782501221,-5.37216186523438,0.14588356018066,-0.35103490948677
27,928864541,-2.79898595809937,1.78165447711945,34.97930908203125,-0.30700945854187,-0.17514157295227,9.78845882415771,-5.40088653564453,0.08232562243938,-0.33359262347221
28,928881208,-2.86153912544250,1.78280174732208,35.00738525390625,-0.28346306085587,-0.18849515914917,9.76445007324219,-5.38217687606812,0.12671245634556,-0.33749860525131
29,928897875,-2.92330980300903,1.78384935855865,35.03442001342773,-0.29120108485222,-0.18397313356400,9.77697849273682,-5.32814645767212,0.13301317393780,-0.39309090375900
30,928914542,-2.98526549339294,1.78563582897186,35.06430435180664,-0.30446854233742,-0.18424873054028,9.77097511291504,-5.33982610702515,0.17499239742756,-0.29861849546432
31,928931209,-3.04753947257996,1.78612017631531,35.09032440185547,-0.29388219118118,-0.18387916684151,9.75404644012451,-5.35619211196899,0.09428676217794,-0.35066348314285
32,928947876,-3.10925340652466,1.78684639930725,35.11293029785156,-0.31260398030281,-0.16807262599468,9.78927516937256,-5.31858015060425,0.11361154168844,-0.39850804209709
33,928964543,-3.17106509208679,1.78734755516052,35.13468551635742,-0.29634010791779,-0.19842933118343,9.78269481658936,-5.33343505859375,0.08965086191893,-0.36145925521851
34,928981210,-3.23256158828735,1.78864407539368,35.15906906127930,-0.29400223493576,-0.17954266071320,9.77875804901123,-5.30822038650513,0.13613793253899,-0.32082474231720
35,928997877,-3.29569792747498,1.78977429866791,35.18337631225586,-0.30437529087067,-0.20281603932381,9.75598144531250,-5.40917158126831,0.13063117861748,-0.36449435353279
36,929014544,-3.35686182975769,1.79045963287354,35.20634841918945,-0.29108789563179,-0.18790498375893,9.77485179901123,-5.28296566009521,0.10112534463406,-0.35709229111671
37,929031211,-3.41853928565979,1.79198551177979,35.22813034057617,-0.29700189828873,-0.18558740615845,9.79117298126221,-5.31435394287109,0.15454064309597,-0.36289355158806
38,929047878,-3.48094582557678,1.79226732254028,35.24886322021484,-0.29190823435783,-0.17777404189110,9.79136657714844,-5.36109733581543,0.07813795655966,-0.33411774039268
39,929064545,-3.54295516014099,1.79251313209534,35.26884841918945,-0.30403122305870,-0.17849238216877,9.76262569427490,-5.34233570098877,0.08094254881144,-0.37010356783867
40,929081212,-3.60459256172180,1.79370975494385,35.28755950927734,-0.29429557919502,-0.18835397064686,9.77920246124268,-5.32536792755127,0.13560006022453,-0.36014020442963
41,929097879,-3.66663885116577,1.79524731636047,35.30453872680664,-0.29751569032669,-0.17689524590969,9.76505756378174,-5.35261917114258,0.15536023676395,-0.33902251720428
42,929114546,-3.72863841056824,1.79594469070435,35.31975555419922,-0.30244085192680,-0.19500383734703,9.76638889312744,-5.35506582260132,0.10911652445793,-0.40292623639107
43,929131213,-3.78882169723511,1.79629623889923,35.33575820922852,-0.29453942179680,-0.19114169478416,9.76649856567383,-5.25027132034302,0.07927772402763,-0.29151099920273
44,929147880,-3.84995174407959,1.79792690277100,35.35171127319336,-0.29128894209862,-0.19050891697407,9.78105926513672,-5.30960321426392,0.16058523952961,-0.34531044960022
45,929164547,-3.91140389442444,1.80011606216431,35.36556625366211,-0.29825761914253,-0.18293066322803,9.77136516571045,-5.33527946472168,0.19313900172710,-0.29412347078323
46,929181214,-3.97202730178833,1.80098211765289,35.38050842285156,-0.29684519767761,-0.19783881306648,9.76649284362793,-5.29260873794556,0.11267668753862,-0.28884726762772
47,929197881,-4.03318595886230,1.80223143100739,35.37628936767578,-0.29278436303139,-0.17686423659325,9.77624702453613,-5.32806921005249,0.13793079555035,-0.30846658349037
48,929214548,-4.09494400024414,1.80317890644073,35.37274932861328,-0.31410908699036,-0.20072479546070,9.75230503082275,-5.37577295303345,0.11662102490664,-0.26830583810806
49,929231215,-4.15526199340820,1.80322456359863,35.36996841430664,-0.29983511567116,-0.19240872561932,9.77129173278809,-5.29463291168213,0.05616225674748,-0.22795309126377
50,929247882,-4.21557283401489,1.80452597141266,35.36519622802734,-0.31119620800018,-0.18348391354084,9.76921272277832,-5.29899930953979,0.13853271305561,-0.33952194452286
51,929264549,-4.27683591842651,1.80641734600067,35.36130523681641,-0.28514152765274,-0.19095088541508,9.78612709045410,-5.36736059188843,0.16742384433746,-0.28755384683609
52,929281216,-4.33824062347412,1.80761647224426,35.35687255859375,-0.28742626309395,-0.18341812491417,9.75463390350342,-5.38464736938477,0.13192462921143,-0.32269439101219
53,929297883,-4.39996528625488,1.80788469314575,35.35181808471680,-0.27681389451027,-0.18954169750214,9.77717971801758,-5.41417980194092,0.08021258562803,-0.36265024542809
54,929314550,-4.46117734909058,1.80763375759125,35.34645843505859,-0.30186101794243,-0.17149847745895,9.77053833007812,-5.39295959472656,0.05417726933956,-0.38508698344231
55,929331217,-4.52180433273315,1.80846786499023,35.34076309204102,-0.29022306203842,-0.18389911949635,9.77880573272705,-5.37195730209351,0.12046295404434,-0.39941731095314
56,929347884,-4.58127832412720,1.80881571769714,35.33526992797852,-0.29513084888458,-0.18288455903530,9.76338768005371,-5.31628704071045,0.09150777757168,-0.38997897505760
57,929364551,-4.64067411422729,1.80944585800171,35.33060836791992,-0.30286476016045,-0.18331165611744,9.79291534423828,-5.32643032073975,0.10474955290556,-0.33854871988297
58,929381218,-4.70009469985962,1.80927550792694,35.32739639282227,-0.29303130507469,-0.18131625652313,9.76664829254150,-5.34539651870728,0.04850405082107,-0.25829130411148
59,929397885,-4.75965547561646,1.80977070331573,35.32305145263672,-0.30249083042145,-0.18270738422871,9.78145599365234,-5.36618137359619,0.09493988752365,-0.32261759042740
60,929414552,-4.81780242919922,1.81154394149780,35.31911849975586,-0.29454880952835,-0.19569684565067,9.75100994110107,-5.29852533340454,0.16832026839256,-0.29117801785469
61,929431219,-4.87631082534790,1.81362783908844,35.31410598754883,-0.29615366458893,-0.18659432232380,9.77695941925049,-5.33154010772705,0.19345915317535,-0.35482558608055
62,929447886,-4.93544673919678,1.81467092037201,35.30907821655273,-0.29666373133659,-0.19679680466652,9.78820323944092,-5.38489151000977,0.13041347265244,-0.36126717925072
63,929464553,-4.99349975585938,1.81471133232117,35.30426406860352,-0.29419222474098,-0.19678492844105,9.75720119476318,-5.33570241928101,0.07030045986176,-0.35357055068016
64,929481220,-5.05181455612183,1.81565320491791,35.29972076416016,-0.29734185338020,-0.18972285091877,9.76101493835449,-5.36810207366943,0.12334436178207,-0.33369508385658
65,929497887,-5.11075925827026,1.81669199466705,35.29478836059570,-0.28968721628189,-0.17259228229523,9.77788543701172,-5.42249107360840,0.13174535334110,-0.35631111264229
66,929514554,-5.16811752319336,1.81624186038971,35.29003906250000,-0.29349523782730,-0.19076292216778,9.75334262847900,-5.34937953948975,0.04236981272697,-0.35351935029030
67,929531221,-5.22599601745605,1.81690502166748,35.28445816040039,-0.29288697242737,-0.19319787621498,9.75994491577148,-5.39657068252563,0.11435431987047,-0.39820072054863
68,929547888,-5.28221702575684,1.81747961044312,35.27899932861328,-0.29616835713387,-0.18267203867435,9.78635311126709,-5.31633949279785,0.10934703797102,-0.39182317256927
69,929564555,-5.33901500701904,1.81807684898376,35.27185440063477,-0.30014356970787,-0.19238378107548,9.77561569213867,-5.36902427673340,0.12045013159513,-0.49308288097382
70,929581222,-5.39550352096558,1.81891417503357,35.26624679565430,-0.29507955908775,-0.19169381260872,9.77249050140381,-5.37431335449219,0.12595684826374,-0.40004479885101
71,929597889,-5.45156717300415,1.82064247131348,35.26190948486328,-0.29283568263054,-0.19477637112141,9.77816772460938,-5.37317371368408,0.17244392633438,-0.32109361886978
72,929614556,-5.50691699981689,1.82188570499420,35.25778579711914,-0.29802888631821,-0.18218564987183,9.77824592590332,-5.35197925567627,0.14316859841347,-0.31043875217438
73,929631223,-5.56136035919189,1.82262814044952,35.25313568115234,-0.29475224018097,-0.19034431874752,9.77232551574707,-5.32005262374878,0.11659540981054,-0.34560498595238
74,929647890,-5.61616945266724,1.82274186611176,35.24912643432617,-0.29790711402893,-0.18068300187588,9.76206493377686,-5.36700105667114,0.07582000643015,-0.31111750006676
75,929664557,-5.67036294937134,1.82324302196503,35.24412155151367,-0.30838176608086,-0.17889758944511,9.77573204040527,-5.35332441329956,0.10559477657080,-0.36929678916931
76,929681224,-5.72414779663086,1.82432174682617,35.23823547363281,-0.29959267377853,-0.18322175741196,9.76202011108398,-5.35282468795776,0.14397540688515,-0.42035570740700
77,929697891,-5.77767848968506,1.82511258125305,35.23398590087891,-0.29647642374039,-0.18557967245579,9.78917407989502,-5.36624526977539,0.11760712414980,-0.32511484622955
78,929714558,-5.83018016815186,1.82607567310333,35.22934341430664,-0.28864192962646,-0.18109008669853,9.76640224456787,-5.33040046691895,0.13061837852001,-0.34726983308792
79,929731225,-5.88295936584473,1.82623767852783,35.22554779052734,-0.28989014029503,-0.19011397659779,9.76598739624023,-5.37650299072266,0.07927771657705,-0.30374103784561
80,929747892,-5.93575239181519,1.82717633247375,35.22065353393555,-0.28565469384193,-0.20342989265919,9.77976608276367,-5.40237236022949,0.13310281932354,-0.36446878314018
81,929764559,-5.98762702941895,1.82741844654083,35.21564865112305,-0.30262249708176,-0.19079610705376,9.76825046539307,-5.37371158599854,0.09382572770119,-0.37762084603310
82,929781226,-6.03873825073242,1.82758557796478,35.21130752563477,-0.29480770230293,-0.18220993876457,9.77196884155273,-5.35675621032715,0.08551441133022,-0.33707600831985
83,929797893,-6.09044027328491,1.82869732379913,35.20594406127930,-0.29705899953842,-0.18480324745178,9.77151584625244,-5.42046785354614,0.14899550378323,-0.39464053511620
84,929814560,-6.14061784744263,1.82856011390686,35.20139694213867,-0.30475825071335,-0.19410446286201,9.78214168548584,-5.36132860183716,0.06945525109768,-0.35550433397293
85,929831227,-6.19089794158936,1.82922542095184,35.19630813598633,-0.30056864023209,-0.19845078885555,9.79444026947021,-5.39546966552734,0.12116728723049,-0.38166764378548
86,929847894,-6.24018239974976,1.82964420318604,35.19255828857422,-0.30748802423477,-0.18550854921341,9.78874969482422,-5.36866521835327,0.09797498583794,-0.30435571074486
87,929864561,-6.28872776031494,1.82972955703735,35.18880844116211,-0.30215549468994,-0.20036466419697,9.76813888549805,-5.35652494430542,0.07681889086962,-0.30660966038704
88,929881228,-6.33590555191040,1.83051800727844,35.18296432495117,-0.30735358595848,-0.18058891594410,9.78103923797607,-5.30185508728027,0.13398644328117,-0.42828282713890
89,929897895,-6.38279676437378,1.83068323135376,35.17871475219727,-0.29118865728378,-0.19400486350060,9.78286933898926,-5.32094907760620,0.08491250872612,-0.33893284201622
90,929914562,-6.42980575561523,1.83166956901550,35.17443084716797,-0.29173734784126,-0.17428335547447,9.77182579040527,-5.36091756820679,0.13554883003235,-0.33706316351891
91,929931229,-6.47512722015381,1.83110153675079,35.16982269287109,-0.29100200533867,-0.20092238485813,9.77915000915527,-5.29338979721069,0.04676239192486,-0.36636409163475
92,929947896,-6.51957893371582,1.83063292503357,35.16666030883789,-0.30693358182907,-0.18208570778370,9.76711845397949,-5.27817630767822,0.04398341849446,-0.28191906213760
93,929964563,-6.56511068344116,1.83100807666779,35.16115188598633,-0.29987230896950,-0.18961377441883,9.76520061492920,-5.37309694290161,0.10941106826067,-0.41782000660896
94,929981230,-6.61065959930420,1.83076131343842,35.15753936767578,-0.29568681120872,-0.18671998381615,9.76762294769287,-5.41279649734497,0.05994012579322,-0.30735242366791
95,929997897,-6.65621137619019,1.83119511604309,35.15282440185547,-0.28868988156319,-0.18836663663387,9.76292133331299,-5.44696378707886,0.10883477330208,-0.36948883533478
96,930014564,-6.69891357421875,1.83208239078522,35.14958953857422,-0.29641798138618,-0.19429458677769,9.76124858856201,-5.31516075134277,0.12740398943424,-0.28076645731926
97,930031231,-6.74094629287720,1.83351027965546,35.14567947387695,-0.29901731014252,-0.17261445522308,9.76846694946289,-5.30984592437744,0.16476009786129,-0.31737977266312
98,930047898,-6.78367519378662,1.83394384384155,35.14155578613281,-0.28663623332977,-0.18875294923782,9.78569030761719,-5.38960409164429,0.10764378309250,-0.33838218450546
99,930064565,-6.82635831832886,1.83584856987000,35.13930130004883,-0.28985989093781,-0.17810752987862,9.74405574798584,-5.42831754684448,0.18358543515205,-0.21825863420963
100,930081232,-6.86708593368530,1.83513784408569,35.13545989990234,-0.30761846899986,-0.19598340988159,9.76552200317383,-5.34634447097778,0.04006467014551,-0.33224797248840
101,930097899,-6.90760469436646,1.83511543273926,35.13133239746094,-0.30255457758904,-0.18214948475361,9.76160144805908,-5.37072753906250,0.08300437033176,-0.34614285826683
102,930114566,-6.94713687896729,1.83525645732880,35.12726593017578,-0.29748919606209,-0.17522192001343,9.75838375091553,-5.35138988494873,0.09257072210312,-0.34127646684647
103,930131233,-6.98491573333740,1.83546435832977,35.12333679199219,-0.29710018634796,-0.17360997200012,9.78499698638916,-5.28679513931274,0.09563144296408,-0.33433544635773
104,930147900,-7.02365684509277,1.83582055568695,35.12023162841797,-0.30190464854240,-0.18296834826469,9.75969600677490,-5.38674831390381,0.10024171322584,-0.28646528720856
105,930164567,-7.06104087829590,1.83613753318787,35.11627578735352,-0.29218676686287,-0.19124323129654,9.76426029205322,-5.34426975250244,0.10377627611160,-0.33628198504448
106,930181234,-7.09803915023804,1.83630728721619,35.11314392089844,-0.29560241103172,-0.17491255700588,9.78598117828369,-5.36189174652100,0.09013750404119,-0.29224094748497
107,930197901,-7.13443708419800,1.83538305759430,35.10826873779297,-0.30944406986237,-0.19140101969242,9.77343082427979,-5.36506748199463,0.03857913613319,-0.40272131562233
108,930214568,-7.16957521438599,1.83612132072449,35.10387420654297,-0.30972728133202,-0.19485072791576,9.76024055480957,-5.33145046234131,0.13419134914875,-0.36412295699120
109,930231235,-7.20321321487427,1.83794224262238,35.09996414184570,-0.29118880629539,-0.19420929253101,9.77665901184082,-5.28200578689575,0.19392018020153,-0.32847011089325
110,930247902,-7.23697805404663,1.83906602859497,35.09642410278320,-0.29002425074577,-0.17976318299770,9.75176429748535,-5.33234691619873,0.15196657180786,-0.31248778104782
111,930264569,-7.27019262313843,1.83966624736786,35.09248733520508,-0.30057749152184,-0.19587680697441,9.77729797363281,-5.34073543548584,0.12494517117739,-0.34285166859627
112,930281236,-7.30256605148315,1.83941006660461,35.08814620971680,-0.28475379943848,-0.17913295328617,9.78645801544189,-5.33091211318970,0.07678046822548,-0.37427839636803
113,930297903,-7.33450412750244,1.83956933021545,35.08491134643555,-0.29403871297836,-0.18979220092297,9.75532627105713,-5.34960985183716,0.09522162377834,-0.30520096421242
114,930314570,-7.36586999893188,1.84017205238342,35.08018493652344,-0.29275622963905,-0.19530300796032,9.78375434875488,-5.35498809814453,0.13420414924622,-0.39143893122673
115,930331237,-7.39714956283569,1.84076476097107,35.07562255859375,-0.28784334659576,-0.19332452118397,9.78946018218994,-5.39239597320557,0.13260336220264,-0.38508698344231
116,930347904,-7.42640590667725,1.84061563014984,35.07162475585938,-0.29377228021622,-0.18964338302612,9.77770900726318,-5.31519889831543,0.08614192157984,-0.35793751478195
117,930364571,-7.45620870590210,1.83992707729340,35.06749343872070,-0.29696464538574,-0.18961495161057,9.79423809051514,-5.39029550552368,0.05650802329183,-0.37153786420822
118,930381238,-7.48360443115234,1.84093701839447,35.06460571289062,-0.30473896861076,-0.18398523330688,9.78198623657227,-5.29177665710449,0.14788134396076,-0.28549200296402
119,930397905,-7.51059627532959,1.84153985977173,35.06052398681641,-0.31068673729897,-0.19138960540295,9.78032302856445,-5.30923128128052,0.13338455557823,-0.36017861962318
120,930414572,-7.53798294067383,1.84150648117065,35.05526351928711,-0.29906624555588,-0.21537256240845,9.79144382476807,-5.37351942062378,0.10472394526005,-0.43549275398254
121,930431239,-7.56417608261108,1.84241318702698,35.05281829833984,-0.29239577054977,-0.18955315649509,9.76356983184814,-5.34977674484253,0.13950599730015,-0.26336264610291
122,930447906,-7.58952426910400,1.84239661693573,35.04874801635742,-0.28565165400505,-0.18082565069199,9.76047897338867,-5.33900547027588,0.09774446487427,-0.36784964799881
123,930464573,-7.61474561691284,1.84262454509735,35.04523849487305,-0.30183264613152,-0.17920063436031,9.78588771820068,-5.37578582763672,0.10994894057512,-0.33464273810387
124,930481240,-7.63793182373047,1.84212660789490,35.04041290283203,-0.30223569273949,-0.16810128092766,9.75717258453369,-5.29675817489624,0.07753605395555,-0.41921594738960
125,930497907,-7.66186189651489,1.84336280822754,35.03707885742188,-0.28690338134766,-0.19956690073013,9.77330780029297,-5.38934803009033,0.16907584667206,-0.31735417246819
126,930514574,-7.68520021438599,1.84448921680450,35.03370666503906,-0.29786434769630,-0.18722380697727,9.79253005981445,-5.39632749557495,0.16381244361401,-0.32284811139107
127,930531241,-7.70690965652466,1.84537172317505,35.02880477905273,-0.30365306138992,-0.20465660095215,9.77117156982422,-5.33972358703613,0.16304408013821,-0.41838350892067
128,930547908,-7.72814226150513,1.84615528583527,35.02554702758789,-0.29614785313606,-0.19699627161026,9.77833080291748,-5.35751104354858,0.14418031275272,-0.32232305407524
129,930564575,-7.74757671356201,1.84682857990265,35.02050018310547,-0.29533311724663,-0.17187188565731,9.79943847656250,-5.28854894638062,0.15228670835495,-0.43012690544128
130,930581242,-7.76791524887085,1.84752070903778,35.01737594604492,-0.29911610484123,-0.19747970998287,9.77175521850586,-5.39212656021118,0.13931387662888,-0.31800732016563
131,930597909,-7.78665971755981,1.84680461883545,35.01402664184570,-0.30717968940735,-0.18116724491119,9.78639602661133,-5.33842992782593,0.05819846317172,-0.34276196360588
132,930614576,-7.80387735366821,1.84628129005432,35.01045227050781,-0.30014333128929,-0.19071801006794,9.79482364654541,-5.29111003875732,0.07152988016605,-0.35696426033974
133,930631243,-7.82264757156372,1.84632527828217,35.00839614868164,-0.30594110488892,-0.17565812170506,9.74384117126465,-5.43035459518433,0.09296771138906,-0.26356756687164
134,930647910,-7.83959388732910,1.84672987461090,35.00455856323242,-0.30643472075462,-0.18808957934380,9.76854705810547,-5.36075115203857,0.12995243072510,-0.36750385165215
135,930664577,-7.85678482055664,1.84689795970917,35.00115966796875,-0.31256780028343,-0.17616529762745,9.76376724243164,-5.41964817047119,0.11160095781088,-0.34572026133537
136,930681244,-7.87185096740723,1.84705674648285,34.99720001220703,-0.28909504413605,-0.19090777635574,9.76738643646240,-5.33516407012939,0.11582705378532,-0.37972110509872
137,930697911,-7.88772344589233,1.84732067584991,34.99448394775391,-0.30634799599648,-0.18058300018311,9.78952980041504,-5.42891979217529,0.11302246153355,-0.30607175827026
138,930714578,-7.90233182907104,1.84687137603760,34.99207687377930,-0.29112610220909,-0.18252745270729,9.77540493011475,-5.39613533020020,0.06836669892073,-0.29522481560707
139,930731245,-7.91685295104980,1.84905469417572,34.98888778686523,-0.28432205319405,-0.19306980073452,9.78367996215820,-5.43231391906738,0.23240327835083,-0.31941604614258
140,930747912,-7.92977905273438,1.84948718547821,34.98582839965820,-0.29882484674454,-0.19514685869217,9.79758167266846,-5.37926959991455,0.13001647591591,-0.32978919148445
141,930764579,-7.94194746017456,1.84949314594269,34.98195648193359,-0.28921529650688,-0.18894159793854,9.77306556701660,-5.37371206283569,0.11106310039759,-0.38138601183891
142,930781246,-7.95263433456421,1.85003554821014,34.97930526733398,-0.28066515922546,-0.18890027701855,9.78559017181396,-5.32915830612183,0.13348700106144,-0.30625107884407
143,930797913,-7.96261739730835,1.84997618198395,34.97689437866211,-0.30210191011429,-0.19992041587830,9.78616905212402,-5.32858180999756,0.09865372627974,-0.29699206352234
144,930814580,-7.97171211242676,1.85080802440643,34.97382736206055,-0.30561780929565,-0.17701508104801,9.77113437652588,-5.31452035903931,0.15702508389950,-0.33077523112297
145,930831247,-7.98149871826172,1.85083973407745,34.97200393676758,-0.28389665484428,-0.20543859899044,9.78385066986084,-5.40054035186768,0.09940930455923,-0.26500183343887
146,930847914,-7.99029016494751,1.85225486755371,34.96780776977539,-0.29084470868111,-0.19827297329903,9.75491905212402,-5.37588834762573,0.20293582975864,-0.39579311013222
147,930864581,-7.99744796752930,1.85276460647583,34.96551513671875,-0.28529810905457,-0.19553585350513,9.77948665618896,-5.32084655761719,0.13430660963058,-0.29143413901329
148,930881248,-8.00521183013916,1.85301268100739,34.96240997314453,-0.29697436094284,-0.18216334283352,9.76807403564453,-5.39543104171753,0.12740398943424,-0.34280040860176
149,930897915,-8.01153755187988,1.85353004932404,34.95928573608398,-0.29847639799118,-0.17907336354256,9.76268768310547,-5.34900808334351,0.14410345256329,-0.34155818820000
150,930914582,-8.01652050018311,1.85338294506073,34.95681381225586,-0.30728253722191,-0.18150946497917,9.77109718322754,-5.30962896347046,0.09947333484888,-0.31045159697533
151,930931249,-8.02095127105713,1.85323798656464,34.95317077636719,-0.30126479268074,-0.18547554314137,9.76410388946533,-5.31332921981812,0.10961595922709,-0.38193663954735
152,930947916,-8.02543926239014,1.85300171375275,34.95041656494141,-0.29446297883987,-0.18970192968845,9.77776622772217,-5.35760116577148,0.09746273607016,-0.33151805400848
153,930964583,-8.03006839752197,1.85242819786072,34.94793319702148,-0.30250492691994,-0.16745117306709,9.76880264282227,-5.40502309799194,0.07565351575613,-0.31780239939690
154,930981250,-8.03352355957031,1.85270202159882,34.94546890258789,-0.29636347293854,-0.19759295880795,9.79791164398193,-5.37376308441162,0.12634105980396,-0.31160417199135
155,930997917,-8.03517913818359,1.85228669643402,34.94424438476562,-0.28524008393288,-0.16212573647499,9.76586437225342,-5.30469799041748,0.07578158378601,-0.24495990574360
156,931014584,-8.03646564483643,1.85180687904358,34.94050979614258,-0.30079263448715,-0.19161435961723,9.76192855834961,-5.31732511520386,0.09502952545881,-0.39543452858925
157,931031251,-8.03666496276855,1.85029828548431,34.93867111206055,-0.29105526208878,-0.19890652596951,9.77213859558105,-5.29109716415405,0.01729497686028,-0.29268917441368
158,931047918,-8.03817462921143,1.84988522529602,34.93461990356445,-0.29972532391548,-0.18982417881489,9.76095581054688,-5.40179586410522,0.10275176167488,-0.41534841060638
159,931064585,-8.03763008117676,1.85002100467682,34.93161773681641,-0.29392278194427,-0.18353721499443,9.75857925415039,-5.31514787673950,0.12677645683289,-0.35103490948677
160,931081252,-8.03712844848633,1.85018956661224,34.92783737182617,-0.30180576443672,-0.18832185864449,9.76561069488525,-5.35276031494141,0.13549758493900,-0.39633092284203
161,931097919,-8.03734493255615,1.85029292106628,34.92366790771484,-0.30799603462219,-0.18463283777237,9.77118492126465,-5.43008518218994,0.13560006022453,-0.42134177684784
162,931114586,-8.03520202636719,1.85047161579132,34.92197418212891,-0.30305838584900,-0.18718531727791,9.77326011657715,-5.32760858535767,0.11943843960762,-0.27524688839912
163,931131253,-8.03305149078369,1.84959542751312,34.91780471801758,-0.28409013152122,-0.20167759060860,9.77043056488037,-5.35630750656128,0.07736956328154,-0.43199664354324
164,931147920,-8.03036403656006,1.85032510757446,34.91519165039062,-0.29052892327309,-0.17877674102783,9.77720642089844,-5.35948371887207,0.16139203310013,-0.32776579260826
165,931164587,-8.02676105499268,1.85006344318390,34.91247177124023,-0.28679212927818,-0.16429297626019,9.77915096282959,-5.33881425857544,0.10390433669090,-0.34183993935585
166,931181254,-8.02275657653809,1.85056674480438,34.90953445434570,-0.27951949834824,-0.20261193811893,9.78788280487061,-5.34802198410034,0.15279898047447,-0.34956213831902
167,931197921,-8.01763725280762,1.85059809684753,34.90734863281250,-0.29956126213074,-0.18358182907104,9.77489376068115,-5.31449460983276,0.11977139860392,-0.31004175543785
168,931214588,-8.01231956481934,1.85029780864716,34.90471649169922,-0.28971603512764,-0.19279833137989,9.75346374511719,-5.33302593231201,0.10390433669090,-0.34116122126579
169,931231255,-8.00645923614502,1.84976232051849,34.90214920043945,-0.29473215341568,-0.20553584396839,9.77181339263916,-5.33182191848755,0.09039364010096,-0.33884325623512
170,931247922,-7.99839830398560,1.84963464736938,34.89886093139648,-0.30844345688820,-0.17262679338455,9.75045967102051,-5.22750091552734,0.12160271406174,-0.37990039587021
171,931264589,-7.99120616912842,1.84933567047119,34.89648437500000,-0.29352706670761,-0.18029992282391,9.78066825866699,-5.31321382522583,0.10394274443388,-0.32797065377235
172,931281256,-7.98375082015991,1.85009872913361,34.89435577392578,-0.29307994246483,-0.18590517342091,9.77350234985352,-5.32760906219482,0.16532358527184,-0.30567479133606
173,931297923,-7.97704648971558,1.84921252727509,34.89142227172852,-0.29182651638985,-0.18907830119133,9.78042316436768,-5.40001583099365,0.07475707679987,-0.36790087819099
174,931314590,-7.96884393692017,1.84969973564148,34.88976669311523,-0.28877201676369,-0.18787354230881,9.78659820556641,-5.34189987182617,0.14598599076271,-0.28022855520248
175,931331257,-7.96064090728760,1.84895038604736,34.88632202148438,-0.28121685981750,-0.17091646790504,9.76598453521729,-5.36646318435669,0.08936911821365,-0.39902028441429
176,931347924,-7.95118904113770,1.84956407546997,34.88356018066406,-0.30351442098618,-0.18500517308712,9.76112556457520,-5.32152605056763,0.16541323065758,-0.34782052040100
177,931364591,-7.94206619262695,1.85033261775970,34.88150024414062,-0.28427079319954,-0.18842378258705,9.79001712799072,-5.36944675445557,0.16910146176815,-0.30609738826752
178,931381258,-7.93263912200928,1.84917795658112,34.87685775756836,-0.29404839873314,-0.18778009712696,9.79329109191895,-5.37366056442261,0.07688292860985,-0.47470578551292
179,931397925,-7.92203760147095,1.84956979751587,34.87506866455078,-0.29910764098167,-0.17767824232578,9.76496982574463,-5.33403778076172,0.14615251123905,-0.29432842135429
180,931414592,-7.91055250167847,1.84790086746216,34.87226867675781,-0.29130026698112,-0.18651457130909,9.77608871459961,-5.30604267120361,0.03238086029887,-0.37169152498245
181,931431259,-7.89904212951660,1.84760487079620,34.86962890625000,-0.29912766814232,-0.17535491287708,9.76054573059082,-5.32978630065918,0.11288160085678,-0.35120141506195
182,931447926,-7.88740777969360,1.84730303287506,34.86706924438477,-0.30067887902260,-0.17893187701702,9.77604675292969,-5.34859848022461,0.11285597831011,-0.34632217884064
183,931464593,-7.87533283233643,1.84745752811432,34.86468505859375,-0.30192354321480,-0.18932659924030,9.76571941375732,-5.34616470336914,0.13884004950523,-0.33680701255798
184,931481260,-7.86358070373535,1.84730899333954,34.86248397827148,-0.29371210932732,-0.17678187787533,9.77759552001953,-5.38969421386719,0.11851639300585,-0.32503804564476
185,931497927,-7.85042572021484,1.84665453433990,34.86079406738281,-0.30483224987984,-0.19740104675293,9.77273941040039,-5.33043956756592,0.08477164804935,-0.29998877644539
186,931514594,-7.83707427978516,1.84659695625305,34.85840988159180,-0.29538789391518,-0.18941235542297,9.76602077484131,-5.33877563476562,0.12694294750690,-0.33943235874176
187,931531261,-7.82437372207642,1.84618544578552,34.85555267333984,-0.28221985697746,-0.19925259053707,9.78275966644287,-5.39960575103760,0.10930862277746,-0.36959129571915
188,931547928,-7.81035470962524,1.84642744064331,34.85429000854492,-0.28110566735268,-0.19038455188274,9.77920532226562,-5.34364223480225,0.13653492927551,-0.27014997601509
189,931564595,-7.79560852050781,1.84490478038788,34.85228347778320,-0.29524832963943,-0.19021695852280,9.76823711395264,-5.32075786590576,0.03938593715429,-0.32850855588913
190,931581262,-7.78066301345825,1.84569680690765,34.84881210327148,-0.28496357798576,-0.18367531895638,9.76983165740967,-5.32591867446899,0.18890008330345,-0.39731708168983
191,931597929,-7.76634502410889,1.84574186801910,34.84703445434570,-0.30495408177376,-0.18402329087257,9.77508163452148,-5.38763189315796,0.13201427459717,-0.30417644977570
192,931614596,-7.75105905532837,1.84529149532318,34.84382629394531,-0.28347328305244,-0.18604107201099,9.76835155487061,-5.34635734558105,0.11381646245718,-0.39471736550331
193,931631263,-7.73596286773682,1.84522175788879,34.84190750122070,-0.28161171078682,-0.16665875911713,9.76074504852295,-5.37970495223999,0.12622579932213,-0.31503623723984
194,931647930,-7.72074270248413,1.84586548805237,34.84048461914062,-0.30326017737389,-0.17693038284779,9.77059745788574,-5.39330530166626,0.16729576885700,-0.28065118193626
195,931664597,-7.70492553710938,1.84567272663116,34.83913040161133,-0.29262977838516,-0.18682569265366,9.75670528411865,-5.37522220611572,0.11605755984783,-0.28601706027985
196,931681264,-7.68854331970215,1.84490942955017,34.83703994750977,-0.29892799258232,-0.18895784020424,9.78829574584961,-5.35883045196533,0.08848547935486,-0.33173573017120
197,931697931,-7.67155599594116,1.84460210800171,34.83493041992188,-0.28908163309097,-0.19509992003441,9.76596355438232,-5.33903169631958,0.11566055566072,-0.32914885878563
198,931714598,-7.65396022796631,1.84514856338501,34.83291244506836,-0.28098526597023,-0.17906099557877,9.77667331695557,-5.31946372985840,0.16743662953377,-0.31937757134438
199,931731265,-7.63615942001343,1.84487342834473,34.83177185058594,-0.30422315001488,-0.19238570332527,9.76917934417725,-5.32554626464844,0.11110149323940,-0.27269843220711
200,931747932,-7.61764526367188,1.84446310997009,34.83022308349609,-0.30139750242233,-0.17399787902832,9.76052856445312,-5.29783391952515,0.10725961625576,-0.29897710680962
201,931764599,-7.59923171997070,1.84515535831451,34.82854080200195,-0.29553586244583,-0.19052837789059,9.77999687194824,-5.31910467147827,0.17417277395725,-0.29842641949654
202,931781266,-7.58003139495850,1.84465503692627,34.82653045654297,-0.29877710342407,-0.19310179352760,9.76742649078369,-5.28657674789429,0.10610701888800,-0.32747119665146
203,931797933,-7.56184577941895,1.84443879127502,34.82426452636719,-0.30234995484352,-0.18750400841236,9.78061676025391,-5.36125183105469,0.12461221218109,-0.34390175342560
204,931814600,-7.54213380813599,1.84333276748657,34.82194900512695,-0.29839602112770,-0.18082138895988,9.77510452270508,-5.28414392471313,0.07205493003130,-0.35298144817352
205,931831267,-7.52296066284180,1.84204268455505,34.82047653198242,-0.31005248427391,-0.17981240153313,9.79554176330566,-5.33132266998291,0.05544509366155,-0.30438134074211
206,931847934,-7.50528955459595,1.84124767780304,34.81823348999023,-0.30374133586884,-0.19192172586918,9.77996063232422,-5.43433713912964,0.08961244672537,-0.34739789366722
207,931864601,-7.48643970489502,1.84046173095703,34.81542968750000,-0.29708102345467,-0.19001537561417,9.78844547271729,-5.37517166137695,0.09482463449240,-0.38042548298836
208,931881268,-7.46709060668945,1.83937084674835,34.81321334838867,-0.29306429624557,-0.17588469386101,9.76805114746094,-5.35830545425415,0.07136338949203,-0.34771806001663
209,931897935,-7.44592332839966,1.83845496177673,34.81124114990234,-0.29994040727615,-0.18334938585758,9.77815914154053,-5.26275730133057,0.08080167323351,-0.33340054750443
210,931914602,-7.42652893066406,1.83804059028625,34.80778121948242,-0.28011414408684,-0.19143591821194,9.76972007751465,-5.37824487686157,0.12221740186214,-0.41506659984589
211,931931269,-7.40697574615479,1.83847630023956,34.80483627319336,-0.29766866564751,-0.17853564023972,9.78193664550781,-5.38038396835327,0.16966496407986,-0.38061758875847
212,931947936,-7.38678455352783,1.83900964260101,34.80292892456055,-0.30073913931847,-0.19583606719971,9.77405357360840,-5.35553884506226,0.16678351163864,-0.31707242131233
213,931964603,-7.36617803573608,1.83879542350769,34.80089569091797,-0.30520758032799,-0.18916280567646,9.77163887023926,-5.33995389938354,0.12371575087309,-0.33177411556244
214,931981270,-7.34637212753296,1.83693540096283,34.79880905151367,-0.29500856995583,-0.17701172828674,9.77616119384766,-5.39856815338135,0.02605452015996,-0.34771806001663
215,931997937,-7.32509517669678,1.83711707592010,34.79629898071289,-0.29911434650421,-0.19341957569122,9.79868507385254,-5.31913089752197,0.15154395997524,-0.35691303014755
216,932014604,-7.30359888076782,1.83640742301941,34.79310226440430,-0.29594811797142,-0.18038208782673,9.75979137420654,-5.31414890289307,0.10313595086336,-0.40428367257118
217,932031271,-7.28194141387939,1.83606076240540,34.79106521606445,-0.28338980674744,-0.19520030915737,9.75672912597656,-5.31527614593506,0.11590388417244,-0.33310604095459
218,932047938,-7.26030015945435,1.83578777313232,34.78778076171875,-0.30265134572983,-0.19745019078255,9.79006385803223,-5.32249879837036,0.13038787245750,-0.40804877877235
219,932064605,-7.23838949203491,1.83488845825195,34.78713989257812,-0.29203975200653,-0.19605599343777,9.76849174499512,-5.31901502609253,0.07304101437330,-0.25411641597748
220,932081272,-7.21612644195557,1.83507680892944,34.78525161743164,-0.29910650849342,-0.19249367713928,9.76708889007568,-5.30281591415405,0.14726664125919,-0.32106807827950
221,932097939,-7.19510173797607,1.83487081527710,34.78372955322266,-0.29885536432266,-0.19032193720341,9.76141357421875,-5.38489103317261,0.12137218564749,-0.30182006955147
222,932114606,-7.17384576797485,1.83512568473816,34.78158569335938,-0.30087587237358,-0.18468804657459,9.78913784027100,-5.37669515609741,0.15331122279167,-0.33617955446243
223,932131273,-7.15248060226440,1.83552110195160,34.77839660644531,-0.28684216737747,-0.19252516329288,9.79063320159912,-5.37569618225098,0.16928075253963,-0.39834156632423
224,932147940,-7.13092994689941,1.83533251285553,34.77667617797852,-0.29282361268997,-0.19694539904594,9.77870082855225,-5.37294340133667,0.12456097453833,-0.31471607089043
225,932164607,-7.10879802703857,1.83543276786804,34.77389526367188,-0.29629382491112,-0.19769027829170,9.78457736968994,-5.34210538864136,0.14929004013538,-0.37686532735825
226,932181274,-7.08614110946655,1.83428812026978,34.77205276489258,-0.30445560812950,-0.18740519881248,9.78587150573730,-5.31796550750732,0.06855880469084,-0.32877746224403
227,932197941,-7.06366348266602,1.83391606807709,34.76994705200195,-0.29756939411163,-0.18539319932461,9.77144908905029,-5.33417797088623,0.11627525836229,-0.34031599760056
228,932214608,-7.04117202758789,1.83335554599762,34.76744079589844,-0.28982520103455,-0.18991486728191,9.76928997039795,-5.33725166320801,0.10822007805109,-0.36514753103256
229,932231275,-7.01837825775146,1.83327424526215,34.76535797119141,-0.30633747577667,-0.17439132928848,9.76676082611084,-5.32508563995361,0.13274423778057,-0.33405366539955
230,932247942,-6.99441862106323,1.83336687088013,34.76289749145508,-0.30784603953362,-0.17485879361629,9.75833988189697,-5.25922250747681,0.14738188683987,-0.36449438333511
231,932264609,-6.97315788269043,1.83354938030243,34.76047897338867,-0.29000172019005,-0.19820924103260,9.77847576141357,-5.42669153213501,0.15032735466957,-0.35468468070030
232,932281276,-6.95003700256348,1.83270967006683,34.75777053833008,-0.27972590923309,-0.19404031336308,9.77675724029541,-5.31751728057861,0.09267315268517,-0.38320443034172
233,932297943,-6.92573404312134,1.83313572406769,34.75562667846680,-0.28975522518158,-0.17986176908016,9.76805210113525,-5.25097513198853,0.16454240679741,-0.33473238348961
234,932314610,-6.90312385559082,1.83420276641846,34.75293350219727,-0.28968232870102,-0.19823576509953,9.80265998840332,-5.35546255111694,0.20675213634968,-0.36656901240349
235,932331277,-6.87934589385986,1.83500742912292,34.75136184692383,-0.29152283072472,-0.19664235413074,9.80397224426270,-5.29117488861084,0.18449471890926,-0.30548271536827
236,932347944,-6.85648488998413,1.83453202247620,34.74893951416016,-0.28718540072441,-0.19120343029499,9.75367164611816,-5.34596014022827,0.11344505101442,-0.36152327060699
237,932364611,-6.83274078369141,1.83501982688904,34.74643325805664,-0.29987835884094,-0.19805881381035,9.77131080627441,-5.29648923873901,0.17282809317112,-0.36358511447906
238,932381278,-6.80883693695068,1.83466935157776,34.74427032470703,-0.29911509156227,-0.18721823394299,9.78015422821045,-5.28924036026001,0.12007874250412,-0.34434995055199
239,932397945,-6.78559017181396,1.83535170555115,34.74215316772461,-0.29634094238281,-0.18527173995972,9.78947353363037,-5.33083629608154,0.18072964251041,-0.33226078748703
240,932414612,-6.76170587539673,1.83400416374207,34.74010467529297,-0.30431157350540,-0.17983552813530,9.77860736846924,-5.29426002502441,0.05982486903667,-0.34344071149826
241,932431279,-6.73923492431641,1.83391988277435,34.73824310302734,-0.28442820906639,-0.19017100334167,9.76953411102295,-5.38195896148682,0.13349981606007,-0.32397508621216
242,932447946,-6.71556663513184,1.83330070972443,34.73492813110352,-0.29334655404091,-0.18466483056545,9.76160049438477,-5.30948781967163,0.11235652118921,-0.41372194886208
243,932464613,-6.69267702102661,1.83318293094635,34.73324203491211,-0.29954427480698,-0.19049859046936,9.77482414245605,-5.35938119888306,0.13041347265244,-0.31535640358925
244,932481280,-6.66916465759277,1.83332395553589,34.72998046875000,-0.30648031830788,-0.19505143165588,9.76695823669434,-5.32084655761719,0.15774224698544,-0.40679374337196
245,932497947,-6.64692449569702,1.83298420906067,34.72927856445312,-0.29255640506744,-0.19162258505821,9.76245307922363,-5.40188503265381,0.11046117544174,-0.26273509860039
246,932514614,-6.62307977676392,1.83271586894989,34.72685241699219,-0.29781007766724,-0.19480445981026,9.76893043518066,-5.30307149887085,0.12668682634830,-0.36108791828156
247,932531281,-6.60036468505859,1.83220124244690,34.72533416748047,-0.29708492755890,-0.18133240938187,9.78036975860596,-5.37234115600586,0.10558196157217,-0.30876111984253
248,932547948,-6.57637548446655,1.83281743526459,34.72368621826172,-0.29294091463089,-0.18837048113346,9.77049636840820,-5.29634857177734,0.17398068308830,-0.30759575963020
249,932564615,-6.55320882797241,1.83328342437744,34.72197723388672,-0.30535796284676,-0.18624058365822,9.74451732635498,-5.34548664093018,0.16508026421070,-0.31210359930992
250,932581282,-6.53017282485962,1.83287060260773,34.72003173828125,-0.30713632702827,-0.18920165300369,9.76013469696045,-5.35228633880615,0.11499463021755,-0.33381032943726
251,932597949,-6.50616216659546,1.83248198032379,34.71878433227539,-0.29811605811119,-0.18832431733608,9.78837203979492,-5.29555463790894,0.11074292659760,-0.29184392094612
252,932614616,-6.48269987106323,1.83272671699524,34.71659088134766,-0.29247000813484,-0.18224987387657,9.78299713134766,-5.32515048980713,0.15413084626198,-0.34354323148727
253,932631283,-6.45991897583008,1.83207345008850,34.71516418457031,-0.27755299210548,-0.18134501576424,9.77770137786865,-5.36720561981201,0.09642541408539,-0.30435574054718
254,932647950,-6.43685913085938,1.83236896991730,34.71303939819336,-0.29463019967079,-0.18439985811710,9.77637290954590,-5.34943056106567,0.15826728940010,-0.34039279818535
255,932664617,-6.41336107254028,1.83158481121063,34.71175384521484,-0.29643470048904,-0.18031483888626,9.78422737121582,-5.32367706298828,0.08842145651579,-0.29085785150528
256,932681284,-6.38974666595459,1.83138787746429,34.70941543579102,-0.31331038475037,-0.18653024733067,9.77573108673096,-5.31309890747070,0.12970913946629,-0.34522080421448
257,932697951,-6.36759233474731,1.83042919635773,34.70732116699219,-0.29387372732162,-0.19014048576355,9.78647994995117,-5.40033626556396,0.08291473239660,-0.34683445096016
258,932714618,-6.34427118301392,1.83006894588470,34.70564651489258,-0.31080532073975,-0.19628210365772,9.78497219085693,-5.32897901535034,0.11613439023495,-0.32053017616272
259,932731285,-6.32028532028198,1.83053100109100,34.70407104492188,-0.28875687718391,-0.19285902380943,9.78676414489746,-5.28779363632202,0.16336421668530,-0.30737805366516
260,932747952,-6.29746913909912,1.83036005496979,34.70287322998047,-0.29050695896149,-0.18187981843948,9.77470588684082,-5.35688352584839,0.12402310967445,-0.28319966793060
261,932764619,-6.27341365814209,1.83016347885132,34.70072555541992,-0.29390707612038,-0.18904417753220,9.78292751312256,-5.27884197235107,0.12888953089714,-0.34217292070389
262,932781286,-6.25023841857910,1.83087551593781,34.69916152954102,-0.29550287127495,-0.18279869854450,9.76587581634521,-5.32996511459351,0.17943617701530,-0.29847764968872
263,932797953,-6.22711801528931,1.83031439781189,34.69669723510742,-0.30276980996132,-0.18862041831017,9.78261184692383,-5.32959365844727,0.10943666845560,-0.36418700218201
264,932814620,-6.20491170883179,1.83032786846161,34.69459915161133,-0.30120804905891,-0.20354492962360,9.77655410766602,-5.38293170928955,0.14186234772205,-0.33844622969627
265,932831287,-6.18200969696045,1.83019185066223,34.69364929199219,-0.30319279432297,-0.18562524020672,9.77171611785889,-5.34033823013306,0.12389504164457,-0.27004754543304
266,932847954,-6.15909719467163,1.82978427410126,34.69166183471680,-0.29497107863426,-0.18469384312630,9.78758239746094,-5.33494663238525,0.11450800299644,-0.33237606287003
267,932864621,-6.13567876815796,1.82954835891724,34.69041442871094,-0.29003947973251,-0.18998214602470,9.78771972656250,-5.30341768264771,0.12005312740803,-0.28920581936836
268,932881288,-6.11302185058594,1.82816243171692,34.68772888183594,-0.29069191217422,-0.18552196025848,9.78408241271973,-5.34328413009644,0.06078534945846,-0.38333252072334
269,932897955,-6.08983182907104,1.82779574394226,34.68605804443359,-0.29376175999641,-0.18838165700436,9.76926803588867,-5.31085824966431,0.11559654027224,-0.31203955411911
270,932914622,-6.06769227981567,1.82723629474640,34.68256759643555,-0.29416191577911,-0.19931876659393,9.76794242858887,-5.36657810211182,0.11516111344099,-0.42309620976448
271,932931289,-6.04469442367554,1.82644891738892,34.68093872070312,-0.30227655172348,-0.19162176549435,9.76578712463379,-5.31482744216919,0.09052169322968,-0.31670105457306
272,932947956,-6.02290821075439,1.82622075080872,34.67957687377930,-0.29865190386772,-0.18448869884014,9.77368831634521,-5.38499355316162,0.12120570987463,-0.29621091485023
273,932964623,-5.99996757507324,1.82491958141327,34.67853164672852,-0.27786308526993,-0.19471974670887,9.76862239837646,-5.31372642517090,0.05530423298478,-0.28167572617531
274,932981290,-5.97812986373901,1.82503449916840,34.67714309692383,-0.29122006893158,-0.18812371790409,9.75011634826660,-5.37453079223633,0.14310456812382,-0.29566022753716
275,932997957,-5.95603895187378,1.82390487194061,34.67517471313477,-0.29638120532036,-0.17608940601349,9.78734779357910,-5.35416936874390,0.07218299806118,-0.33457875251770
276,933014624,-5.93412351608276,1.82301461696625,34.67340469360352,-0.29213216900826,-0.18204243481159,9.78027915954590,-5.36201906204224,0.08496373891830,-0.32434645295143
277,933031291,-5.91296052932739,1.82244801521301,34.67216110229492,-0.28656348586082,-0.19696041941643,9.75709915161133,-5.40527915954590,0.10204740613699,-0.29399541020393
278,933047958,-5.89138126373291,1.82212758064270,34.67079925537109,-0.30835485458374,-0.20384913682938,9.77175331115723,-5.37537622451782,0.11694120615721,-0.29481500387192
279,933064625,-5.86989545822144,1.82090365886688,34.66901779174805,-0.28936159610748,-0.18692202866077,9.77945137023926,-5.37624740600586,0.06519073247910,-0.32648512721062
280,933081292,-5.84840822219849,1.82096254825592,34.66781616210938,-0.30448955297470,-0.19165688753128,9.77495288848877,-5.37257242202759,0.13878883421421,-0.28330209851265
281,933097959,-5.82654905319214,1.82134556770325,34.66637802124023,-0.30280801653862,-0.18190483748913,9.77817630767822,-5.34598588943481,0.15890760719776,-0.29637739062309
282,933114626,-5.80384254455566,1.82142198085785,34.66497039794922,-0.30299559235573,-0.18437676131725,9.80216026306152,-5.29121255874634,0.13898092508316,-0.29390576481819
283,933131293,-5.78254032135010,1.82176637649536,34.66321182250977,-0.30799397826195,-0.18002918362617,9.77064704895020,-5.37049770355225,0.15852342545986,-0.31097665429115
284,933147960,-5.76027870178223,1.82079231739044,34.66109466552734,-0.29759585857391,-0.18213348090649,9.76740837097168,-5.30879640579224,0.08082729578018,-0.34253150224686
285,933164627,-5.74041843414307,1.82053911685944,34.66025161743164,-0.30659499764442,-0.18036648631096,9.77117347717285,-5.45103645324707,0.11591667681932,-0.26140323281288
286,933181294,-5.71881818771362,1.81975495815277,34.65871047973633,-0.29042071104050,-0.19881647825241,9.77855682373047,-5.34042787551880,0.08822935819626,-0.31006738543510
287,933197961,-5.69785165786743,1.81876695156097,34.65568542480469,-0.28746062517166,-0.18421965837479,9.76022720336914,-5.37111234664917,0.08500215411186,-0.40097966790199
288,933214628,-5.67704391479492,1.81874620914459,34.65309143066406,-0.29765835404396,-0.19232416152954,9.79488754272461,-5.37724590301514,0.14000543951988,-0.36240693926811
289,933231295,-5.65543985366821,1.81996858119965,34.65233612060547,-0.29404664039612,-0.18560378253460,9.79192638397217,-5.32762145996094,0.20260287821293,-0.24355117976665
290,933247962,-5.63397979736328,1.82131910324097,34.65140533447266,-0.29282149672508,-0.18621560931206,9.77020263671875,-5.33201408386230,0.21234850585461,-0.25318157672882
291,933264629,-5.61301517486572,1.82123649120331,34.64816284179688,-0.30285352468491,-0.19733910262585,9.78812599182129,-5.35304212570190,0.14073540270329,-0.39948132634163
292,933281296,-5.59209680557251,1.82136130332947,34.64662170410156,-0.30016684532166,-0.17866994440556,9.77083492279053,-5.35370826721191,0.14272037148476,-0.30652004480362
293,933297963,-5.57088327407837,1.82050824165344,34.64565277099609,-0.30804014205933,-0.19569148123264,9.78802871704102,-5.33283329010010,0.08178776502609,-0.28193181753159
294,933314630,-5.55000638961792,1.81980192661285,34.64271163940430,-0.31243261694908,-0.16851860284805,9.75145053863525,-5.34364271163940,0.09969104081392,-0.39150297641754
295,933331297,-5.52964115142822,1.81968533992767,34.64004898071289,-0.28883564472198,-0.19446563720703,9.76139926910400,-5.37132978439331,0.13275703787804,-0.36542925238609
296,933347964,-5.50897169113159,1.81924951076508,34.63871002197266,-0.29772937297821,-0.17357975244522,9.78099346160889,-5.34959697723389,0.10715714842081,-0.29814466834068
297,933364631,-5.48886919021606,1.81830036640167,34.63706970214844,-0.29403862357140,-0.19683292508125,9.77583980560303,-5.37948703765869,0.07719027996063,-0.31218042969704
298,933381298,-5.46801614761353,1.81679081916809,34.63585662841797,-0.29586529731750,-0.17583763599396,9.76494407653809,-5.32954311370850,0.04217771813273,-0.28912901878357
299,933397965,-5.44760227203369,1.81604492664337,34.63315963745117,-0.30295404791832,-0.18178425729275,9.78055000305176,-5.34939241409302,0.09618210792542,-0.37922164797783
300,933414632,-5.42768192291260,1.81564700603485,34.63091659545898,-0.31227040290833,-0.20046639442444,9.77761554718018,-5.37445449829102,0.11258702725172,-0.34349194169044
301,933431299,-5.40708351135254,1.81588184833527,34.62740325927734,-0.29959821701050,-0.17855805158615,9.76221942901611,-5.32516288757324,0.15933021903038,-0.42987081408501
302,933447966,-5.38616514205933,1.81598556041718,34.62621688842773,-0.30088791251183,-0.20373721420765,9.77532386779785,-5.30635070800781,0.13693191111088,-0.27925533056259
303,933464633,-5.36435604095459,1.81524956226349,34.62477874755859,-0.30354896187782,-0.18644902110100,9.75563335418701,-5.24659585952759,0.08746097236872,-0.30105170607567
304,933481300,-5.34379434585571,1.81465852260590,34.62302398681641,-0.30237573385239,-0.19233949482441,9.76610469818115,-5.31596803665161,0.09742432087660,-0.31170660257339
305,933497967,-5.32387876510620,1.81415545940399,34.62118530273438,-0.29160758852959,-0.17310351133347,9.76398468017578,-5.34907245635986,0.10314876586199,-0.31983864307404
306,933514634,-5.30354309082031,1.81384551525116,34.61897277832031,-0.29414147138596,-0.18794190883636,9.78659534454346,-5.31733751296997,0.11677470803261,-0.34258270263672
307,933531301,-5.28383588790894,1.81345427036285,34.61714935302734,-0.30707511305809,-0.19650022685528,9.76488208770752,-5.35205650329590,0.10934703797102,-0.31425505876541
308,933547968,-5.26402425765991,1.81251668930054,34.61410140991211,-0.29917493462563,-0.18057268857956,9.77468776702881,-5.33713626861572,0.08379834890366,-0.38803240656853
309,933564635,-5.24508762359619,1.81250405311584,34.61213302612305,-0.30489155650139,-0.17398692667484,9.78906440734863,-5.38651752471924,0.13330771028996,-0.33145397901535
310,933581302,-5.22495365142822,1.81291198730469,34.60948562622070,-0.30204296112061,-0.19642336666584,9.77146339416504,-5.30848884582520,0.16153290867805,-0.36211237311363
311,933597969,-5.20525026321411,1.81437921524048,34.60678100585938,-0.31307551264763,-0.19498357176781,9.77051353454590,-5.32905578613281,0.22392542660236,-0.35611897706985
312,933614636,-5.18591070175171,1.81357729434967,34.60559082031250,-0.30318406224251,-0.19170182943344,9.78105545043945,-5.34849643707275,0.07986681908369,-0.28059998154640
313,933631303,-5.16622591018677,1.81326758861542,34.60355758666992,-0.30193397402763,-0.19120684266090,9.77461624145508,-5.32027053833008,0.11423905193806,-0.32853412628174
314,933647970,-5.14711856842041,1.81395316123962,34.60108947753906,-0.29789444804192,-0.17711336910725,9.78992843627930,-5.34835433959961,0.17533814907074,-0.35148307681084
315,933664637,-5.12767028808594,1.81371724605560,34.59997558593750,-0.28370958566666,-0.18484401702881,9.78231430053711,-5.32596969604492,0.11318893730640,-0.28084328770638
316,933681304,-5.10817146301270,1.81374561786652,34.59934616088867,-0.29074642062187,-0.18272610008717,9.77259063720703,-5.31815767288208,0.12659718096256,-0.24621492624283
317,933697971,-5.08840084075928,1.81268501281738,34.59702682495117,-0.29167646169662,-0.18708431720734,9.79269504547119,-5.29405593872070,0.06974979490042,-0.34081542491913
318,933714638,-5.06980180740356,1.81196665763855,34.59560394287109,-0.29976403713226,-0.17581073939800,9.78372097015381,-5.36075115203857,0.08678223937750,-0.28874477744102
319,933731305,-5.05120563507080,1.81239986419678,34.59271621704102,-0.29794865846634,-0.17449492216110,9.79142475128174,-5.35245323181152,0.16365876793861,-0.38084810972214
320,933747972,-5.03373908996582,1.81202888488770,34.59046173095703,-0.30117672681808,-0.17822302877903,9.77880668640137,-5.41715049743652,0.11073011904955,-0.33980369567871
321,933764639,-5.01518011093140,1.81148695945740,34.58922195434570,-0.28913077712059,-0.17544537782669,9.77900695800781,-5.34809923171997,0.09568265080452,-0.28325089812279
322,933781306,-4.99769163131714,1.81118643283844,34.58632659912109,-0.28933671116829,-0.18813961744308,9.76980495452881,-5.40484380722046,0.11960492283106,-0.37991324067116
323,933797973,-4.97995233535767,1.81078028678894,34.58348464965820,-0.28410613536835,-0.17839527130127,9.77923870086670,-5.38393115997314,0.11147287487984,-0.36332902312279
324,933814640,-4.96129751205444,1.80995404720306,34.58124160766602,-0.30338278412819,-0.19612559676170,9.77112388610840,-5.32458639144897,0.08474601805210,-0.34456768631935
325,933831307,-4.94175291061401,1.80971288681030,34.57930374145508,-0.30055844783783,-0.19341334700584,9.77452373504639,-5.26695775985718,0.11808096617460,-0.32889273762703
326,933847974,-4.92340517044067,1.80980992317200,34.57737731933594,-0.29862216114998,-0.18572829663754,9.76586532592773,-5.33193731307983,0.13746976852417,-0.32936653494835
327,933864641,-4.90627002716064,1.80818271636963,34.57554244995117,-0.29609405994415,-0.17972995340824,9.78179931640625,-5.40074539184570,0.03455793857574,-0.32872623205185
328,933881308,-4.88867378234863,1.80816256999969,34.57336044311523,-0.29217031598091,-0.18388421833515,9.78786945343018,-5.36618185043335,0.13238565623760,-0.33774191141129
329,933897975,-4.87216424942017,1.80907380580902,34.57151412963867,-0.29414018988609,-0.19786827266216,9.77036666870117,-5.42761373519897,0.18531432747841,-0.31068208813667
330,933914642,-4.85494375228882,1.80775320529938,34.56975173950195,-0.29098421335220,-0.17523778975010,9.77169036865234,-5.37909030914307,0.05165442451835,-0.31178346276283
331,933931309,-4.83674430847168,1.80770099163055,34.56766510009766,-0.29132241010666,-0.18300573527813,9.76605319976807,-5.31519889831543,0.12839008867741,-0.32849571108818
332,933947976,-4.82005453109741,1.80729353427887,34.56565856933594,-0.30837240815163,-0.18761613965034,9.76235866546631,-5.39992570877075,0.10820727050304,-0.33442509174347
333,933964643,-4.80263853073120,1.80651569366455,34.56380462646484,-0.29504230618477,-0.18199551105499,9.78767490386963,-5.35238885879517,0.08370871096849,-0.30935022234917
334,933981310,-4.78599214553833,1.80683434009552,34.56169891357422,-0.30105093121529,-0.19433246552944,9.79237079620361,-5.39189672470093,0.15172325074673,-0.33137714862823
335,933997977,-4.76770544052124,1.80592191219330,34.56033706665039,-0.28597024083138,-0.18714945018291,9.76905918121338,-5.29013681411743,0.07475707679987,-0.28780996799469
336,934014644,-4.75092887878418,1.80637669563293,34.55842208862305,-0.28453332185745,-0.18059575557709,9.78777217864990,-5.37403154373169,0.15774223208427,-0.30174320936203
337,934031311,-4.73487758636475,1.80610930919647,34.55694580078125,-0.29522362351418,-0.18614962697029,9.73907566070557,-5.41271972656250,0.11371399462223,-0.29184392094612
338,934047978,-4.71871757507324,1.80643093585968,34.55490875244141,-0.28706541657448,-0.19996069371700,9.76938247680664,-5.39986133575439,0.15073715150356,-0.32428237795830
339,934064645,-4.70126819610596,1.80661189556122,34.55276489257812,-0.30225861072540,-0.18631106615067,9.78055572509766,-5.31674861907959,0.14375770092010,-0.33085206151009
340,934081312,-4.68363046646118,1.80665981769562,34.55045318603516,-0.30096325278282,-0.18927977979183,9.77043151855469,-5.30067729949951,0.13517744839191,-0.33569291234016
341,934097979,-4.66702556610107,1.80514752864838,34.54937744140625,-0.29331898689270,-0.18359370529652,9.75898361206055,-5.35921430587769,0.03723446652293,-0.26680752635002
342,934114646,-4.65031909942627,1.80346107482910,34.54719543457031,-0.30265703797340,-0.19954144954681,9.76462936401367,-5.34539651870728,0.03171493113041,-0.33885604143143
343,934131313,-4.63308334350586,1.80342757701874,34.54528045654297,-0.29987516999245,-0.20410992205143,9.78237342834473,-5.30919361114502,0.12988841533661,-0.31941604614258
344,934147980,-4.61701107025146,1.80314373970032,34.54409790039062,-0.29179951548576,-0.18101204931736,9.76452064514160,-5.37487649917603,0.11017943918705,-0.27344122529030
345,934164647,-4.60023164749146,1.80249392986298,34.54145812988281,-0.29517537355423,-0.18053579330444,9.75959110260010,-5.32425355911255,0.09483743458986,-0.36248376965523
346,934181314,-4.58399820327759,1.80100929737091,34.53885650634766,-0.29018074274063,-0.20538620650768,9.74384689331055,-5.35168457031250,0.04650626331568,-0.37696775794029
347,934197981,-4.56735992431641,1.80155265331268,34.53688812255859,-0.28743764758110,-0.19075652956963,9.77755832672119,-5.32297277450562,0.16333860158920,-0.30869710445404
348,934214648,-4.55059385299683,1.80178999900818,34.53459167480469,-0.30289736390114,-0.17786586284637,9.80059146881104,-5.30998706817627,0.14713859558105,-0.34126365184784
349,934231315,-4.53454256057739,1.80047774314880,34.53237152099609,-0.29999938607216,-0.18678410351276,9.77087497711182,-5.34777927398682,0.05425411835313,-0.35220026969910
350,934247982,-4.51963138580322,1.79942512512207,34.53017044067383,-0.29510444402695,-0.18643417954445,9.76951503753662,-5.41146516799927,0.06822583824396,-0.33001968264580
351,934264649,-4.50378990173340,1.79876935482025,34.52805709838867,-0.29340520501137,-0.19273455440998,9.75314903259277,-5.35013484954834,0.09283964335918,-0.32279688119888
352,934281316,-4.48731374740601,1.79885184764862,34.52635955810547,-0.30944982171059,-0.18508426845074,9.77221202850342,-5.30702924728394,0.13498535752296,-0.31243658065796
353,934297983,-4.47128200531006,1.79850149154663,34.52358245849609,-0.28649845719337,-0.18171827495098,9.77149486541748,-5.32785177230835,0.11204917728901,-0.36512190103531
354,934314650,-4.45562505722046,1.79844772815704,34.51982498168945,-0.29467132687569,-0.19358207285404,9.79149055480957,-5.34470558166504,0.13177095353603,-0.36653059720993
355,934331317,-4.44043779373169,1.79773271083832,34.51656723022461,-0.30161869525909,-0.18645341694355,9.76968383789062,-5.36728286743164,0.09184075146914,-0.38321724534035
356,934347984,-4.42473649978638,1.79750430583954,34.51344299316406,-0.30295476317406,-0.17655168473721,9.78484153747559,-5.33227014541626,0.12155147641897,-0.38652130961418
357,934364651,-4.40893316268921,1.79683876037598,34.51186752319336,-0.29229080677032,-0.19068802893162,9.78526401519775,-5.32313919067383,0.08984295278788,-0.31374281644821
358,934381318,-4.39400720596313,1.79726743698120,34.50962829589844,-0.30784869194031,-0.18681514263153,9.78405666351318,-5.36892175674438,0.15757574141026,-0.34159660339355
359,934397985,-1.01172530651093,1.76805496215820,35.51478576660156,-0.29462298750877,-0.18488737940788,9.76758289337158,-5.36962604522705,0.09607964009047,-0.36790084838867
360,934414652,-1.01114881038666,1.76814019680023,35.38882446289062,-0.30270299315453,-0.19022229313850,9.77550125122070,-5.32358741760254,0.12567512691021,-0.37877342104912
361,934431319,-1.00964474678040,1.76974916458130,35.27895736694336,-0.29702743887901,-0.18483637273312,9.80124759674072,-5.27049160003662,0.21579341590405,-0.30634072422981
362,934447986,-1.00819671154022,1.76964962482452,35.18998718261719,-0.29101449251175,-0.19409747421741,9.79053878784180,-5.27140188217163,0.11393170803785,-0.33767792582512
363,934464653,-1.00745129585266,1.76943576335907,35.10411834716797,-0.30017516016960,-0.18208533525467,9.78134346008301,-5.31316280364990,0.10745169967413,-0.37663480639458
364,934481320,-1.00671947002411,1.76877725124359,35.04508209228516,-0.29545703530312,-0.17833173274994,9.77901935577393,-5.31417465209961,0.08026380836964,-0.32741999626160
365,934497987,-1.00598251819611,1.76858663558960,34.96828079223633,-0.30662897229195,-0.17748831212521,9.75305461883545,-5.31290674209595,0.10946228355169,-0.38899290561676
366,934514654,-1.00625371932983,1.76832520961761,34.90847396850586,-0.30365750193596,-0.19174858927727,9.76982593536377,-5.37241792678833,0.10435254871845,-0.36362355947495
367,934531321,-1.00661468505859,1.76648998260498,34.85395431518555,-0.29984417557716,-0.18386285007000,9.76597023010254,-5.38054990768433,0.00897084921598,-0.33028861880302
368,934547988,-1.00510203838348,1.76619195938110,34.80438232421875,-0.29777425527573,-0.19233113527298,9.78087234497070,-5.26536989212036,0.10262369364500,-0.37377899885178
369,934564655,-1.00417757034302,1.76608729362488,34.76433563232422,-0.30003449320793,-0.19503469765186,9.76996707916260,-5.30211162567139,0.11318893730640,-0.32222062349319
370,934581322,-1.00279843807220,1.76640844345093,34.72164154052734,-0.29350125789642,-0.17074587941170,9.77678012847900,-5.27234840393066,0.14095309376717,-0.42246872186661
371,934597989,-1.00170624256134,1.76623356342316,34.68429183959961,-0.28747308254242,-0.19911780953407,9.79732227325439,-5.29490089416504,0.10661927610636,-0.21652978658676
372,934614656,-1.00055515766144,1.76646864414215,34.64051437377930,-0.29214128851891,-0.18269307911396,9.78374099731445,-5.28888225555420,0.13470362126827,-0.34162226319313
373,934631323,-1.00013077259064,1.76706111431122,34.60004806518555,-0.28420588374138,-0.19041731953621,9.76962089538574,-5.32959413528442,0.15647442638874,-0.39963501691818
374,934647990,-0.99941784143448,1.76676189899445,34.57113647460938,-0.30637580156326,-0.18014504015446,9.76745128631592,-5.31283044815063,0.10204741358757,-0.37400949001312
375,934664657,-1.00028955936432,1.76638495922089,34.54297256469727,-0.28737559914589,-0.18317514657974,9.78965759277344,-5.40822458267212,0.09816709160805,-0.36988583207130
376,934681324,-0.99950045347214,1.76715886592865,34.51476669311523,-0.29616075754166,-0.19000050425529,9.78610897064209,-5.31098556518555,0.16550287604332,-0.30874833464622
377,934697991,-0.99888807535172,1.76688230037689,34.48889541625977,-0.29471942782402,-0.18778817355633,9.76325416564941,-5.32020664215088,0.10346891731024,-0.34479820728302
378,934714658,-0.99839043617249,1.76676499843597,34.46592712402344,-0.28952893614769,-0.18498578667641,9.77937126159668,-5.32552099227905,0.11391888558865,-0.40770298242569
379,934731325,-0.99850344657898,1.76670372486115,34.44289398193359,-0.30035698413849,-0.17602962255478,9.76546955108643,-5.36363220214844,0.11512269079685,-0.30142304301262
380,934747992,-0.99826002120972,1.76749241352081,34.41613769531250,-0.29734715819359,-0.19100926816463,9.77642536163330,-5.34341144561768,0.16706526279449,-0.31292322278023
381,934764659,-0.99763047695160,1.76626825332642,34.39857864379883,-0.30095204710960,-0.18012920022011,9.76504707336426,-5.31705665588379,0.04760761186481,-0.39142614603043
382,934781326,-0.99809396266937,1.76650178432465,34.38016891479492,-0.27755093574524,-0.19279439747334,9.76886940002441,-5.38572406768799,0.13347420096397,-0.31499785184860
383,934797993,-0.99849963188171,1.76663506031036,34.36320877075195,-0.30419570207596,-0.19303631782532,9.77546882629395,-5.38263797760010,0.12685331702232,-0.30166640877724
384,934814660,-0.99900579452515,1.76683843135834,34.34211730957031,-0.30245134234428,-0.18100480735302,9.76612854003906,-5.38732481002808,0.13307718932629,-0.33587217330933
385,934831327,-0.99793720245361,1.76642894744873,34.32361984252930,-0.31245106458664,-0.18766413629055,9.77715110778809,-5.29249382019043,0.09529846906662,-0.34358158707619
386,934847994,-0.99680548906326,1.76607739925385,34.31937026977539,-0.30978131294250,-0.17540155351162,9.77122688293457,-5.29099464416504,0.09689925611019,-0.25733080506325
387,934864661,-0.99612694978714,1.76620101928711,34.30683135986328,-0.30359709262848,-0.18754869699478,9.76402187347412,-5.31444358825684,0.12774975597858,-0.37161466479301
388,934881328,-0.99586808681488,1.76520240306854,34.29550170898438,-0.29807734489441,-0.18161316215992,9.76270675659180,-5.34321975708008,0.05937664955854,-0.29188233613968
389,934897995,-0.99620038270950,1.76490342617035,34.28391647338867,-0.30071890354156,-0.19196987152100,9.78048610687256,-5.37894916534424,0.10090763866901,-0.27577197551727
390,934914662,-0.99516457319260,1.76519036293030,34.27410888671875,-0.28831240534782,-0.19179973006248,9.76402473449707,-5.29464530944824,0.13644528388977,-0.33973971009254
391,934931329,-0.99498462677002,1.76560020446777,34.25847244262695,-0.29995778203011,-0.18081289529800,9.77852153778076,-5.34701013565063,0.14374488592148,-0.30608460307121
392,934947996,-0.99444544315338,1.76428723335266,34.24357986450195,-0.28504094481468,-0.18418656289577,9.77988147735596,-5.32267904281616,0.04197281971574,-0.37422725558281
393,934964663,-0.99460011720657,1.76456189155579,34.23252487182617,-0.29225465655327,-0.19604361057281,9.79779720306396,-5.36648893356323,0.13653492927551,-0.33607709407806
394,934981330,-0.99462389945984,1.76499927043915,34.21764373779297,-0.28890562057495,-0.17813736200333,9.78932380676270,-5.36072587966919,0.14485906064510,-0.27241674065590
395,934997997,-0.99514055252075,1.76545822620392,34.20591735839844,-0.29760748147964,-0.18404382467270,9.77793407440186,-5.38519859313965,0.14830395579338,-0.41180104017258
396,935014664,-0.99550873041153,1.76580893993378,34.19768524169922,-0.29785946011543,-0.18426090478897,9.78952789306641,-5.37816762924194,0.14050488173962,-0.36527556180954
397,935031331,-0.99480074644089,1.76647269725800,34.18540954589844,-0.30472645163536,-0.19165705144405,9.78118324279785,-5.31171560287476,0.16066206991673,-0.39976307749748
398,935047998,-0.99516582489014,1.76608288288116,34.18240356445312,-0.29597249627113,-0.18825113773346,9.75832843780518,-5.37841176986694,0.09680961817503,-0.33899691700935
399,935064665,-0.99468833208084,1.76522123813629,34.17280197143555,-0.29242697358131,-0.18354825675488,9.76541996002197,-5.32732725143433,0.06814900785685,-0.36172822117805
400,935081332,-0.99450200796127,1.76615536212921,34.16075515747070,-0.30749318003654,-0.19426476955414,9.76264572143555,-5.34597301483154,0.17531254887581,-0.30240917205811
401,935097999,-0.99450361728668,1.76522660255432,34.15073776245117,-0.28713458776474,-0.19008614122868,9.75262260437012,-5.35560321807861,0.06476811319590,-0.38740491867065
402,935114666,-0.99475914239883,1.76586031913757,34.14075851440430,-0.28903383016586,-0.19559627771378,9.76639556884766,-5.37122774124146,0.15819045901299,-0.35216188430786
403,935131333,-0.99479264020920,1.76741397380829,34.13358306884766,-0.28300997614861,-0.17677502334118,9.75441551208496,-5.35939359664917,0.21187467873096,-0.31229567527771
404,935148000,-0.99369448423386,1.76701891422272,34.12519454956055,-0.30142718553543,-0.18086276948452,9.76231098175049,-5.29283905029297,0.09541370719671,-0.29726102948189
405,935164667,-0.99321359395981,1.76591837406158,34.12178421020508,-0.29135981202126,-0.17932423949242,9.76961135864258,-5.32759571075439,0.05369062349200,-0.33795961737633
406,935181334,-0.99348562955856,1.76642155647278,34.11219024658203,-0.30463308095932,-0.19207455217838,9.77243137359619,-5.37308406829834,0.15044261515141,-0.34636056423187
407,935198001,-0.99233281612396,1.76723718643188,34.10357284545898,-0.29936516284943,-0.19867341220379,9.75332641601562,-5.28694915771484,0.16825625300407,-0.34256991744041
408,935214668,-0.99111133813858,1.76729691028595,34.09963607788086,-0.30993208289146,-0.17103768885136,9.77317523956299,-5.28486061096191,0.12307543307543,-0.31262862682343
409,935231335,-0.99041777849197,1.76716947555542,34.09427261352539,-0.29226857423782,-0.18829503655434,9.78948211669922,-5.31522417068481,0.11219003051519,-0.33638438582420
410,935248002,-0.99065351486206,1.76668274402618,34.08877944946289,-0.29637548327446,-0.18544556200504,9.77197647094727,-5.37154722213745,0.09034240245819,-0.32338598370552
411,935264669,-0.98985654115677,1.76684749126434,34.08190155029297,-0.29307591915131,-0.19173423945904,9.76333236694336,-5.30862951278687,0.13001647591591,-0.36081895232201
412,935281336,-0.99005514383316,1.76861619949341,34.07497024536133,-0.28597232699394,-0.18853700160980,9.79983520507812,-5.36951208114624,0.22500121593475,-0.30208906531334
413,935298003,-0.98877447843552,1.76821732521057,34.06895828247070,-0.30332672595978,-0.18274612724781,9.78887081146240,-5.27980232238770,0.09591317176819,-0.33420735597610
414,935314670,-0.98859125375748,1.76783370971680,34.06318283081055,-0.29441595077515,-0.18307331204414,9.76980304718018,-5.34620332717896,0.09613087773323,-0.31050279736519
415,935331337,-0.98714184761047,1.76813137531281,34.05842590332031,-0.29614809155464,-0.18286699056625,9.76861572265625,-5.27137613296509,0.13709841668606,-0.31705969572067
416,935348004,-0.98659950494766,1.76877808570862,34.05319976806641,-0.31072974205017,-0.18563322722912,9.76949405670166,-5.32202434539795,0.16036751866341,-0.39964780211449
417,935364671,-0.98610687255859,1.76848042011261,34.04965972900391,-0.30853530764580,-0.19374172389507,9.76765632629395,-5.32900524139404,0.10081800818443,-0.28491574525833
418,935381338,-0.98563194274902,1.76862072944641,34.04574203491211,-0.29394418001175,-0.18657530844212,9.76482200622559,-5.32860851287842,0.12763451039791,-0.36418706178665
419,935398005,-0.98636984825134,1.76921522617340,34.03722381591797,-0.29766100645065,-0.18898403644562,9.76986980438232,-5.39910602569580,0.15583409368992,-0.36996269226074
420,935414672,-0.98518800735474,1.76958978176117,34.03178024291992,-0.30520880222321,-0.18390150368214,9.77127265930176,-5.28702545166016,0.14195199310780,-0.31939041614532
421,935431339,-0.98439878225327,1.76936638355255,34.02834701538086,-0.30302771925926,-0.19112581014633,9.77004528045654,-5.30933427810669,0.10592774301767,-0.33192783594131
422,935448006,-0.98474019765854,1.76912653446198,34.02466964721680,-0.30136212706566,-0.19854627549648,9.75506210327148,-5.37944841384888,0.10363539308310,-0.28132992982864
423,935464673,-0.98414182662964,1.76832008361816,34.02005004882812,-0.29581150412560,-0.19129922986031,9.78476715087891,-5.32107734680176,0.07076148688793,-0.31563815474510
424,935481340,-0.98351204395294,1.76804363727570,34.01594161987305,-0.28409892320633,-0.18622501194477,9.79210853576660,-5.31950187683105,0.10335365682840,-0.32966107130051
425,935498007,-0.98349237442017,1.76836133003235,34.01187133789062,-0.29380804300308,-0.19508573412895,9.79204750061035,-5.35564184188843,0.13798204064369,-0.32158029079437
426,935514674,-0.98471236228943,1.76817703247070,34.00649261474609,-0.31195780634880,-0.19483625888824,9.78665161132812,-5.42999553680420,0.10852742940187,-0.34888345003128
427,935531341,-0.98431766033173,1.76770174503326,34.00311660766602,-0.30009385943413,-0.19461029767990,9.79268932342529,-5.33448600769043,0.08903616666794,-0.26388767361641
428,935548008,-0.98449474573135,1.76689553260803,33.99864578247070,-0.30280682444572,-0.17135031521320,9.76817035675049,-5.36794853210449,0.07118409872055,-0.33201745152473
429,935564675,-0.98471438884735,1.76556062698364,33.99405288696289,-0.30549597740173,-0.17376980185509,9.77805328369141,-5.36727046966553,0.04084585979581,-0.42684850096703
430,935581342,-0.98601979017258,1.76469564437866,33.98982238769531,-0.28817132115364,-0.18811868131161,9.77495384216309,-5.43493890762329,0.06747025996447,-0.35047140717506
431,935598009,-0.98480296134949,1.76536798477173,33.98486709594727,-0.29473099112511,-0.18718667328358,9.78174018859863,-5.28408050537109,0.15977846086025,-0.32671564817429
432,935614676,-0.98445558547974,1.76448082923889,33.97998428344727,-0.31010469794273,-0.18681262433529,9.77730464935303,-5.33311510086060,0.06734219938517,-0.42295533418655
433,935631343,-0.98370927572250,1.76423418521881,33.97353363037109,-0.30918842554092,-0.17612396180630,9.76963233947754,-5.31185674667358,0.10465990751982,-0.32986602187157
434,935648010,-0.98312717676163,1.76419663429260,33.96809387207031,-0.29438093304634,-0.18973642587662,9.78463363647461,-5.32210206985474,0.11690278351307,-0.34049528837204
435,935664677,-0.98332709074020,1.76500749588013,33.96395111083984,-0.30922672152519,-0.17908792197704,9.77716827392578,-5.36929321289062,0.16744944453239,-0.30919656157494
436,935681344,-0.98226565122604,1.76526856422424,33.95972061157227,-0.30564734339714,-0.20025239884853,9.77308368682861,-5.29209613800049,0.13565126061440,-0.37908080220222
437,935698011,-0.98259764909744,1.76492011547089,33.95546722412109,-0.30159839987755,-0.17467814683914,9.79536056518555,-5.37677145004272,0.09838478267193,-0.32085034251213
438,935714678,-0.98319143056870,1.76421463489532,33.95220947265625,-0.28080174326897,-0.17423708736897,9.77720546722412,-5.39325380325317,0.07643470168114,-0.33844625949860
439,935731345,-0.98286527395248,1.76309788227081,33.95020294189453,-0.29763716459274,-0.18171021342278,9.77367877960205,-5.33882713317871,0.05133426189423,-0.29133167862892
440,935748012,-0.98205494880676,1.76312053203583,33.94472503662109,-0.29893895983696,-0.19240720570087,9.77354621887207,-5.30745124816895,0.12071906030178,-0.35433894395828
441,935764679,-0.98084604740143,1.76371753215790,33.94104385375977,-0.32359024882317,-0.18828389048576,9.76538467407227,-5.28355503082275,0.15533463656902,-0.36188188195229
442,935781346,-0.98055434226990,1.76468217372894,33.93814849853516,-0.28422266244888,-0.18138310313225,9.75579357147217,-5.33781528472900,0.17838606238365,-0.36631286144257
443,935798013,-0.98072469234467,1.76540863513947,33.93411254882812,-0.28801107406616,-0.19296604394913,9.77061653137207,-5.36680936813354,0.16283915936947,-0.35392916202545
444,935814680,-0.98042017221451,1.76552057266235,33.93318939208984,-0.29230856895447,-0.17545543611050,9.77109241485596,-5.34250259399414,0.12384383380413,-0.21277754008770
445,935831347,-0.97914165258408,1.76582670211792,33.92886734008789,-0.29824402928352,-0.18658810853958,9.76828861236572,-5.28050661087036,0.13828939199448,-0.33790835738182
446,935848014,-0.97965925931931,1.76554644107819,33.92473602294922,-0.30447748303413,-0.18504306674004,9.76173877716064,-5.38651800155640,0.10323841124773,-0.37773618102074
447,935864681,-0.97976738214493,1.76517784595490,33.92100143432617,-0.30627036094666,-0.19426314532757,9.77583789825439,-5.36497735977173,0.09600280970335,-0.28432661294937
448,935881348,-0.97937250137329,1.76555812358856,33.91772842407227,-0.29978322982788,-0.19503295421600,9.77577877044678,-5.33206558227539,0.14255391061306,-0.35969197750092
449,935898015,-0.97859656810760,1.76604604721069,33.91455459594727,-0.29720449447632,-0.18772630393505,9.77169990539551,-5.31021785736084,0.14843200147152,-0.35047140717506
450,935914682,-0.97731029987335,1.76542389392853,33.91288757324219,-0.29884648323059,-0.19239592552185,9.77307510375977,-5.27768993377686,0.08296594768763,-0.38649573922157
451,935931349,-0.97677874565125,1.76542603969574,33.90975570678711,-0.30556961894035,-0.19149075448513,9.75501823425293,-5.32254981994629,0.12052698433399,-0.41072529554367
452,935948016,-0.97573232650757,1.76558268070221,33.90491104125977,-0.30288127064705,-0.18609644472599,9.78304481506348,-5.29308223724365,0.12887670099735,-0.38393437862396
453,935964683,-0.97635900974274,1.76521813869476,33.90135192871094,-0.29754647612572,-0.18511350452900,9.78943729400635,-5.39368963241577,0.09780850261450,-0.36745259165764
454,935981350,-0.97601675987244,1.76641380786896,33.89821624755859,-0.28880873322487,-0.18440310657024,9.77132129669189,-5.33790540695190,0.18982215225697,-0.26755031943321
455,935998017,-0.97621816396713,1.76582574844360,33.89333724975586,-0.28654056787491,-0.19186227023602,9.76464080810547,-5.36628389358521,0.08484848588705,-0.41778159141541
456,936014684,-0.97580128908157,1.76647150516510,33.89303970336914,-0.31036639213562,-0.19068832695484,9.76498413085938,-5.33412742614746,0.15655125677586,-0.25546109676361
457,936031351,-0.97588151693344,1.76645171642303,33.89123153686523,-0.29470980167389,-0.18965670466423,9.79194164276123,-5.36354303359985,0.11690278351307,-0.27055978775024
458,936048018,-0.97622954845428,1.76521325111389,33.88831710815430,-0.30149462819099,-0.18066421151161,9.76695537567139,-5.37791204452515,0.04447006061673,-0.31880131363869
459,936064685,-0.97605901956558,1.76465547084808,33.88699722290039,-0.28916162252426,-0.18614178895950,9.76641845703125,-5.34605026245117,0.08614192903042,-0.34856325387955
460,936081352,-0.97677803039551,1.76486754417419,33.88389587402344,-0.30098608136177,-0.16655254364014,9.77245998382568,-5.39941310882568,0.13168129324913,-0.35654160380363
461,936098019,-0.97682994604111,1.76479709148407,33.88034439086914,-0.30250453948975,-0.19079715013504,9.76171016693115,-5.36048269271851,0.11494341492653,-0.33283710479736
462,936114686,-0.97676903009415,1.76413762569427,33.87857055664062,-0.30076342821121,-0.18703265488148,9.76348590850830,-5.35416889190674,0.07876545935869,-0.33160766959190
463,936131353,-0.97519648075104,1.76392364501953,33.87348175048828,-0.30908855795860,-0.19877989590168,9.78345775604248,-5.25835227966309,0.10842497646809,-0.43888649344444
464,936148020,-0.97480750083923,1.76227891445160,33.87134170532227,-0.29976695775986,-0.17361813783646,9.78555202484131,-5.33091306686401,0.02129056118429,-0.40770304203033
465,936164687,-0.97507685422897,1.76260900497437,33.87071228027344,-0.30189222097397,-0.18967351317406,9.78846549987793,-5.37267446517944,0.13880163431168,-0.32937937974930
466,936181354,-0.97530579566956,1.76370847225189,33.86961746215820,-0.29450261592865,-0.17306675016880,9.76385021209717,-5.37135505676270,0.18380317091942,-0.28605547547340
467,936198021,-0.97449535131454,1.76269197463989,33.86864852905273,-0.29377770423889,-0.17572410404682,9.77458000183105,-5.30792522430420,0.05878755077720,-0.34990793466568
468,936214688,-0.97351336479187,1.76267838478088,33.86410522460938,-0.29705667495728,-0.18863002955914,9.78120803833008,-5.29604101181030,0.11932317912579,-0.36277836561203
469,936231355,-0.97233486175537,1.76150035858154,33.86060714721680,-0.27876093983650,-0.17693649232388,9.77294540405273,-5.28533554077148,0.04836318641901,-0.36011460423470
470,936248022,-0.97094279527664,1.76299750804901,33.85791778564453,-0.28941255807877,-0.19563728570938,9.78417778015137,-5.27118349075317,0.21058122813702,-0.39972463250160
471,936264689,-0.97061705589294,1.76310086250305,33.85639190673828,-0.29945215582848,-0.16622005403042,9.74501037597656,-5.33812189102173,0.12442009896040,-0.31228286027908
472,936281356,-0.97032582759857,1.76288151741028,33.85519409179688,-0.28157210350037,-0.19343268871307,9.76342201232910,-5.34020948410034,0.10532583296299,-0.30835130810738
473,936298023,-0.97064888477325,1.76262259483337,33.85241699218750,-0.29490152001381,-0.18562692403793,9.77194690704346,-5.37447977066040,0.10377626121044,-0.39283481240273
474,936314690,-0.97023510932922,1.76209187507629,33.84935760498047,-0.29124528169632,-0.18415409326553,9.77427005767822,-5.32986259460449,0.08844706416130,-0.41167297959328
475,936331357,-0.97010952234268,1.76166403293610,33.84769439697266,-0.29569867253304,-0.18024361133575,9.76910591125488,-5.34798336029053,0.09350556135178,-0.35104766488075
476,936348024,-0.97180634737015,1.76249492168427,33.84580230712891,-0.29000625014305,-0.18269051611423,9.79437637329102,-5.45866823196411,0.16965211927891,-0.35236671566963
477,936364691,-0.97124749422073,1.76275229454041,33.84253311157227,-0.30354937911034,-0.18015620112419,9.75336360931396,-5.32038593292236,0.13485728204250,-0.38070720434189
478,936381358,-0.97091633081436,1.76250362396240,33.83803939819336,-0.29201129078865,-0.17028519511223,9.78359603881836,-5.33848094940186,0.10432693362236,-0.30135902762413
479,936398025,-0.98552340269089,1.76500022411346,33.85157394409180,-0.30208456516266,-0.18675656616688,9.77720069885254,-5.32425355911255,0.07126095145941,-0.32838046550751
480,936414692,-0.98479098081589,1.76413488388062,33.85142135620117,-0.30137372016907,-0.18720230460167,9.78935527801514,-5.31280422210693,0.06557492911816,-0.28392961621284
481,936431359,-0.98503118753433,1.76346874237061,33.85049819946289,-0.28831502795219,-0.19515679776669,9.76718521118164,-5.36878108978271,0.07940577715635,-0.36277833580971
482,936448026,-0.98469388484955,1.76418602466583,33.84975814819336,-0.30281892418861,-0.18989153206348,9.78583049774170,-5.33558654785156,0.16195552051067,-0.33532148599625
483,936464693,-0.98410499095917,1.76420903205872,33.84851074218750,-0.30310514569283,-0.19773384928703,9.77361583709717,-5.31964302062988,0.12066784501076,-0.32341158390045
484,936481360,-0.98363232612610,1.76426255702972,33.84583663940430,-0.29313680529594,-0.18034362792969,9.78627204895020,-5.32645606994629,0.12206374108791,-0.34064894914627
485,936498027,-0.98422354459763,1.76506352424622,33.84391784667969,-0.30936241149902,-0.19320346415043,9.76204109191895,-5.38808012008667,0.16838432848454,-0.38552239537239
486,936514694,-0.98409950733185,1.76573348045349,33.84412384033203,-0.31167262792587,-0.19118036329746,9.77156829833984,-5.34875249862671,0.15883076190948,-0.29468694329262
487,936531361,-0.98342454433441,1.76472127437592,33.84404373168945,-0.30149686336517,-0.17979393899441,9.78518486022949,-5.31599283218384,0.05673853680491,-0.29991191625595
488,936548028,-0.98362463712692,1.76418304443359,33.83872985839844,-0.29927310347557,-0.20251549780369,9.77541828155518,-5.36547756195068,0.08753781765699,-0.37555909156799
489,936564695,-0.98375868797302,1.76503098011017,33.83759307861328,-0.29322263598442,-0.17652922868729,9.75625228881836,-5.36109685897827,0.17127855122089,-0.40122300386429
490,936581362,-0.98324704170227,1.76428925991058,33.83677291870117,-0.29254698753357,-0.18773756921291,9.77729606628418,-5.32365083694458,0.07437288016081,-0.34892183542252
491,936598029,-0.98358440399170,1.76480889320374,33.83821868896484,-0.29051855206490,-0.19717888534069,9.78277683258057,-5.37661838531494,0.14943090081215,-0.27068781852722
492,936614696,-0.98414874076843,1.76450657844543,33.83735275268555,-0.30761462450027,-0.19074323773384,9.76532173156738,-5.38920736312866,0.09985753148794,-0.29531449079514
493,936631363,-0.98426729440689,1.76372587680817,33.83363342285156,-0.29028952121735,-0.19199582934380,9.77314949035645,-5.36144351959229,0.07214459031820,-0.34086668491364
494,936648030,-0.98316520452499,1.76277220249176,33.82993698120117,-0.29321676492691,-0.19280768930912,9.75634288787842,-5.28694868087769,0.06346186995506,-0.42168751358986
495,936664697,-0.98266679048538,1.76288831233978,33.82895660400391,-0.28927251696587,-0.18543130159378,9.77013969421387,-5.32571268081665,0.12557266652584,-0.31549724936485
496,936681364,-0.98188751935959,1.76382982730865,33.82744216918945,-0.28608387708664,-0.19597102701664,9.76665687561035,-5.30585050582886,0.17619617283344,-0.40370741486549
497,936698031,-0.98279774188995,1.76379382610321,33.82796859741211,-0.29789870977402,-0.19881552457809,9.76453208923340,-5.41158008575439,0.11578862369061,-0.27089273929596
498,936714698,-0.98286414146423,1.76491296291351,33.82638549804688,-0.30214294791222,-0.18914382159710,9.79627037048340,-5.36116123199463,0.18484045565128,-0.26536041498184
499,936731365,-0.98200970888138,1.76577293872833,33.82629776000977,-0.30129939317703,-0.19042773544788,9.76740074157715,-5.30355834960938,0.17045895755291,-0.31956970691681
500,936748032,-0.98180812597275,1.76536607742310,33.82398223876953,-0.29201671481133,-0.18701601028442,9.75955104827881,-5.34303998947144,0.09432517737150,-0.32648509740829
501,936764699,-0.98162764310837,1.76543819904327,33.82544708251953,-0.29405239224434,-0.18217967450619,9.76106262207031,-5.34260511398315,0.12369015067816,-0.36326497793198
502,936781366,-0.98134857416153,1.76574313640594,33.82522964477539,-0.29453313350677,-0.18697942793369,9.78016185760498,-5.33969783782959,0.13613791763783,-0.30498325824738
503,936798033,-0.98091685771942,1.76410257816315,33.82309722900391,-0.29160189628601,-0.18460392951965,9.77543067932129,-5.32826232910156,0.02041972801089,-0.35905164480209
504,936814700,-0.97900813817978,1.76386392116547,33.82181549072266,-0.29058146476746,-0.19209808111191,9.78553962707520,-5.24012899398804,0.10496726632118,-0.33042949438095
505,936831367,-0.97816580533981,1.76369845867157,33.81803512573242,-0.29607275128365,-0.19094382226467,9.78575325012207,-5.30190563201904,0.10955192893744,-0.38157802820206
506,936848034,-0.97848385572433,1.76310145854950,33.81638717651367,-0.30159330368042,-0.18981090188026,9.81383037567139,-5.37355852127075,0.08291472494602,-0.32414153218269
507,936864701,-0.97897166013718,1.76250600814819,33.81385803222656,-0.30521953105927,-0.17333154380322,9.77019596099854,-5.38382863998413,0.08355504274368,-0.35605496168137
508,936881368,-0.97968500852585,1.76177716255188,33.81365203857422,-0.29510110616684,-0.18951743841171,9.76377582550049,-5.39894008636475,0.07409114390612,-0.24919879436493
509,936898035,-0.97912526130676,1.76209414005280,33.81267547607422,-0.30267873406410,-0.17457450926304,9.78228092193604,-5.32226848602295,0.13732890784740,-0.33588498830795
510,936914702,-0.97888875007629,1.76105749607086,33.81041336059570,-0.29798325896263,-0.18117105960846,9.78808021545410,-5.34085083007812,0.05641838535666,-0.32210537791252
511,936931369,-0.97846430540085,1.76114296913147,33.80910873413086,-0.30790135264397,-0.20125842094421,9.78156089782715,-5.33000326156616,0.12406151741743,-0.32569110393524
512,936948036,-0.97851264476776,1.76096487045288,33.80904769897461,-0.30375742912292,-0.19197443127632,9.75775241851807,-5.35804939270020,0.10804078727961,-0.33370792865753
513,936964703,-0.97849524021149,1.76139163970947,33.80899429321289,-0.29571318626404,-0.17928531765938,9.77564048767090,-5.35333681106567,0.14542250335217,-0.36070364713669
514,936981370,-0.97755122184753,1.76070249080658,33.80785751342773,-0.29513728618622,-0.19723545014858,9.77921104431152,-5.29834604263306,0.07712624967098,-0.33670461177826
515,936998037,-0.97684109210968,1.76150763034821,33.80636215209961,-0.29340833425522,-0.19871434569359,9.78374671936035,-5.31258678436279,0.16689880192280,-0.31398615241051
516,937014704,-0.97663092613220,1.76189243793488,33.80680084228516,-0.30386668443680,-0.18558774888515,9.77716350555420,-5.34392404556274,0.14109396934509,-0.30130779743195
517,937031371,-0.97707062959671,1.76138520240784,33.80265426635742,-0.29836738109589,-0.18998244404793,9.78182506561279,-5.38113927841187,0.08907457441092,-0.36758071184158
518,937048038,-0.97664308547974,1.76101326942444,33.80081939697266,-0.29633054137230,-0.17860479652882,9.79192447662354,-5.32940196990967,0.09604123234749,-0.30541867017746
519,937064705,-0.97607535123825,1.76121079921722,33.79899978637695,-0.28153434395790,-0.19156761467457,9.77665042877197,-5.32005310058594,0.13189901411533,-0.35519698262215
520,937081372,-0.97663700580597,1.76259922981262,33.79579162597656,-0.30315461754799,-0.17792554199696,9.77248096466064,-5.38685131072998,0.20261569321156,-0.38269218802452
521,937098039,-0.97743999958038,1.76311063766479,33.79646682739258,-0.29078611731529,-0.19406171143055,9.77259159088135,-5.40413904190063,0.14829112589359,-0.28226476907730
522,937114706,-0.97700595855713,1.76411175727844,33.79393005371094,-0.29234352707863,-0.17535857856274,9.76674747467041,-5.32781457901001,0.17882151901722,-0.33994463086128
523,937131373,-0.97638261318207,1.76452112197876,33.79478073120117,-0.29683253169060,-0.18501336872578,9.77102184295654,-5.32141017913818,0.14124764502048,-0.22760728001595
524,937148040,-0.97609806060791,1.76483178138733,33.79557418823242,-0.29434105753899,-0.17858903110027,9.76957225799561,-5.33880138397217,0.13621474802494,-0.28099697828293
525,937164707,-0.97642195224762,1.76589441299438,33.79336547851562,-0.30165517330170,-0.17953827977180,9.79156303405762,-5.37065124511719,0.18460994958878,-0.44808137416840
526,937181374,-0.97659164667130,1.76634097099304,33.79126358032227,-0.29363712668419,-0.19702444970608,9.78758239746094,-5.36327362060547,0.14624212682247,-0.37362530827522
527,937198041,-0.97724360227585,1.76625669002533,33.78983306884766,-0.30579152703285,-0.18393446505070,9.77882671356201,-5.39184522628784,0.11450800299644,-0.38872396945953
528,937214708,-0.97732174396515,1.76572215557098,33.78727340698242,-0.30047383904457,-0.19934152066708,9.77675819396973,-5.36045694351196,0.08671820908785,-0.31478011608124
529,937231375,-0.97834199666977,1.76533460617065,33.78619766235352,-0.30194237828255,-0.16389207541943,9.78039932250977,-5.41613912582397,0.09500391781330,-0.32074788212776
530,937248042,-0.97879248857498,1.76557397842407,33.78571319580078,-0.30754742026329,-0.19930961728096,9.77066326141357,-5.38177919387817,0.13265459239483,-0.30226832628250
531,937264709,-0.97858929634094,1.76565611362457,33.78503036499023,-0.29965999722481,-0.18861122429371,9.76849937438965,-5.34374475479126,0.12271686643362,-0.30368983745575
532,937281376,-0.97867858409882,1.76640236377716,33.78184127807617,-0.31224316358566,-0.18303275108337,9.77779006958008,-5.35646104812622,0.16578462719917,-0.43277785181999
533,937298043,-0.98013335466385,1.76716935634613,33.78089523315430,-0.30012837052345,-0.17875878512859,9.78919982910156,-5.44295549392700,0.16324898600578,-0.28608110547066
534,937314710,-0.98150670528412,1.76770281791687,33.78078842163086,-0.29470658302307,-0.18727169930935,9.79657077789307,-5.43911361694336,0.15026333928108,-0.28473645448685
535,937331377,-0.98074764013290,1.76699376106262,33.77874755859375,-0.30975911021233,-0.18215008080006,9.77665615081787,-5.30691385269165,0.07711344957352,-0.39667674899101
536,937348044,-0.98077493906021,1.76842999458313,33.77914428710938,-0.30929675698280,-0.17734517157078,9.78195095062256,-5.35722970962524,0.20444700121880,-0.30667367577553
537,937364711,-0.98128056526184,1.76766109466553,33.77845764160156,-0.30263844132423,-0.18484707176685,9.78102493286133,-5.38576269149780,0.07152988761663,-0.32223346829414
538,937381378,-0.98157823085785,1.76748001575470,33.77603530883789,-0.30631399154663,-0.17664280533791,9.77409553527832,-5.37285327911377,0.10810481011868,-0.35707950592041
539,937398045,-0.98175752162933,1.76656126976013,33.77669525146484,-0.29918688535690,-0.17582243680954,9.78080749511719,-5.36604070663452,0.06278313696384,-0.30733963847160
540,937414712,-0.98154652118683,1.76581585407257,33.77326202392578,-0.29988503456116,-0.18749248981476,9.79107284545898,-5.34074783325195,0.07492356002331,-0.37094879150391
541,937431379,-0.98112416267395,1.76583480834961,33.77044296264648,-0.30641445517540,-0.18688221275806,9.77006721496582,-5.32835197448730,0.12032207846642,-0.38112983107567
542,937448046,-0.98151677846909,1.76599478721619,33.76858139038086,-0.29268997907639,-0.17937411367893,9.78592491149902,-5.37745046615601,0.12919688224792,-0.36784964799881
543,937464713,-0.98146802186966,1.76522445678711,33.76744842529297,-0.30695602297783,-0.18573455512524,9.78308391571045,-5.35290145874023,0.07234948128462,-0.32589602470398
544,937481380,-0.98176103830338,1.76539659500122,33.76648330688477,-0.29660946130753,-0.18369029462337,9.79855251312256,-5.36920404434204,0.12983720004559,-0.41629603505135
545,937498047,-0.98035073280334,1.76680362224579,33.76671981811523,-0.30088403820992,-0.18017196655273,9.75843429565430,-5.27109432220459,0.20338408648968,-0.33985498547554
546,937514714,-0.97991359233856,1.76684594154358,33.76274490356445,-0.28632697463036,-0.17627620697021,9.77810382843018,-5.32579040527344,0.12322911620140,-0.42455619573593
547,937531381,-0.98010206222534,1.76803946495056,33.76019668579102,-0.29351225495338,-0.19412986934185,9.78908538818359,-5.36435031890869,0.19075702130795,-0.37730073928833
548,937548048,-0.98096489906311,1.76914465427399,33.75901794433594,-0.29304492473602,-0.17949721217155,9.77985763549805,-5.40559911727905,0.18654373288155,-0.38244888186455
549,937564715,-0.98151475191116,1.76853835582733,33.75759124755859,-0.29123041033745,-0.18686150014400,9.78605842590332,-5.38667154312134,0.08263298124075,-0.37658357620239
550,937581382,-0.98169934749603,1.76882719993591,33.75641632080078,-0.29036524891853,-0.19117365777493,9.76776123046875,-5.36659097671509,0.13536952435970,-0.30915814638138
551,937598049,-0.98156231641769,1.76936793327332,33.75624847412109,-0.28467547893524,-0.18802319467068,9.78135967254639,-5.34774017333984,0.15127502381802,-0.32882866263390
552,937614716,-0.97963899374008,1.76918423175812,33.75468063354492,-0.27822515368462,-0.18377301096916,9.77434921264648,-5.23711919784546,0.10792553424835,-0.38653412461281
553,937631383,-0.97985476255417,1.76943254470825,33.75487899780273,-0.29140633344650,-0.19106507301331,9.76639461517334,-5.36970281600952,0.13259056210518,-0.27376136183739
554,937648050,-0.97898030281067,1.76857233047485,33.75523376464844,-0.30636253952980,-0.19962012767792,9.78362369537354,-5.30109930038452,0.06750868260860,-0.36907905340195
555,937664717,-0.97904360294342,1.76676332950592,33.75873565673828,-0.29986757040024,-0.17415662109852,9.78422927856445,-5.36020040512085,0.00907330028713,-0.26763993501663
556,937681384,-0.97837144136429,1.76648819446564,33.75650787353516,-0.29779359698296,-0.19135205447674,9.77606487274170,-5.31575012207031,0.10111254453659,-0.28797644376755
557,937698051,-0.97820430994034,1.76637208461761,33.75628280639648,-0.31825745105743,-0.19748124480247,9.76668834686279,-5.34485816955566,0.11124236881733,-0.31351223587990
558,937714718,-0.97811138629913,1.76615571975708,33.75450515747070,-0.29849427938461,-0.18499621748924,9.78766059875488,-5.35045528411865,0.10453184694052,-0.29149818420410
559,937731385,-0.97755986452103,1.76387906074524,33.75045013427734,-0.29718887805939,-0.18196085095406,9.77925682067871,-5.31833648681641,-0.01562374923378,-0.44126844406128
560,937748052,-0.97763872146606,1.76334631443024,33.75032806396484,-0.29648232460022,-0.18316887319088,9.79128646850586,-5.35845947265625,0.08683347702026,-0.37050059437752
561,937764719,-0.97820937633514,1.76349020004272,33.75013351440430,-0.28537732362747,-0.18652063608170,9.76843166351318,-5.38809299468994,0.12787781655788,-0.35354489088058
562,937781386,-0.97733390331268,1.76320123672485,33.75039672851562,-0.30853265523911,-0.18118385970592,9.76853656768799,-5.30099678039551,0.10212425142527,-0.38384473323822
563,937798053,-0.97848659753799,1.76343917846680,33.74916458129883,-0.31026592850685,-0.18367254734039,9.79085731506348,-5.42300271987915,0.13264177739620,-0.34646302461624
564,937814720,-0.97802942991257,1.76342046260834,33.74932098388672,-0.30396229028702,-0.18791614472866,9.77361392974854,-5.32689142227173,0.11760713160038,-0.33725526928902
565,937831387,-0.97635817527771,1.76356446743011,33.74871826171875,-0.29166781902313,-0.17238897085190,9.77022933959961,-5.25331974029541,0.12768574059010,-0.38082250952721
566,937848054,-0.97596043348312,1.76357018947601,33.74623870849609,-0.29184395074844,-0.18827760219574,9.76725292205811,-5.32915830612183,0.12001471221447,-0.39621567726135
567,937864721,-0.97499960660934,1.76388597488403,33.74588012695312,-0.29431632161140,-0.17467458546162,9.79057121276855,-5.29707860946655,0.13734170794487,-0.32523009181023
568,937881388,-0.97496211528778,1.76411652565002,33.74666213989258,-0.29505521059036,-0.19765697419643,9.78490734100342,-5.35347747802734,0.13193744421005,-0.30582851171494
569,937898055,-0.97441583871841,1.76280045509338,33.74489593505859,-0.27401980757713,-0.18783494830132,9.77751827239990,-5.32005357742310,0.04056411981583,-0.39982715249062
570,937914722,-0.97471892833710,1.76308870315552,33.74436950683594,-0.30144688487053,-0.17873783409595,9.76707744598389,-5.37445449829102,0.13344860076904,-0.24916036427021
571,937931389,-0.97405415773392,1.76294326782227,33.74306106567383,-0.28432619571686,-0.17965824902058,9.75197410583496,-5.31357240676880,0.11075573414564,-0.37484189867973
572,937948056,-0.97386789321899,1.76287603378296,33.74627304077148,-0.29043507575989,-0.19592699408531,9.76045894622803,-5.34491014480591,0.11344506591558,-0.27770572900772
573,937964723,-0.97358071804047,1.76415681838989,33.74483871459961,-0.28354257345200,-0.19141776859760,9.78600788116455,-5.33641910552979,0.19593077898026,-0.37913203239441
574,937981390,-0.97323709726334,1.76451110839844,33.74330139160156,-0.28446400165558,-0.19797837734222,9.76577758789062,-5.33581781387329,0.13985177874565,-0.29431560635567
575,937998057,-0.97398453950882,1.76447653770447,33.74325180053711,-0.29636812210083,-0.17742706835270,9.76517772674561,-5.40057897567749,0.11560933291912,-0.31223163008690
576,938014724,-0.97349351644516,1.76350164413452,33.74089431762695,-0.29879185557365,-0.20635424554348,9.76517391204834,-5.32372808456421,0.06141285225749,-0.39315497875214
577,938031391,-0.97318595647812,1.76304209232330,33.74052047729492,-0.29401040077209,-0.20668135583401,9.76282215118408,-5.33498525619507,0.09194319695234,-0.37593045830727
578,938048058,-0.97314220666885,1.76280832290649,33.74005126953125,-0.28942710161209,-0.16902150213718,9.77016353607178,-5.35236406326294,0.10400678217411,-0.33217111229897
579,938064725,-0.97267550230026,1.76245152950287,33.74107742309570,-0.28105002641678,-0.17667138576508,9.77502250671387,-5.32842826843262,0.09605403244495,-0.28033101558685
580,938081392,-0.97332960367203,1.76240611076355,33.74047088623047,-0.29225206375122,-0.18206860125065,9.78467178344727,-5.39544439315796,0.11512270569801,-0.29557061195374
581,938098059,-0.97308456897736,1.76258170604706,33.73925781250000,-0.29898789525032,-0.18550899624825,9.75032138824463,-5.34017133712769,0.12845411896706,-0.32877743244171
582,938114726,-0.97313421964645,1.76171743869781,33.73911666870117,-0.29805424809456,-0.18800632655621,9.77512264251709,-5.35947084426880,0.06672749668360,-0.30992650985718
583,938131393,-0.97224712371826,1.76214134693146,33.73889541625977,-0.30222478508949,-0.17240312695503,9.77136039733887,-5.29962730407715,0.14479501545429,-0.37440651655197
584,938148060,-0.97113913297653,1.76319169998169,33.73737335205078,-0.30681583285332,-0.18713837862015,9.78206825256348,-5.29067516326904,0.17994846403599,-0.28512060642242
585,938164727,-0.97120189666748,1.76270532608032,33.73597717285156,-0.30643317103386,-0.18345628678799,9.78941154479980,-5.35810041427612,0.08993260562420,-0.33101853728294
586,938181394,-0.97051036357880,1.76296937465668,33.73393630981445,-0.29420137405396,-0.20120915770531,9.77683544158936,-5.31170272827148,0.13471640646458,-0.36528837680817
587,938198061,-0.97140032052994,1.76311051845551,33.73348617553711,-0.30107861757278,-0.18832029402256,9.77279663085938,-5.40951776504517,0.12599527835846,-0.27937054634094
588,938214728,-0.97096359729767,1.76251769065857,33.73254776000977,-0.29785287380219,-0.18133233487606,9.75464153289795,-5.32684040069580,0.08463077247143,-0.39410263299942
589,938231395,-0.97174179553986,1.76277542114258,33.73375701904297,-0.29166555404663,-0.18103206157684,9.78088760375977,-5.40379333496094,0.13244968652725,-0.27354365587234
590,938248062,-0.97058385610580,1.76234579086304,33.73136138916016,-0.30719339847565,-0.18927094340324,9.78685569763184,-5.28238916397095,0.09376169741154,-0.42604166269302
591,938264729,-0.96953862905502,1.76246523857117,33.72782516479492,-0.29928416013718,-0.19125892221928,9.77491950988770,-5.29304409027100,0.12518848478794,-0.29992473125458
592,938281396,-0.96965259313583,1.76301002502441,33.72952270507812,-0.28514277935028,-0.18454135954380,9.77881908416748,-5.36324930191040,0.14993035793304,-0.26930478215218
593,938298063,-0.97035568952560,1.76281476020813,33.72694778442383,-0.28604736924171,-0.19269119203091,9.76252365112305,-5.39431762695312,0.10843776911497,-0.42141860723495
594,938314730,-0.97064214944839,1.76284265518188,33.73018264770508,-0.28609818220139,-0.17618985474110,9.76807880401611,-5.37605476379395,0.11823464184999,-0.21394290030003
595,938331397,-0.96994417905807,1.76266622543335,33.72352600097656,-0.28635352849960,-0.20088596642017,9.77620124816895,-5.30955219268799,0.10980806499720,-0.43668380379677
596,938348064,-0.96918028593063,1.76147115230560,33.72364807128906,-0.28990930318832,-0.17493993043900,9.77127647399902,-5.30989742279053,0.04635258391500,-0.31909584999084
597,938364731,-0.96910399198532,1.76059961318970,33.72287750244141,-0.28073316812515,-0.18739406764507,9.76516628265381,-5.35017395019531,0.06576701998711,-0.32368052005768
598,938381398,-0.96896886825562,1.76030218601227,33.72315216064453,-0.28966921567917,-0.18490941822529,9.77962684631348,-5.34665203094482,0.10120220482349,-0.34817910194397
599,938398065,-0.95823776721954,1.76168835163116,33.72660064697266,-0.29472640156746,-0.18680109083652,9.79167747497559,-5.39795351028442,0.11079414188862,-0.33395120501518
600,938414732,-0.95854276418686,1.76259052753448,33.72483062744141,-0.30337059497833,-0.17506764829159,9.76505470275879,-5.37309694290161,0.17284090816975,-0.37873503565788
601,938431399,-0.95819807052612,1.76234805583954,33.72621154785156,-0.29706943035126,-0.19398060441017,9.78407096862793,-5.33516454696655,0.10377627611160,-0.31964656710625
602,938448066,-0.95764464139938,1.76173865795135,33.72589492797852,-0.28918528556824,-0.19000951945782,9.76802062988281,-5.32365131378174,0.08132673054934,-0.31081014871597
603,938464733,-0.95670962333679,1.76157784461975,33.72442245483398,-0.29500362277031,-0.19494587182999,9.78025627136230,-5.29762887954712,0.10946228355169,-0.36811855435371
604,938481400,-0.95690727233887,1.76312983036041,33.72439575195312,-0.29885029792786,-0.19162508845329,9.75587368011475,-5.36920356750488,0.21085014939308,-0.28432661294937
605,938498067,-0.95587962865829,1.76263165473938,33.72155380249023,-0.29953795671463,-0.19087125360966,9.76791572570801,-5.29155826568604,0.08954840153456,-0.40065947175026
606,938514734,-0.95610857009888,1.76279830932617,33.72113037109375,-0.31049183011055,-0.19535335898399,9.77027225494385,-5.37118864059448,0.12832604348660,-0.31924954056740
607,938531401,-0.95454549789429,1.76213872432709,33.71895217895508,-0.28127714991570,-0.17104621231556,9.77091693878174,-5.26082324981689,0.07909841835499,-0.36361071467400
608,938548068,-0.95507174730301,1.76242482662201,33.71721649169922,-0.29778087139130,-0.19301594793797,9.79123115539551,-5.38635110855103,0.13630439341068,-0.36621040105820
609,938564735,-0.95441478490829,1.76212990283966,33.71714782714844,-0.30567046999931,-0.18312686681747,9.77247333526611,-5.31955432891846,0.09911476075649,-0.24460135400295
610,938581402,-0.95418787002563,1.76218128204346,33.71780014038086,-0.28801557421684,-0.19970598816872,9.78244209289551,-5.34405183792114,0.11968176066875,-0.28422415256500
611,938598069,-0.95359867811203,1.76380038261414,33.71782684326172,-0.30401581525803,-0.18535782396793,9.77342128753662,-5.32082176208496,0.21528118848801,-0.28740015625954
612,938614736,-0.95284277200699,1.76357984542847,33.71546173095703,-0.28802335262299,-0.18893317878246,9.76387500762939,-5.30988454818726,0.10514655709267,-0.36644092202187
613,938631403,-0.95319861173630,1.76329565048218,33.71412658691406,-0.30147632956505,-0.19121401011944,9.77913951873779,-5.37718152999878,0.10144550353289,-0.32955864071846
614,938648070,-0.95303678512573,1.76347756385803,33.71210098266602,-0.29525122046471,-0.18836243450642,9.78021621704102,-5.34469223022461,0.12964509427547,-0.37106400728226
615,938664737,-0.95299285650253,1.76344048976898,33.71116256713867,-0.29497191309929,-0.18054910004139,9.76490592956543,-5.35299110412598,0.11654420197010,-0.36053720116615
616,938681404,-0.95256900787354,1.76419687271118,33.71030044555664,-0.29748183488846,-0.19696071743965,9.75182247161865,-5.33206558227539,0.16364595293999,-0.31463924050331
617,938698071,-0.95333665609360,1.76462006568909,33.70908355712891,-0.29887825250626,-0.18070942163467,9.78412151336670,-5.39995145797729,0.14375768601894,-0.36756786704063
618,938714738,-0.95342367887497,1.76468467712402,33.71025466918945,-0.30664247274399,-0.19467695057392,9.80481147766113,-5.36328697204590,0.12130814790726,-0.27444010972977
619,938731405,-0.95273596048355,1.76419627666473,33.70783996582031,-0.29596656560898,-0.18735423684120,9.78402519226074,-5.31376457214355,0.08994540572166,-0.35802716016769
620,938748072,-0.95329123735428,1.76442122459412,33.70627593994141,-0.28857520222664,-0.17614437639713,9.79154014587402,-5.38980913162231,0.13212953507900,-0.32485872507095
621,938764739,-0.95386391878128,1.76442289352417,33.70568084716797,-0.30517327785492,-0.17774347960949,9.77277278900146,-5.39067983627319,0.11814499646425,-0.31937760114670
622,938781406,-0.95341157913208,1.76471400260925,33.70457839965820,-0.28814318776131,-0.19786526262760,9.75833892822266,-5.32824945449829,0.13533112406731,-0.35330164432526
623,938798073,-0.95389699935913,1.76532232761383,33.70219802856445,-0.28491371870041,-0.18226754665375,9.79038906097412,-5.38531398773193,0.15474553406239,-0.31976178288460
624,938814740,-0.95324552059174,1.76525700092316,33.69977188110352,-0.28172886371613,-0.19235390424728,9.76808547973633,-5.31485319137573,0.11583984643221,-0.39252746105194
625,938831407,-0.95292013883591,1.76509726047516,33.69704437255859,-0.29071357846260,-0.18512549996376,9.77636718750000,-5.33559989929199,0.10916774719954,-0.37416318058968
626,938848074,-0.95276647806168,1.76402461528778,33.69475936889648,-0.28680056333542,-0.17897966504097,9.78629398345947,-5.34648513793945,0.05453585088253,-0.35049706697464
627,938864741,-0.95304811000824,1.76335966587067,33.69293594360352,-0.28375253081322,-0.18375098705292,9.78559017181396,-5.37175226211548,0.07944419980049,-0.36742705106735
628,938881408,-0.95262295007706,1.76244091987610,33.69231796264648,-0.28757840394974,-0.19968545436859,9.78563404083252,-5.33145046234131,0.06259104609489,-0.28779715299606
629,938898075,-0.95217233896255,1.76389181613922,33.69169616699219,-0.29242449998856,-0.18308021128178,9.77362442016602,-5.33004236221313,0.20545870065689,-0.30279335379601
630,938914742,-0.95199090242386,1.76374900341034,33.69089508056641,-0.29087126255035,-0.20298264920712,9.77441883087158,-5.34529399871826,0.10965438187122,-0.33664053678513
631,938931409,-0.95175689458847,1.76338183879852,33.68889999389648,-0.29241618514061,-0.19259993731976,9.77789306640625,-5.34216976165771,0.09656629711390,-0.34840959310532
632,938948076,-0.95159542560577,1.76412701606750,33.68835449218750,-0.30589553713799,-0.18016585707664,9.77808570861816,-5.34442281723022,0.16435030102730,-0.39502468705177
633,938964743,-0.95026320219040,1.76407766342163,33.68604278564453,-0.30174973607063,-0.17925663292408,9.76409530639648,-5.27599906921387,0.11577583104372,-0.32273286581039
634,938981410,-0.95027911663055,1.76535165309906,33.68368530273438,-0.29614615440369,-0.19275353848934,9.79077816009521,-5.35646104812622,0.19424031674862,-0.32813712954521
635,938998077,-0.95003366470337,1.76439082622528,33.68304443359375,-0.29186609387398,-0.18791513144970,9.77101325988770,-5.34186220169067,0.06055483594537,-0.32287374138832
636,939014744,-0.94915628433228,1.76586329936981,33.68156051635742,-0.29917684197426,-0.19193945825100,9.79132652282715,-5.30245637893677,0.20705948770046,-0.34127646684647
637,939031411,-0.94932460784912,1.76570510864258,33.68078231811523,-0.30091953277588,-0.18321579694748,9.75766277313232,-5.36656570434570,0.10909089446068,-0.32617780566216
638,939048078,-0.94930762052536,1.76546645164490,33.68113708496094,-0.30535471439362,-0.19145402312279,9.78115463256836,-5.35633325576782,0.10311033576727,-0.28002366423607
639,939064745,-0.95038819313049,1.76471233367920,33.67791366577148,-0.30911612510681,-0.18214207887650,9.79399299621582,-5.41967344284058,0.07438568770885,-0.39077299833298
640,939081412,-0.95100110769272,1.76471042633057,33.67660140991211,-0.28970509767532,-0.18997484445572,9.77820301055908,-5.39228057861328,0.11842673271894,-0.34980547428131
641,939098079,-0.95156252384186,1.76380848884583,33.67613220214844,-0.29706215858459,-0.18609532713890,9.79442596435547,-5.38939905166626,0.06374361366034,-0.33493733406067
642,939114746,-0.95246613025665,1.76401650905609,33.67300033569336,-0.29864981770515,-0.18487364053726,9.78776264190674,-5.41060686111450,0.13130992650986,-0.32642108201981
643,939131413,-0.95224654674530,1.76293265819550,33.66978454589844,-0.28889304399490,-0.19045199453831,9.76142406463623,-5.34160566329956,0.05299908295274,-0.36677387356758
644,939148080,-0.95134139060974,1.76273357868195,33.66793060302734,-0.29963582754135,-0.19060586392879,9.79528331756592,-5.30238056182861,0.10645280033350,-0.31840434670448
645,939164747,-0.95199745893478,1.76240909099579,33.66720199584961,-0.29979914426804,-0.17868478596210,9.76791381835938,-5.39628887176514,0.09898668527603,-0.31068205833435
646,939181414,-0.95266753435135,1.76371359825134,33.66591644287109,-0.29341220855713,-0.16641242802143,9.77346611022949,-5.39481639862061,0.19689123332500,-0.36924555897713
647,939198081,-0.95222783088684,1.76557242870331,33.66335678100586,-0.29391705989838,-0.18769709765911,9.77708148956299,-5.32924842834473,0.23025181889534,-0.33894571661949
648,939214748,-0.95252037048340,1.76552259922028,33.66095733642578,-0.29227238893509,-0.19799157977104,9.76606941223145,-5.37217473983765,0.11571179330349,-0.36825945973396
649,939231415,-0.95127725601196,1.76453864574432,33.65821838378906,-0.28770139813423,-0.19603177905083,9.76521587371826,-5.27949523925781,0.05955593660474,-0.38617554306984
650,939248082,-0.95147085189819,1.76500654220581,33.65736770629883,-0.30031955242157,-0.18999551236629,9.77338409423828,-5.36942195892334,0.14610126614571,-0.29252269864082
651,939264749,-0.95156413316727,1.76490962505341,33.65528106689453,-0.29113647341728,-0.19397154450417,9.79398059844971,-5.36173772811890,0.11244618147612,-0.32252797484398
652,939281416,-0.95200532674789,1.76690185070038,33.65202331542969,-0.28968816995621,-0.18611770868301,9.77064895629883,-5.38197183609009,0.23823016881943,-0.36928394436836
653,939298083,-0.95205122232437,1.76730430126190,33.65175628662109,-0.27925086021423,-0.18610535562038,9.77699470520020,-5.35801124572754,0.14219532907009,-0.34195521473885
654,939314750,-0.95195323228836,1.76819741725922,33.65238189697266,-0.29580399394035,-0.20262792706490,9.76976680755615,-5.35039138793945,0.17176517844200,-0.30855622887611
655,939331417,-0.95122563838959,1.76868796348572,33.65093612670898,-0.29551202058792,-0.19086542725563,9.76799201965332,-5.31338071823120,0.14701050519943,-0.30051383376122
656,939348084,-0.95189625024796,1.76913404464722,33.64880752563477,-0.30533874034882,-0.18287765979767,9.77098464965820,-5.39441967010498,0.14555059373379,-0.39179757237434
657,939364751,-0.95194280147552,1.76868450641632,33.64939880371094,-0.29177707433701,-0.18926586210728,9.77934455871582,-5.36086654663086,0.09102114289999,-0.27073904871941
658,939381418,-0.95162057876587,1.76784455776215,33.64899063110352,-0.30017641186714,-0.19779294729233,9.79039192199707,-5.33862209320068,0.06666345894337,-0.27114886045456
659,939398085,-0.95120888948441,1.76696836948395,33.64801406860352,-0.30718404054642,-0.18118026852608,9.77034187316895,-5.33081007003784,0.06625365465879,-0.33826693892479
660,939414752,-0.95111322402954,1.76648795604706,33.64828109741211,-0.29375392198563,-0.19448398053646,9.77103233337402,-5.35187673568726,0.08894651383162,-0.32300177216530
661,939431419,-0.95188236236572,1.76730298995972,33.64857101440430,-0.30672761797905,-0.18791313469410,9.80249500274658,-5.40388298034668,0.16656580567360,-0.27517005801201
662,939448086,-0.95207405090332,1.76636874675751,33.64714813232422,-0.30427798628807,-0.18173345923424,9.78304195404053,-5.36688613891602,0.06277032941580,-0.34409382939339
663,939464753,-0.95122081041336,1.76637709140778,33.64569091796875,-0.30047446489334,-0.17513531446457,9.75631809234619,-5.30540227890015,0.11796570569277,-0.32438486814499
664,939481420,-0.95111590623856,1.76585829257965,33.64439392089844,-0.29386273026466,-0.18492081761360,9.77903556823730,-5.35030174255371,0.08670540153980,-0.30701947212219
665,939498087,-0.95081323385239,1.76451814174652,33.64330673217773,-0.29407665133476,-0.18502853810787,9.76658535003662,-5.33609914779663,0.03854071348906,-0.36560851335526
666,939514754,-0.95075649023056,1.76478791236877,33.63792419433594,-0.28987666964531,-0.18465691804886,9.77450370788574,-5.35012245178223,0.13568970561028,-0.38599622249603
667,939531421,-0.95080238580704,1.76471900939941,33.63865661621094,-0.28872853517532,-0.17883345484734,9.78109931945801,-5.35954761505127,0.11316333711147,-0.29428997635841
668,939548088,-0.95010715723038,1.76301634311676,33.63871002197266,-0.29000499844551,-0.19978195428848,9.77124118804932,-5.31567287445068,0.01584785804152,-0.30142304301262
669,939564755,-0.94964253902435,1.76277863979340,33.63572692871094,-0.29776975512505,-0.20439550280571,9.78546810150146,-5.32739067077637,0.10400677472353,-0.34853765368462
670,939581422,-0.94901466369629,1.76298081874847,33.63359451293945,-0.29920092225075,-0.17789818346500,9.78948879241943,-5.31724834442139,0.13142518699169,-0.36587747931480
671,939598089,-0.94860047101974,1.76238226890564,33.63212203979492,-0.28785964846611,-0.18291044235229,9.78632926940918,-5.33047723770142,0.08264578878880,-0.34605321288109
672,939614756,-0.94945478439331,1.76212751865387,33.63060379028320,-0.29182910919189,-0.16777701675892,9.77869987487793,-5.40645742416382,0.10295666009188,-0.34491345286369
673,939631423,-0.95001786947250,1.76046407222748,33.62951278686523,-0.30135682225227,-0.18593606352806,9.76658153533936,-5.39030790328979,0.01863964460790,-0.31594547629356
674,939648090,-0.94992583990097,1.76132094860077,33.62952423095703,-0.28663602471352,-0.19400799274445,9.79090976715088,-5.35309314727783,0.16880691051483,-0.26843389868736
675,939664757,-0.94919425249100,1.76147067546844,33.62738418579102,-0.28825524449348,-0.19300895929337,9.78225326538086,-5.31139612197876,0.12714788317680,-0.34912681579590
676,939681424,-0.94847869873047,1.76131916046143,33.62517929077148,-0.28852719068527,-0.18883281946182,9.78257846832275,-5.31188201904297,0.10992332547903,-0.37162753939629
677,939698091,-0.94827479124069,1.76133358478546,33.62250137329102,-0.28402343392372,-0.17675516009331,9.77253246307373,-5.34369325637817,0.11925913393497,-0.33258092403412
678,939714758,-0.94827687740326,1.75985264778137,33.62116241455078,-0.29402816295624,-0.19016498327255,9.78312206268311,-5.35561561584473,0.02961469069123,-0.35860344767570
679,939731425,-0.94922822713852,1.75945472717285,33.62032318115234,-0.28926336765289,-0.18249866366386,9.79222869873047,-5.41306495666504,0.09491426497698,-0.34221130609512
680,939748092,-0.94873207807541,1.75977396965027,33.61756896972656,-0.28467518091202,-0.18713505566120,9.77692604064941,-5.32586669921875,0.13736730813980,-0.33446347713470
681,939764759,-0.94764310121536,1.75892543792725,33.61712646484375,-0.28258946537971,-0.18809150159359,9.80771446228027,-5.28899765014648,0.06831547617912,-0.39749631285667
682,939781426,-0.94691419601440,1.75901901721954,33.61751556396484,-0.30125141143799,-0.18766026198864,9.77744293212891,-5.31359815597534,0.12354928255081,-0.29222813248634
683,939798093,-0.94615751504898,1.75961220264435,33.61602783203125,-0.28814655542374,-0.19134531915188,9.77286529541016,-5.30978250503540,0.15415644645691,-0.35519698262215
684,939814760,-0.94589585065842,1.75975012779236,33.61416625976562,-0.28319722414017,-0.18198426067829,9.77309989929199,-5.33867263793945,0.12776255607605,-0.37512359023094
685,939831427,-0.94632786512375,1.76083099842072,33.61234664916992,-0.30748665332794,-0.19490014016628,9.77058887481689,-5.38252305984497,0.18308602273464,-0.34408107399940
686,939848094,-0.94562274217606,1.76013112068176,33.60821151733398,-0.29221513867378,-0.17743654549122,9.77771854400635,-5.31097316741943,0.07779219001532,-0.40469354391098
687,939864761,-0.94456189870834,1.75863015651703,33.60583114624023,-0.29380086064339,-0.18895734846592,9.76696395874023,-5.29066181182861,0.02800108864903,-0.37404793500900
688,939881428,-0.94460821151733,1.75806355476379,33.60288238525391,-0.28812366724014,-0.16761770844460,9.80063247680664,-5.35596179962158,0.08625718951225,-0.42153388261795
689,939898095,-0.94439017772675,1.75818932056427,33.59989166259766,-0.29175257682800,-0.19482155144215,9.76895999908447,-5.34409046173096,0.12527811527252,-0.31146323680878
690,939914762,-0.94353044033051,1.75705027580261,33.59783935546875,-0.29626178741455,-0.19153277575970,9.76456928253174,-5.30243110656738,0.05188493058085,-0.40827926993370
691,939931429,-0.94386160373688,1.75676250457764,33.59689712524414,-0.28567501902580,-0.19234737753868,9.75620460510254,-5.37550401687622,0.10076677799225,-0.34105879068375
