sep=,
DeviceTag:,bottom
FirmwareVersion:,2.2.1
AppVersion:,2023.6.0
StartTime: ,2025-04-03_11:56:43_000 PDT
© Movella Technologies B. V. 2005-2025

PacketCounter,SampleTimeFine,Euler_X,Euler_Y,Euler_Z,Acc_X,Acc_Y,Acc_Z,Gyr_X,Gyr_Y,Gyr_Z
0,1561014178,0.70422065258026,-1.92948305606842,-80.08550262451172,0.00000000000000,0.00000000000000,0.00000000000000,0.00000000000000,0.00000000000000,0.00000000000000
1,1561022511,0.71504676342010,-1.91390717029572,-80.07841491699219,0.36633440852165,0.11713542044163,9.97829437255859,1.32780349254608,1.88022553920746,0.82620000839233
2,1561030844,0.72462368011475,-1.93106973171234,-80.07235717773438,0.33976605534554,0.14103345572948,9.99844741821289,1.27529442310333,1.82617962360382,0.86226487159729
3,1561039177,0.73551630973816,-1.91460275650024,-80.06470489501953,0.35727313160896,0.10248921066523,10.01143550872803,1.33763945102692,1.98844587802887,0.89336055517197
4,1561047510,0.74263572692871,-1.91977512836456,-80.06088256835938,0.35805276036263,0.10433702915907,9.99320983886719,1.31978631019592,2.05394172668457,0.77361398935318
5,1561055843,0.75374859571457,-1.90324628353119,-80.05352783203125,0.33683592081070,0.11725774407387,9.98955821990967,1.36389386653900,1.99497771263123,0.85732120275497
6,1561064176,0.75288522243500,-1.90463054180145,-80.04828643798828,0.33761537075043,0.12473176419735,9.98048591613770,1.35731124877930,1.87528228759766,0.81974518299103
7,1561072509,0.76388949155807,-1.88858044147491,-80.04117584228516,0.33482792973518,0.10101896524429,9.99708271026611,1.34914016723633,1.93762731552124,0.82786494493484
8,1561080842,0.76217728853226,-1.88046765327454,-80.03496551513672,0.33568614721298,0.11754899471998,10.02276706695557,1.39181351661682,2.14581990242004,0.88178294897079
9,1561089175,0.77361708879471,-1.86341524124146,-80.02752685546875,0.35825729370117,0.12316550314426,10.00829792022705,1.40162372589111,2.05888509750366,0.86387854814529
10,1561097508,0.77388328313828,-1.85622727870941,-80.02153015136719,0.34419339895248,0.09401241689920,10.00842189788818,1.33774197101593,2.09991908073425,0.85219848155975
11,1561105841,0.78470981121063,-1.83800053596497,-80.01500701904297,0.33573696017265,0.12885273993015,10.00471401214600,1.32496035099030,2.19814968109131,0.75040745735168
12,1561114174,0.78489851951599,-1.83113658428192,-80.01002502441406,0.35833069682121,0.12523326277733,9.97563838958740,1.37854528427124,1.91629052162170,0.85588681697845
13,1561122507,0.79532742500305,-1.81505155563354,-80.00243377685547,0.35171484947205,0.12174504995346,10.00135517120361,1.28013539314270,1.94267332553864,0.88511264324188
14,1561130840,0.79779970645905,-1.80842232704163,-79.99648284912109,0.34720179438591,0.13813365995884,10.00135707855225,1.39181351661682,2.16392874717712,0.90796053409576
15,1561139173,0.80869799852371,-1.79344522953033,-79.98964691162109,0.35301625728607,0.12385163456202,10.01255512237549,1.33433508872986,1.80801916122437,0.79208177328110
16,1561147506,0.81229221820831,-1.78866088390350,-79.98439788818359,0.33957237005234,0.12553702294827,9.98325729370117,1.25413691997528,1.97046482563019,0.81449425220490
17,1561155839,0.82350927591324,-1.77141213417053,-79.97740936279297,0.35510677099228,0.11807088553905,9.97981643676758,1.37232124805450,2.08178424835205,0.80806511640549
18,1561164172,0.82824122905731,-1.76602053642273,-79.97262573242188,0.34824177622795,0.12018488347530,10.00551795959473,1.37572765350342,2.03409028053284,0.74751305580139
19,1561172505,0.83855855464935,-1.74978792667389,-79.96597290039062,0.33969908952713,0.10568732023239,10.00379467010498,1.26243603229523,1.95891261100769,0.77189773321152
20,1561180838,0.84247386455536,-1.74415612220764,-79.96134948730469,0.36266613006592,0.14036574959755,10.00390052795410,1.36238276958466,1.99981880187988,0.79674363136292
21,1561189171,0.85282039642334,-1.72861647605896,-79.95356750488281,0.35993930697441,0.13117256760597,9.97290802001953,1.26999223232269,1.87889397144318,0.90652632713318
22,1561197504,0.85801488161087,-1.72384750843048,-79.94879913330078,0.36431211233139,0.12395210564137,10.00787067413330,1.36888873577118,2.01134490966797,0.83278274536133
23,1561205837,0.86884886026382,-1.70854556560516,-79.94160461425781,0.35223227739334,0.12047081440687,10.00059032440186,1.32598495483398,1.84913003444672,0.83634322881699
24,1561214170,0.87346708774567,-1.70389807224274,-79.93731689453125,0.35300225019455,0.12606471776962,10.02630519866943,1.30211246013641,2.02922391891479,0.73411679267883
25,1561222503,0.88545626401901,-1.68678462505341,-79.93072509765625,0.34471008181572,0.11875832825899,10.01723003387451,1.46268808841705,2.06672286987305,0.76090931892395
26,1561230836,0.89016687870026,-1.68236601352692,-79.92653656005859,0.36763572692871,0.13521622121334,9.98266506195068,1.32472991943359,1.95558285713196,0.77868556976318
27,1561239169,0.90116703510284,-1.66513872146606,-79.91998291015625,0.36093232035637,0.13537850975990,10.00651931762695,1.34309518337250,2.08006811141968,0.75706708431244
28,1561247502,0.90595245361328,-1.66210007667542,-79.91560363769531,0.33401721715927,0.12097486108541,10.00281906127930,1.26712346076965,1.83435082435608,0.77220523357391
29,1561255835,0.91637653112411,-1.64629304409027,-79.90860748291016,0.35343360900879,0.11525503546000,9.99216556549072,1.27531993389130,1.91150057315826,0.81139487028122
30,1561264168,0.92178654670715,-1.64072728157043,-79.90280151367188,0.35823670029640,0.11870788037777,9.97948074340820,1.38341188430786,2.07386946678162,0.90153151750565
31,1561272501,0.93343639373779,-1.62331140041351,-79.89608764648438,0.34208858013153,0.11362706124783,10.00876998901367,1.42180788516998,2.10286474227905,0.77540707588196
32,1561280834,0.93822991847992,-1.61852729320526,-79.89140319824219,0.33915397524834,0.11009258776903,9.99060153961182,1.34263420104980,1.95071613788605,0.80337768793106
33,1561289167,0.94932204484940,-1.60134470462799,-79.88419342041016,0.35118716955185,0.10990755259991,9.97435283660889,1.35586392879486,2.07703280448914,0.83745747804642
34,1561297500,0.95365279912949,-1.59567904472351,-79.87917327880859,0.37348449230194,0.12664946913719,10.00941753387451,1.33753705024719,2.01977205276489,0.86377608776093
35,1561305833,0.96487510204315,-1.58035385608673,-79.87234497070312,0.33771735429764,0.10484070330858,9.98732757568359,1.37029743194580,1.85389411449432,0.79574453830719
36,1561314166,0.97024512290955,-1.57518923282623,-79.86705780029297,0.36213088035583,0.12345933169127,10.03335380554199,1.47357416152954,1.96039819717407,0.84838187694550
37,1561322499,0.98200428485870,-1.55879855155945,-79.85990142822266,0.34658044576645,0.10898043960333,10.01509857177734,1.43603646755219,1.98172199726105,0.83005487918854
38,1561330832,0.98667442798615,-1.55230987071991,-79.85485839843750,0.34579789638519,0.09974814951420,9.98965930938721,1.40189266204834,2.11138129234314,0.83914780616760
39,1561339165,0.99799972772598,-1.53558158874512,-79.84702301025391,0.34786543250084,0.10015060007572,10.01912879943848,1.38643455505371,2.02481818199158,0.91154658794403
40,1561347498,1.00093090534210,-1.52872717380524,-79.84173583984375,0.33768969774246,0.11668104678392,10.01349925994873,1.24267482757568,2.13000297546387,0.87902939319611
41,1561355831,1.01180648803711,-1.51333951950073,-79.83419799804688,0.35867074131966,0.11278822273016,9.99197006225586,1.33046734333038,1.86583077907562,0.88242328166962
42,1561364164,1.01531529426575,-1.50809204578400,-79.82914733886719,0.34864613413811,0.10733755677938,9.98835086822510,1.31445848941803,1.91816043853760,0.84108179807663
43,1561372497,1.02614486217499,-1.49030518531799,-79.82232666015625,0.34537607431412,0.12415391206741,10.03223228454590,1.32209157943726,2.15232586860657,0.78923869132996
44,1561380830,1.02946579456329,-1.48562633991241,-79.81834411621094,0.35564506053925,0.11648835986853,9.98132133483887,1.28687179088593,1.83265995979309,0.76590400934219
45,1561389163,1.04040503501892,-1.46946287155151,-79.81106567382812,0.35528028011322,0.12718106806278,9.95935916900635,1.33579516410828,1.95750403404236,0.85089218616486
46,1561397496,1.04366707801819,-1.46290457248688,-79.80628204345703,0.33909198641777,0.12391483783722,9.99225521087646,1.26598358154297,2.06245803833008,0.81056249141693
47,1561405829,1.05448734760284,-1.44844603538513,-79.79969787597656,0.35214939713478,0.10953258723021,10.01289463043213,1.32102847099304,1.75226974487305,0.77152633666992
48,1561414162,1.05886209011078,-1.44264900684357,-79.79461669921875,0.34659892320633,0.13486267626286,9.98703002929688,1.39793527126312,1.95742702484131,0.87594276666641
49,1561422495,1.06982767581940,-1.42615687847137,-79.78730773925781,0.31624644994736,0.12413141131401,9.98314666748047,1.34084105491638,1.99853789806366,0.85563069581985
50,1561430828,1.07369077205658,-1.42002511024475,-79.78177642822266,0.34764930605888,0.13351462781429,10.01846885681152,1.31247353553772,1.96281898021698,0.90643668174744
51,1561439161,1.08440113067627,-1.40259051322937,-79.77507019042969,0.35198363661766,0.10777568072081,10.01529502868652,1.30740177631378,2.10971641540527,0.78097808361053
52,1561447494,1.08797740936279,-1.39653599262238,-79.77130126953125,0.36746785044670,0.15537597239017,10.01517486572266,1.26959514617920,1.94724535942078,0.72585618495941
53,1561455827,1.09907162189484,-1.37986195087433,-79.76425170898438,0.34134700894356,0.11289165914059,9.97324943542480,1.35426306724548,2.02125787734985,0.82614874839783
54,1561464160,1.10352122783661,-1.37490510940552,-79.76014709472656,0.34702762961388,0.12257457524538,10.00633811950684,1.35071551799774,1.81773984432220,0.77480506896973
55,1561472493,1.11371505260468,-1.35928452014923,-79.75292205810547,0.33508914709091,0.11536118388176,10.01002883911133,1.24868118762970,1.89723360538483,0.85053354501724
56,1561480826,1.11756038665771,-1.35291039943695,-79.74810791015625,0.34933543205261,0.11297426372766,9.98113346099854,1.27993059158325,1.97594618797302,0.87327897548676
57,1561489159,1.12870931625366,-1.33514130115509,-79.74147033691406,0.35724705457687,0.13141000270844,10.00317764282227,1.36010313034058,2.15373444557190,0.77620106935501
58,1561497492,1.13256657123566,-1.32723081111908,-79.73703765869141,0.32996267080307,0.12082936614752,10.01580142974854,1.27612686157227,2.16258430480957,0.82790333032608
59,1561505825,1.14392936229706,-1.31060111522675,-79.73049163818359,0.35290998220444,0.10938172042370,9.98722076416016,1.38592207431793,2.01756930351257,0.77071958780289
60,1561514158,1.14765059947968,-1.30430221557617,-79.72662353515625,0.35256674885750,0.10465461015701,10.03871726989746,1.26282024383545,1.95896399021149,0.76339387893677
61,1561522491,1.15886235237122,-1.28783953189850,-79.71965789794922,0.35034516453743,0.11344754695892,10.01308441162109,1.37061786651611,1.99829459190369,0.82488089799881
62,1561530824,1.16337013244629,-1.28043735027313,-79.71521759033203,0.35103777050972,0.11723211407661,10.01870632171631,1.36764645576477,2.09506511688232,0.82910716533661
63,1561539157,1.17501378059387,-1.26403403282166,-79.70874023437500,0.34410685300827,0.12311439961195,10.03147125244141,1.42029654979706,1.99116086959839,0.76800441741943
64,1561547490,1.17996168136597,-1.25740325450897,-79.70437622070312,0.35795754194260,0.12850515544415,10.02084350585938,1.41964340209961,2.00147056579590,0.84009563922882
65,1561555823,1.19078671932220,-1.24036049842834,-79.69738006591797,0.34057810902596,0.13230267167091,10.01145935058594,1.32329535484314,2.06905388832092,0.83047741651535
66,1561564156,1.19412374496460,-1.23335933685303,-79.69249725341797,0.34676429629326,0.12298408895731,10.00455188751221,1.21750867366791,2.04707694053650,0.90496379137039
67,1561572489,1.20461177825928,-1.21702885627747,-79.68569946289062,0.34204703569412,0.10999671369791,9.99380874633789,1.28215897083282,1.98547470569611,0.81093388795853
68,1561580822,1.20925557613373,-1.21195721626282,-79.68183135986328,0.34276443719864,0.11013809591532,9.99765586853027,1.37356340885162,1.80941510200500,0.77711027860641
69,1561589155,1.22091364860535,-1.19556379318237,-79.67487335205078,0.34350696206093,0.11037262529135,10.01429176330566,1.42298603057861,1.99321019649506,0.83204007148743
70,1561597488,1.22518992424011,-1.18923854827881,-79.67111968994141,0.35002312064171,0.11211754381657,9.99993133544922,1.33813881874084,1.95718371868134,0.78056818246841
71,1561605821,1.23459410667419,-1.17530143260956,-79.66506195068359,0.34894463419914,0.12141774594784,9.99811935424805,1.15060412883759,1.69859492778778,0.73288726806641
72,1561614154,1.23881268501282,-1.16772401332855,-79.66053771972656,0.34113240242004,0.12294695526361,10.00170326232910,1.33316969871521,2.11017751693726,0.84826672077179
73,1561622487,1.24911057949066,-1.15059638023376,-79.65385437011719,0.32735958695412,0.13211643695831,9.99045085906982,1.25983607769012,2.08392286300659,0.80006062984467
74,1561630820,1.25371599197388,-1.14526844024658,-79.64984130859375,0.35964375734329,0.12358406186104,10.04644584655762,1.37315356731415,1.83272421360016,0.82295984029770
75,1561639153,1.26455450057983,-1.12994861602783,-79.64246368408203,0.33616390824318,0.11385688930750,9.99125957489014,1.32823920249939,1.86954462528229,0.89264333248138
76,1561647486,1.26938199996948,-1.12367951869965,-79.63842773437500,0.35819873213768,0.11796821653843,10.03216075897217,1.39992034435272,1.94737362861633,0.82401001453400
77,1561655819,1.28116416931152,-1.10756850242615,-79.63107299804688,0.34971532225609,0.10724585503340,10.03597927093506,1.44028854370117,1.96573889255524,0.88827615976334
78,1561664152,1.28526890277863,-1.10268008708954,-79.62756347656250,0.35041549801826,0.10382004827261,10.03257083892822,1.31787800788879,1.78666961193085,0.76696705818176
79,1561672485,1.29616951942444,-1.08656251430511,-79.62145996093750,0.35639807581902,0.13972368836403,9.99565219879150,1.33217072486877,1.96345913410187,0.74276155233383
80,1561680818,1.30044436454773,-1.08107006549835,-79.61834716796875,0.33970376849174,0.11854781955481,10.02874088287354,1.33788275718689,1.86530530452728,0.77150070667267
81,1561689151,1.31160461902618,-1.06328403949738,-79.61196136474609,0.33370915055275,0.12382579594851,10.01768112182617,1.36562299728394,2.16686177253723,0.77426707744598
82,1561697484,1.31624174118042,-1.05589330196381,-79.60837554931641,0.35621237754822,0.11816448718309,10.01485824584961,1.38270771503448,2.08843111991882,0.81612080335617
83,1561705817,1.32816708087921,-1.03886365890503,-79.60208892822266,0.36479181051254,0.11595006287098,9.98965930938721,1.45702743530273,2.07778835296631,0.76795315742493
84,1561714150,1.33251392841339,-1.03228902816772,-79.59908294677734,0.35044080018997,0.11650763452053,10.00048160552979,1.34975492954254,2.00153470039368,0.79346495866776
85,1561722483,1.34403800964355,-1.01637148857117,-79.59210968017578,0.35638597607613,0.11675985157490,10.01363468170166,1.41097307205200,1.94764256477356,0.85540026426315
86,1561730816,1.34772491455078,-1.00934243202209,-79.58899688720703,0.34479057788849,0.11479339003563,9.99524116516113,1.27300179004669,2.06102371215820,0.79685878753662
87,1561739149,1.35828518867493,-0.99295669794083,-79.58222198486328,0.33660215139389,0.12019115686417,9.98596096038818,1.29513263702393,2.00551795959473,0.83538269996643
88,1561747482,1.36224353313446,-0.98503953218460,-79.57873535156250,0.35918635129929,0.10889174789190,9.98878955841064,1.31068038940430,2.16947460174561,0.84721642732620
89,1561755815,1.37299466133118,-0.96769845485687,-79.57184600830078,0.34113529324532,0.13141305744648,10.00641632080078,1.31853127479553,2.12192177772522,0.85102021694183
90,1561764148,1.37682163715363,-0.96228319406509,-79.56877899169922,0.36917936801910,0.12195081263781,10.00021934509277,1.29483807086945,1.87402725219727,0.80381315946579
91,1561772481,1.38722920417786,-0.94700306653976,-79.56204986572266,0.35127875208855,0.12062206864357,10.01826286315918,1.27957177162170,1.87448799610138,0.84131228923798
92,1561780814,1.39129412174225,-0.94028186798096,-79.55833435058594,0.35417619347572,0.11855890601873,10.01489543914795,1.32443535327911,2.04340147972107,0.86822021007538
93,1561789147,1.40138339996338,-0.92380166053772,-79.55183410644531,0.35178261995316,0.12186768651009,9.99298667907715,1.24147093296051,2.01873469352722,0.81320077180862
94,1561797480,1.40483081340790,-0.91818010807037,-79.54849243164062,0.34499582648277,0.11831973493099,9.99855804443359,1.25322771072388,1.91922366619110,0.86842501163483
95,1561805813,1.41494560241699,-0.90176546573639,-79.54232025146484,0.36073359847069,0.13448219001293,9.99704360961914,1.24354553222656,2.01189589500427,0.78049135208130
96,1561814146,1.41949021816254,-0.89618718624115,-79.53874969482422,0.35974821448326,0.12335723638535,9.99193286895752,1.38562774658203,1.92035055160522,0.89491009712219
97,1561822479,1.43012011051178,-0.87873607873917,-79.53275299072266,0.36155933141708,0.10359402000904,10.01273822784424,1.30535268783569,2.13919854164124,0.75879615545273
98,1561830812,1.43356072902679,-0.87335544824600,-79.53041076660156,0.35895574092865,0.11993811279535,9.99973487854004,1.25758218765259,1.90365016460419,0.78668999671936
99,1561839145,1.44450485706329,-0.85708814859390,-79.52378845214844,0.34400388598442,0.12824553251266,10.04512023925781,1.34590005874634,2.00036931037903,0.83950662612915
100,1561847478,1.44846355915070,-0.85001134872437,-79.52200317382812,0.34736678004265,0.13690651953220,10.02141857147217,1.31927394866943,2.11226511001587,0.69692486524582
101,1561855811,1.45926666259766,-0.83450061082840,-79.51539611816406,0.34442415833473,0.12585893273354,10.01261901855469,1.32893061637878,1.91201305389404,0.84174776077271
102,1561864144,1.46324086189270,-0.82947868108749,-79.51332092285156,0.33772340416908,0.12800513207912,10.01989173889160,1.32047796249390,1.86995422840118,0.73552554845810
103,1561872477,1.47430956363678,-0.81284844875336,-79.50653839111328,0.36504125595093,0.11788611859083,9.99548244476318,1.36221635341644,2.04819130897522,0.86711877584457
104,1561880810,1.47833633422852,-0.80781364440918,-79.50415802001953,0.35454612970352,0.13118983805180,10.00425052642822,1.33124876022339,1.88192927837372,0.78640824556351
105,1561889143,1.48904466629028,-0.79125940799713,-79.49768066406250,0.34484532475471,0.13840810954571,9.99665260314941,1.32005524635315,2.03989195823669,0.83374339342117
106,1561897476,1.49395108222961,-0.78457397222519,-79.49564361572266,0.35558938980103,0.11862375587225,10.01962852478027,1.43439710140228,2.08610010147095,0.77769941091537
107,1561905809,1.50489747524261,-0.76805353164673,-79.48899078369141,0.34429559111595,0.13494901359081,9.99714660644531,1.34917855262756,2.04002022743225,0.85881972312927
108,1561914142,1.50914657115936,-0.76217216253281,-79.48711395263672,0.34731358289719,0.11430516093969,9.97226333618164,1.35895049571991,1.99602782726288,0.74136567115784
109,1561922475,1.51934039592743,-0.74695122241974,-79.48069000244141,0.35466161370277,0.15170258283615,10.00853443145752,1.25987458229065,1.88465690612793,0.83936566114426
110,1561930808,1.52343237400055,-0.74196112155914,-79.47904968261719,0.37033134698868,0.14954341948032,10.00563144683838,1.33997035026550,1.89797663688660,0.76019203662872
111,1561939141,1.53454589843750,-0.72673296928406,-79.47261047363281,0.36957588791847,0.11993683874607,9.98998737335205,1.37133502960205,1.88725709915161,0.84286212921143
112,1561947474,1.53894233703613,-0.72175365686417,-79.47065734863281,0.36844527721405,0.12015469372272,9.99565505981445,1.37741827964783,1.91275560855865,0.78362911939621
113,1561955807,1.55067992210388,-0.70418834686279,-79.46470642089844,0.34169796109200,0.11325705796480,9.99879837036133,1.44646155834198,2.16806602478027,0.78190016746521
114,1561964140,1.55424952507019,-0.69997948408127,-79.46219635009766,0.32230800390244,0.11543811857700,9.98916244506836,1.28521990776062,1.83246803283691,0.86993634700775
115,1561972473,1.56469118595123,-0.68454235792160,-79.45610809326172,0.34061631560326,0.12315759062767,10.02097415924072,1.29336524009705,1.91702067852020,0.81171518564224
116,1561980806,1.56837368011475,-0.68014216423035,-79.45433807373047,0.35164323449135,0.13712203502655,9.99740600585938,1.30496835708618,1.85423994064331,0.77979969978333
117,1561989139,1.57898139953613,-0.66391515731812,-79.44768524169922,0.33918735384941,0.10989065468311,10.00515174865723,1.31585431098938,2.01601958274841,0.87977206707001
118,1561997472,1.58326864242554,-0.65860235691071,-79.44610595703125,0.34267956018448,0.11666060239077,9.98151111602783,1.38281023502350,1.97344887256622,0.78635704517365
119,1562005805,1.59388494491577,-0.64268612861633,-79.44018554687500,0.37073594331741,0.11642061918974,9.98641586303711,1.31540632247925,1.97899436950684,0.79653871059418
120,1562014138,1.59752321243286,-0.63946193456650,-79.43898010253906,0.33933097124100,0.11031605303288,10.01133346557617,1.31275534629822,1.73088204860687,0.75198274850845
121,1562022471,1.60804080963135,-0.62360376119614,-79.43251037597656,0.34467351436615,0.12453732639551,10.00402927398682,1.30596745014191,1.97667598724365,0.86691379547119
122,1562030804,1.61166942119598,-0.61789482831955,-79.43029022216797,0.35195273160934,0.12001621723175,9.97528934478760,1.32131052017212,2.04209518432617,0.86148363351822
123,1562039137,1.62359046936035,-0.60143584012985,-79.42440032958984,0.34609961509705,0.10979080200195,10.00123786926270,1.47495722770691,2.04838347434998,0.80027830600739
124,1562047470,1.62755644321442,-0.59634470939636,-79.42308807373047,0.35130578279495,0.12781231105328,9.98288440704346,1.36854302883148,1.97495985031128,0.76315057277679
125,1562055803,1.63785660266876,-0.57917237281799,-79.41694641113281,0.35759699344635,0.12026600539684,9.97988986968994,1.28163385391235,2.13717508316040,0.83002936840057
126,1562064136,1.64218962192535,-0.57403022050858,-79.41512298583984,0.36590039730072,0.13041332364082,10.02234649658203,1.41992521286011,1.99506735801697,0.82951706647873
127,1562072469,1.65286159515381,-0.55942809581757,-79.40950012207031,0.35219582915306,0.11770129948854,10.00957393646240,1.32772672176361,1.83120000362396,0.78229713439941
128,1562080802,1.65605759620667,-0.55604165792465,-79.40762329101562,0.34011417627335,0.13287517428398,10.02175903320312,1.28870332241058,1.79614698886871,0.83612543344498
129,1562089135,1.66676783561707,-0.54027831554413,-79.40154266357422,0.35296952724457,0.13015368580818,10.00054359436035,1.33439922332764,1.97618937492371,0.83796972036362
130,1562097468,1.66969799995422,-0.53722047805786,-79.40002441406250,0.35810858011246,0.11793828010559,10.02329349517822,1.26203894615173,1.76699793338776,0.84583324193954
131,1562105801,1.68031251430511,-0.52275657653809,-79.39344024658203,0.34547582268715,0.12300395220518,10.00272560119629,1.32528066635132,1.82468140125275,0.90697455406189
132,1562114134,1.68344318866730,-0.51821786165237,-79.39228057861328,0.36477831006050,0.11336909979582,9.99846076965332,1.29433870315552,1.95615911483765,0.78494822978973
133,1562122467,1.69338262081146,-0.50244843959808,-79.38680267333984,0.33600428700447,0.11024056375027,10.00315856933594,1.24551796913147,1.97939145565033,0.77544540166855
134,1562130800,1.69624435901642,-0.49869149923325,-79.38529968261719,0.35959389805794,0.13886418938637,9.99438953399658,1.27138805389404,1.87665259838104,0.83312863111496
135,1562139133,1.70740163326263,-0.48264086246490,-79.37934875488281,0.33931198716164,0.11022285372019,10.01108741760254,1.39387536048889,2.01835036277771,0.83530580997467
136,1562147466,1.71089589595795,-0.47712239623070,-79.37754821777344,0.35540622472763,0.11506897211075,9.99533843994141,1.35601758956909,2.09957313537598,0.87608367204666
137,1562155799,1.72196304798126,-0.46093937754631,-79.37219238281250,0.35657477378845,0.12772560119629,9.98613834381104,1.38391149044037,2.03722834587097,0.76927232742310
138,1562164132,1.72604990005493,-0.45828947424889,-79.37133026123047,0.35003465414047,0.13358603417873,9.98596477508545,1.43425643444061,1.76608884334564,0.76090931892395
139,1562172465,1.73725938796997,-0.44258952140808,-79.36525726318359,0.34353110194206,0.11289907246828,10.02866172790527,1.40296852588654,1.98420691490173,0.85894787311554
140,1562180798,1.74064135551453,-0.43884181976318,-79.36439514160156,0.34518295526505,0.12351142615080,10.01035690307617,1.35770809650421,1.91156458854675,0.79667955636978
141,1562189131,1.75209856033325,-0.42280668020248,-79.35913085937500,0.34667581319809,0.11756792664528,9.99432754516602,1.43478143215179,2.02526640892029,0.76553267240524
142,1562197464,1.75547897815704,-0.41993090510368,-79.35858917236328,0.35291749238968,0.10836310684681,9.98778629302979,1.36603283882141,1.81740665435791,0.75231575965881
143,1562205797,1.76630735397339,-0.40496322512627,-79.35316467285156,0.35177937150002,0.11602114886045,9.99875736236572,1.36262619495392,1.90172898769379,0.79363155364990
144,1562214130,1.76956117153168,-0.39974159002304,-79.35271453857422,0.34668916463852,0.11456152051687,10.00983047485352,1.36212658882141,2.11426305770874,0.75117588043213
145,1562222463,1.78059267997742,-0.38529425859451,-79.34687042236328,0.34252458810806,0.11246876418591,9.99164581298828,1.38875257968903,1.84327709674835,0.85085374116898
146,1562230796,1.78231453895569,-0.38064604997635,-79.34608459472656,0.33368724584579,0.09994204342365,9.99922561645508,1.18981969356537,2.06095981597900,0.81224024295807
147,1562239129,1.79287195205688,-0.36542713642120,-79.34120941162109,0.34410843253136,0.12339687347412,9.99556732177734,1.33142793178558,1.93556523323059,0.73515421152115
148,1562247462,1.79548811912537,-0.36133414506912,-79.34044647216797,0.33883285522461,0.13313031196594,10.01362705230713,1.30986070632935,2.00523614883423,0.77462571859360
149,1562255795,1.80615329742432,-0.34706801176071,-79.33449554443359,0.36403003334999,0.14035159349442,9.96159076690674,1.34874320030212,1.82924079895020,0.87324053049088
150,1562264128,1.80822968482971,-0.34277850389481,-79.33393859863281,0.34201288223267,0.11723048239946,9.97441005706787,1.25064074993134,2.04557847976685,0.80223792791367
151,1562272461,1.81890439987183,-0.32771912217140,-79.32877349853516,0.34405511617661,0.11379006505013,9.98403644561768,1.35174000263214,1.92621624469757,0.77841663360596
152,1562280794,1.82215452194214,-0.32400289177895,-79.32824707031250,0.36055666208267,0.11778943985701,10.00508213043213,1.40304553508759,1.98817694187164,0.78517884016037
153,1562289127,1.83239483833313,-0.30761227011681,-79.32226562500000,0.34735465049744,0.11943326890469,9.99003124237061,1.30194616317749,2.09381008148193,0.87477737665176
154,1562297460,1.83448600769043,-0.30434283614159,-79.32128906250000,0.34130626916885,0.12095610797405,9.97532463073730,1.27478218078613,1.95437908172607,0.85662972927094
155,1562305793,1.84542167186737,-0.28764611482620,-79.31571960449219,0.35949888825417,0.12052544206381,10.03693962097168,1.38693404197693,2.13171911239624,0.83184790611267
156,1562314126,1.84863209724426,-0.28433743119240,-79.31527709960938,0.35281154513359,0.11581354588270,9.99305534362793,1.42102658748627,1.97321844100952,0.78264302015305
157,1562322459,1.85988700389862,-0.26925405859947,-79.30992889404297,0.35121774673462,0.12748509645462,10.00939846038818,1.42822420597076,1.94245541095734,0.81284213066101
158,1562330792,1.86289680004120,-0.26607137918472,-79.30949401855469,0.33603885769844,0.11830510199070,9.99458408355713,1.40617036819458,1.97506260871887,0.78717666864395
159,1562339125,1.87343788146973,-0.24922117590904,-79.30450439453125,0.33441939949989,0.11686482280493,10.00582981109619,1.34446573257446,2.15743589401245,0.76804286241531
160,1562347458,1.87617790699005,-0.24678818881512,-79.30404663085938,0.36177194118500,0.11381815373898,9.97999668121338,1.38511526584625,1.89868092536926,0.81422537565231
161,1562355791,1.88649356365204,-0.23093974590302,-79.29873657226562,0.34598040580750,0.10989408195019,10.02000236511230,1.32092618942261,2.04365754127502,0.81522434949875
162,1562364124,1.88925766944885,-0.22562903165817,-79.29764556884766,0.32682329416275,0.12859086692333,10.02241420745850,1.40143167972565,2.26568126678467,0.90215891599655
163,1562372457,1.90064001083374,-0.21028262376785,-79.29172515869141,0.35324805974960,0.12241824716330,10.01135063171387,1.45135390758514,1.98950910568237,0.89475649595261
164,1562380790,1.90302920341492,-0.20887778699398,-79.29106903076172,0.35370659828186,0.11723538488150,10.01367759704590,1.36836361885071,1.81271946430206,0.86281549930573
165,1562389123,1.91423463821411,-0.19376325607300,-79.28580474853516,0.35142484307289,0.13376705348492,10.01326751708984,1.43152844905853,1.96397161483765,0.82249867916107
166,1562397456,1.91616499423981,-0.19022412598133,-79.28543853759766,0.35998988151550,0.11475948244333,9.99626255035400,1.32420480251312,2.08663821220398,0.83589500188828
167,1562405789,1.92638766765594,-0.17359130084515,-79.28020477294922,0.33587667346001,0.12696601450443,10.01881217956543,1.31718647480011,2.15034055709839,0.81496810913086
168,1562414122,1.92862558364868,-0.17219901084900,-79.27941131591797,0.33636495471001,0.12589095532894,9.98248100280762,1.37351226806641,1.84719610214233,0.86576122045517
169,1562422455,1.93896865844727,-0.15682375431061,-79.27424621582031,0.33578979969025,0.11576194316149,10.00875663757324,1.33370780944824,2.00259780883789,0.81619769334793
170,1562430788,1.94094169139862,-0.15373888611794,-79.27432250976562,0.33666044473648,0.11377520859241,10.00547313690186,1.35245716571808,2.06640267372131,0.81563407182693
171,1562439121,1.95118296146393,-0.13927038013935,-79.26877593994141,0.36219736933708,0.12124286592007,10.02332115173340,1.32645881175995,1.90190804004669,0.86862993240356
172,1562447454,1.95302820205688,-0.13675534725189,-79.26975250244141,0.32186099886894,0.11030855029821,9.99992847442627,1.34920418262482,2.01245903968811,0.72951900959015
173,1562455787,1.96294713020325,-0.12227050960064,-79.26435852050781,0.35186961293221,0.12085830420256,10.00503826141357,1.29070138931274,1.90869617462158,0.85774397850037
174,1562464120,1.96559405326843,-0.12090287357569,-79.26482391357422,0.36083009839058,0.13692212104797,9.99786758422852,1.46031868457794,1.89376306533813,0.76069158315659
175,1562472453,1.97588729858398,-0.10540952533484,-79.25996398925781,0.32774102687836,0.10492423921824,10.00308990478516,1.33637154102325,2.03174686431885,0.79117250442505
176,1562480786,1.97835171222687,-0.10461988300085,-79.25914764404297,0.36837831139565,0.11928903311491,10.01782035827637,1.45273709297180,1.84886109828949,0.90894687175751
177,1562489119,1.98782837390900,-0.09101359546185,-79.25399017333984,0.32304045557976,0.11015174537897,9.98489475250244,1.24259781837463,1.81220710277557,0.83850759267807
178,1562497452,1.98916220664978,-0.08902835845947,-79.25370788574219,0.36956545710564,0.12773925065994,9.99978256225586,1.33012151718140,2.00800228118896,0.83566445112228
179,1562505785,1.99882280826569,-0.07489731162786,-79.24907684326172,0.30316761136055,0.12258096039295,10.01697826385498,1.26782774925232,1.87813794612885,0.77895444631577
180,1562514118,1.99937403202057,-0.07336489856243,-79.24859619140625,0.30660447478294,0.12191324681044,10.00460433959961,1.25020503997803,1.97337186336517,0.86532562971115
181,1562522451,2.00986814498901,-0.05938648059964,-79.24358367919922,0.37317094206810,0.13166274130344,10.01357078552246,1.36974680423737,1.86643242835999,0.82946580648422
182,1562530784,2.01082730293274,-0.05803528428078,-79.24388122558594,0.33860483765602,0.11677972972393,9.98504638671875,1.31139767169952,1.96801877021790,0.78505069017410
183,1562539117,2.02076435089111,-0.04350884631276,-79.23889160156250,0.30658513307571,0.13346327841282,10.02153968811035,1.30665910243988,1.93764019012451,0.82649451494217
184,1562547450,2.02157640457153,-0.04203842952847,-79.23925781250000,0.35268917679787,0.13024161756039,9.96386718750000,1.30671036243439,1.99931931495667,0.78927701711655
185,1562555783,2.03150701522827,-0.02785201743245,-79.23487091064453,0.35922175645828,0.13112151622772,9.99201869964600,1.30955362319946,1.89875781536102,0.76335543394089
186,1562564116,2.03235626220703,-0.02836022712290,-79.23546600341797,0.32430094480515,0.12146896123886,10.00546360015869,1.32238614559174,1.78423631191254,0.78715103864670
187,1562572449,2.04215121269226,-0.01356230117381,-79.23086547851562,0.38937932252884,0.10563486069441,9.96952438354492,1.29674625396729,1.97974979877472,0.78771460056305
188,1562580782,2.04321408271790,-0.01271109003574,-79.23125457763672,0.32985353469849,0.14533920586109,10.01458930969238,1.36349713802338,1.97109234333038,0.80285263061523
189,1562589115,2.05380034446716,0.00241308473051,-79.22691345214844,0.37665066123009,0.11994914710522,10.00193595886230,1.39482331275940,2.02237200737000,0.75848871469498
190,1562597448,2.05464982986450,0.00175802689046,-79.22702026367188,0.33439049124718,0.08322425931692,9.96829986572266,1.35102283954620,1.81435883045197,0.83171987533569
191,1562605781,2.06444692611694,0.01844161935151,-79.22154998779297,0.36663773655891,0.15909168124199,10.06287479400635,1.30320096015930,2.21957588195801,0.89158022403717
192,1562614114,2.06513833999634,0.01763576455414,-79.22197723388672,0.37445986270905,0.10564669221640,10.00702953338623,1.34682226181030,1.81722760200500,0.80702781677246
193,1562622447,2.07554340362549,0.03220872208476,-79.21719360351562,0.31381419301033,0.11158815026283,10.02936649322510,1.38104259967804,1.96965777873993,0.82147407531738
194,1562630780,2.07557678222656,0.03311873972416,-79.21806335449219,0.39204505085945,0.13042111694813,9.99665451049805,1.28383672237396,2.04327321052551,0.75164973735809
195,1562639113,2.08674120903015,0.04795326665044,-79.21363830566406,0.30568301677704,0.11273693293333,10.00560188293457,1.47445774078369,2.00554323196411,0.78246355056763
196,1562647446,2.08676195144653,0.04811378195882,-79.21383666992188,0.36116281151772,0.14697754383087,10.02243423461914,1.29669499397278,1.97780323028564,0.84842026233673
197,1562655779,2.09781575202942,0.06147982180119,-79.20890045166016,0.38585910201073,0.10423808544874,9.97447490692139,1.46549296379089,1.83805191516876,0.85277479887009
198,1562664112,2.09747505187988,0.06200810521841,-79.20939636230469,0.30552145838737,0.13020437955856,10.02417373657227,1.26716184616089,2.04821681976318,0.82155102491379
199,1562672445,2.10829758644104,0.07614210993052,-79.20473480224609,0.36691862344742,0.12669707834721,10.02084350585938,1.44136440753937,1.93454074859619,0.82070571184158
200,1562680778,2.10818243026733,0.07633847743273,-79.20538330078125,0.29032334685326,0.07931889593601,9.97640228271484,1.30914354324341,2.02890372276306,0.78210508823395
201,1562689111,2.11950278282166,0.09050250053406,-79.20095062255859,0.34161531925201,0.16920462250710,10.05682277679443,1.50455474853516,1.94312155246735,0.79616731405258
202,1562697444,2.12039518356323,0.08858641237020,-79.20137786865234,0.33074641227722,0.09763750433922,9.94746875762939,1.44561612606049,1.79550647735596,0.84170943498611
203,1562705777,2.13070940971375,0.10125590115786,-79.19689178466797,0.36628919839859,0.12251268327236,9.99290657043457,1.38703644275665,1.76945710182190,0.81589025259018
204,1562714110,2.13126134872437,0.10073103755713,-79.19799804687500,0.34158548712730,0.11327073723078,10.02149581909180,1.42097532749176,1.98279798030853,0.75679826736450
205,1562722443,2.14073252677917,0.11517701297998,-79.19313812255859,0.39373278617859,0.08214543014765,9.91791820526123,1.29024016857147,1.99130201339722,0.85277467966080
206,1562730776,2.14037513732910,0.11359007656574,-79.19464111328125,0.36144044995308,0.12581184506416,10.02466678619385,1.33086454868317,1.87959802150726,0.71028274297714
207,1562739109,2.14965391159058,0.12680223584175,-79.19062805175781,0.36030551791191,0.07815121114254,9.97919464111328,1.27143931388855,1.84537756443024,0.76335537433624
208,1562747442,2.14915943145752,0.12583577632904,-79.19119262695312,0.33887606859207,0.11424908787012,10.00054454803467,1.33409178256989,1.98336148262024,0.80997323989868
209,1562755775,2.15973114967346,0.13840503990650,-79.18682861328125,0.33456513285637,0.15457168221474,10.03928375244141,1.42996609210968,1.77703893184662,0.80897444486618
210,1562764108,2.15919661521912,0.13937431573868,-79.18708801269531,0.38946714997292,0.08860119432211,9.94476699829102,1.34354341030121,2.23619937896729,0.82295978069305
211,1562772441,2.16896867752075,0.15418154001236,-79.18260192871094,0.29346686601639,0.15587043762207,10.04471206665039,1.33808779716492,2.05241751670837,0.81683796644211
212,1562780774,2.16825962066650,0.15229922533035,-79.18283843994141,0.36399376392365,0.13773913681507,10.00611019134521,1.33603858947754,1.92091405391693,0.88192379474640
213,1562789107,2.17739534378052,0.16523137688637,-79.17930603027344,0.34347537159920,0.07448878139257,9.96935749053955,1.26785361766815,1.82967627048492,0.71602034568787
214,1562797440,2.17743277549744,0.16337203979492,-79.18000030517578,0.32256746292114,0.15382277965546,10.05855941772461,1.44351577758789,1.94596469402313,0.81258600950241
215,1562805773,2.18808960914612,0.17478078603745,-79.17561340332031,0.38989582657814,0.12341187149286,9.98178386688232,1.45404314994812,1.65744578838348,0.82890218496323
216,1562814106,2.18660402297974,0.17452901601791,-79.17559814453125,0.36703529953957,0.07926804572344,9.96790599822998,1.27528166770935,2.16627287864685,0.88125783205032
217,1562822439,2.19663572311401,0.18873000144958,-79.17078399658203,0.34801462292671,0.16136822104454,10.07548141479492,1.38176000118256,2.00057411193848,0.87016677856445
218,1562830772,2.19551944732666,0.18798944354057,-79.17116546630859,0.31415429711342,0.09190684556961,9.92983818054199,1.33693492412567,2.13171887397766,0.83796966075897
219,1562839105,2.20489716529846,0.20149314403534,-79.16702270507812,0.34867867827415,0.15121896564960,10.05097866058350,1.30758118629456,1.92124712467194,0.79734551906586
220,1562847438,2.20359182357788,0.19947181642056,-79.16754150390625,0.32308000326157,0.10703468322754,9.98920059204102,1.33086454868317,1.99857616424561,0.81937378644943
221,1562855771,2.21290469169617,0.21219417452812,-79.16381072998047,0.40328946709633,0.08574981987476,9.97178840637207,1.30450737476349,1.83341550827026,0.75492841005325
222,1562864104,2.21274018287659,0.20903094112873,-79.16412353515625,0.35036268830299,0.17726862430573,10.01967048645020,1.48780286312103,1.88869118690491,0.84329754114151
223,1562872437,2.22230362892151,0.22304423153400,-79.15878295898438,0.39670288562775,0.09486146271229,9.96613121032715,1.33842062950134,2.00287961959839,0.94255268573761
224,1562880770,2.21937775611877,0.21869997680187,-79.15942382812500,0.31885859370232,0.14343984425068,10.06026363372803,1.17003262042999,1.77463102340698,0.83056718111038
225,1562889103,2.22984957695007,0.23224513232708,-79.15564727783203,0.36925929784775,0.13082347810268,9.97809219360352,1.45181488990784,1.94483768939972,0.76384204626083
226,1562897436,2.22727346420288,0.22757299244404,-79.15652465820312,0.35419884324074,0.08923833817244,9.97754955291748,1.22669136524200,1.75834035873413,0.79670518636703
227,1562905769,2.23663830757141,0.24122454226017,-79.15211486816406,0.39162003993988,0.15098448097706,10.03624153137207,1.32341074943542,1.96799314022064,0.83784162998199
228,1562914102,2.23565649986267,0.23927056789398,-79.15242767333984,0.30098316073418,0.07565688341856,9.97530651092529,1.43416666984558,2.11663222312927,0.87426513433456
229,1562922435,2.24596881866455,0.25288110971451,-79.14772033691406,0.35861843824387,0.15426456928253,10.00341606140137,1.44185101985931,1.97227048873901,0.87946480512619
230,1562930768,2.24323701858521,0.25087553262711,-79.14864349365234,0.31843513250351,0.06743326038122,10.00333023071289,1.24065113067627,2.12700581550598,0.77892899513245
231,1562939101,2.25240516662598,0.26226639747620,-79.14462280273438,0.34518924355507,0.14475937187672,10.02575492858887,1.31080842018127,1.71003186702728,0.81220173835754
232,1562947434,2.25047802925110,0.25739663839340,-79.14611816406250,0.36478355526924,0.10485503822565,10.00905418395996,1.35734963417053,1.80449736118317,0.73779237270355
233,1562955767,2.26016592979431,0.27009594440460,-79.14228820800781,0.36637538671494,0.12184129655361,9.98114776611328,1.37645792961121,1.87421929836273,0.78441035747528
234,1562964100,2.25795221328735,0.26713126897812,-79.14328002929688,0.33228155970573,0.12163908779621,10.03613662719727,1.34003436565399,2.06161308288574,0.77552223205566
235,1562972433,2.26811552047729,0.28048658370972,-79.13879394531250,0.35676288604736,0.12910315394402,10.01393318176270,1.43900775909424,1.96217870712280,0.86330223083496
236,1562980766,2.26628017425537,0.27609813213348,-79.13896179199219,0.35456904768944,0.11265554279089,9.97083187103271,1.40155959129333,1.91889047622681,0.88433146476746
237,1562989099,2.27558970451355,0.28942593932152,-79.13445281982422,0.34116673469543,0.14822562038898,10.05677032470703,1.34041845798492,1.96707081794739,0.86960327625275
238,1562997432,2.27279996871948,0.28501665592194,-79.13531494140625,0.35463368892670,0.12861756980419,9.99836540222168,1.30261182785034,1.93838274478912,0.81320065259933
239,1563005765,2.28148341178894,0.29844230413437,-79.13096618652344,0.33435821533203,0.10544890910387,10.00213336944580,1.27072227001190,1.98574352264404,0.85361999273300
240,1563014098,2.27879357337952,0.29381418228149,-79.13122558593750,0.35163390636444,0.13287161290646,10.01337528228760,1.33124876022339,1.93976604938507,0.88640618324280
241,1563022431,2.28808283805847,0.30619117617607,-79.12796020507812,0.41238102316856,0.11525125801563,9.98945331573486,1.34869182109833,1.86194992065430,0.73133760690689
242,1563030764,2.28578925132751,0.30184125900269,-79.12892913818359,0.33385428786278,0.12737672030926,10.00208568572998,1.39556610584259,1.99937057495117,0.81012707948685
243,1563039097,2.29354047775269,0.31460246443748,-79.12479400634766,0.32057607173920,0.13101622462273,9.99216175079346,1.16862392425537,1.91965878009796,0.83679145574570
244,1563047430,2.29084253311157,0.30892059206963,-79.12530517578125,0.37269231677055,0.12748245894909,9.99452400207520,1.36231875419617,1.86320495605469,0.85820490121841
245,1563055763,2.30067038536072,0.32275134325027,-79.12103271484375,0.33957043290138,0.11547411233187,10.02988338470459,1.42281961441040,2.05582404136658,0.85244184732437
246,1563064096,2.29704618453979,0.31742474436760,-79.12266540527344,0.38188859820366,0.13012370467186,10.01603126525879,1.26718747615814,1.92757356166840,0.74657803773880
247,1563072429,2.30647015571594,0.33071845769882,-79.11860656738281,0.35850867629051,0.12045663595200,9.99314975738525,1.38014614582062,1.99852490425110,0.82933765649796
248,1563080762,2.30332732200623,0.32453122735023,-79.11977386474609,0.36185827851295,0.09620128571987,10.02258014678955,1.34139192104340,1.85390722751617,0.79701256752014
249,1563089095,2.31304264068604,0.33647802472115,-79.11554718017578,0.35475936532021,0.10877574235201,10.01261138916016,1.41945135593414,1.84600508213043,0.85913991928101
250,1563097428,2.30997610092163,0.33134225010872,-79.11631774902344,0.38235870003700,0.11845387518406,10.00345325469971,1.37033593654633,2.00531315803528,0.83207845687866
251,1563105761,2.31936097145081,0.34493246674538,-79.11196136474609,0.32641965150833,0.15563866496086,10.01443672180176,1.38288688659668,2.05203294754028,0.86909091472626
252,1563114094,2.31518054008484,0.33931297063828,-79.11224365234375,0.35399833321571,0.08968922495842,9.99632167816162,1.25161409378052,1.97557485103607,0.88100165128708
253,1563122427,2.32441806793213,0.35270124673843,-79.10863494873047,0.31763535737991,0.11724064499140,10.01284503936768,1.37256431579590,2.03036332130432,0.78397488594055
254,1563130760,2.32035136222839,0.34534463286400,-79.11071014404297,0.35823938250542,0.11816524714231,10.01801681518555,1.28488683700562,1.78177762031555,0.70003706216812
255,1563139093,2.32986402511597,0.35702392458916,-79.10673522949219,0.33379581570625,0.12625944614410,10.01980972290039,1.40852665901184,1.83764171600342,0.84104335308075
256,1563147426,2.32667469978333,0.34965610504150,-79.10796356201172,0.35583800077438,0.11880257725716,10.02955627441406,1.40609347820282,1.80892860889435,0.80723267793655
257,1563155759,2.33550739288330,0.36314308643341,-79.10340881347656,0.36647191643715,0.10561563074589,9.99462604522705,1.33247828483582,2.06373906135559,0.90630859136581
258,1563164092,2.33173537254333,0.35722866654396,-79.10389709472656,0.36480087041855,0.11344753950834,10.00370216369629,1.35466015338898,2.01140928268433,0.86253368854523
259,1563172425,2.34055829048157,0.37133160233498,-79.09989929199219,0.30680239200592,0.13212068378925,10.00979518890381,1.33629465103149,2.14403963088989,0.83876377344131
260,1563180758,2.33661842346191,0.36557009816170,-79.10034942626953,0.37217521667480,0.12268887460232,9.97515487670898,1.34956288337708,2.05146956443787,0.88433152437210
261,1563189091,2.34546470642090,0.37700963020325,-79.09653472900391,0.36546102166176,0.13984145224094,9.98151206970215,1.34492647647858,1.83182728290558,0.82913267612457
262,1563197424,2.34182047843933,0.37103343009949,-79.09733581542969,0.34580707550049,0.10639535635710,9.99872779846191,1.39830684661865,2.05331420898438,0.85656571388245
263,1563205757,2.35037112236023,0.38375237584114,-79.09355926513672,0.37142625451088,0.11603624373674,9.98771095275879,1.31654620170593,1.99135315418243,0.82224261760712
264,1563214090,2.34658479690552,0.37760645151138,-79.09402465820312,0.30371382832527,0.12739127874374,10.02278327941895,1.39889585971832,2.05902600288391,0.88599646091461
265,1563222423,2.35507392883301,0.39022529125214,-79.09035491943359,0.33536899089813,0.10837473720312,9.99355030059814,1.31367731094360,1.98786962032318,0.81076741218567
266,1563230756,2.35062384605408,0.38193389773369,-79.09185791015625,0.42332184314728,0.11599083244801,9.98557949066162,1.33678138256073,1.81592130661011,0.77846783399582
267,1563239089,2.35864973068237,0.39436599612236,-79.08818054199219,0.33437180519104,0.12077365815639,9.98620510101318,1.26393437385559,1.97414028644562,0.81904077529907
268,1563247422,2.35434174537659,0.38674190640450,-79.08948516845703,0.36342471837997,0.11982019245625,10.02384376525879,1.36869668960571,1.92616486549377,0.80636173486710
269,1563255755,2.36362767219543,0.39963567256927,-79.08560180664062,0.33441314101219,0.13551576435566,9.98985481262207,1.41987395286560,2.03799676895142,0.84475755691528
270,1563264088,2.35858392715454,0.39219114184380,-79.08661651611328,0.34686937928200,0.12022226303816,10.01967906951904,1.29551672935486,1.97124600410461,0.84990602731705
271,1563272421,2.36669802665710,0.40348514914513,-79.08221435546875,0.35100406408310,0.15269811451435,10.01308917999268,1.28450262546539,1.85833847522736,0.91650295257568
272,1563280754,2.36176538467407,0.39641505479813,-79.08320617675781,0.33240649104118,0.11902654916048,9.99178886413574,1.32376945018768,2.03920054435730,0.82946580648422
273,1563289087,2.37117099761963,0.40808016061783,-79.07927703857422,0.30516102910042,0.12032234668732,9.99735546112061,1.44518077373505,1.90833735466003,0.85917836427689
274,1563297420,2.36367821693420,0.39049503207207,-79.08263397216797,-0.07315212488174,0.11139837652445,9.90197372436523,1.03430283069611,0.78566545248032,0.61074584722519
275,1563305753,2.37717580795288,0.41135123372078,-79.07563781738281,0.88376903533936,0.23311133682728,9.97880077362061,1.93853616714478,3.03339076042175,1.18301892280579
276,1563314086,2.36224198341370,0.40927386283875,-79.07792663574219,0.30551540851593,-0.14477792382240,9.98772525787354,0.14715376496315,2.68201518058777,0.68251687288284
277,1563322419,2.38218235969543,0.42374721169472,-79.07262420654297,0.14881481230259,0.58214890956879,10.33759212493896,2.71872019767761,2.26880621910095,1.01583480834961
278,1563330752,2.37472820281982,0.41404655575752,-79.07489013671875,0.11906389147043,-0.11265559494495,9.89663887023926,1.04926145076752,1.77532255649567,0.73044109344482
279,1563339085,2.37962913513184,0.42068150639534,-79.07186126708984,0.89733111858368,0.00230880780146,9.83175563812256,0.92142093181610,1.32584404945374,0.78202819824219
280,1563347418,2.39190244674683,0.43734607100487,-79.06815338134766,0.30300384759903,0.28241336345673,10.20793628692627,1.78907752037048,2.50689101219177,0.80753999948502
281,1563355751,2.38510155677795,0.43228521943092,-79.06890106201172,0.16098070144653,-0.00835535395890,10.00001716613770,1.18015015125275,2.40615010261536,0.88397288322449
282,1563364084,2.38137698173523,0.42399862408638,-79.06904602050781,0.26299849152565,0.18362197279930,10.02162551879883,1.54505085945129,2.00551795959473,0.98566138744354
283,1563372417,2.38915348052979,0.42945000529289,-79.06601715087891,0.41191926598549,0.17358924448490,9.95753192901611,1.27817595005035,1.20197355747223,0.79368269443512
284,1563380750,2.38127493858337,0.41876038908958,-79.06834411621094,0.42623350024223,0.00329519808292,9.91736030578613,1.05661273002625,1.72619450092316,0.73366850614548
285,1563389083,2.39141869544983,0.43307897448540,-79.06393432617188,0.29660987854004,0.14596900343895,10.11973571777344,1.56587517261505,2.28069138526917,0.91640043258667
286,1563397416,2.38601112365723,0.42695364356041,-79.06487274169922,0.38157787919044,0.20863701403141,10.02402496337891,1.37235939502716,2.30443572998047,0.88305073976517
287,1563405749,2.39533638954163,0.44015645980835,-79.06188964843750,0.25590479373932,0.07166661322117,9.91722011566162,1.47502136230469,2.14806103706360,0.75720798969269
288,1563414082,2.39001011848450,0.42800518870354,-79.06351470947266,0.40223056077957,0.14727549254894,10.04689025878906,1.39607810974121,1.59430658817291,0.80421012639999
289,1563422415,2.39647531509399,0.43632832169533,-79.06021118164062,0.30211624503136,0.05307473242283,9.96902656555176,1.13729774951935,1.57304716110229,0.82019352912903
290,1563430748,2.39067983627319,0.42910033464432,-79.06168365478516,0.35067239403725,0.16675744950771,10.10839271545410,1.35740089416504,2.20748615264893,0.80958920717239
291,1563439081,2.39722323417664,0.44601482152939,-79.05861663818359,0.28961968421936,0.12229277193546,9.95742988586426,1.15184652805328,2.61009073257446,0.75316089391708
292,1563447414,2.39350366592407,0.43390598893166,-79.06030273437500,0.34388867020607,0.03314197808504,9.94742965698242,1.61866593360901,1.63954162597656,0.80111086368561
293,1563455747,2.40200662612915,0.44382917881012,-79.05728149414062,0.40113252401352,0.18430002033710,10.05778217315674,1.39200568199158,1.78100907802582,0.78405177593231
294,1563464080,2.39644837379456,0.43574303388596,-79.05832672119141,0.37499159574509,0.09118917584419,9.95477104187012,1.41280436515808,2.14939308166504,0.87436759471893
295,1563472413,2.40556049346924,0.44747790694237,-79.05487060546875,0.28461372852325,0.14469154179096,10.08977890014648,1.46964251995087,2.00756692886353,0.83005499839783
296,1563480746,2.39836525917053,0.43690657615662,-79.05718994140625,0.34667047858238,0.12257779389620,9.96614170074463,1.23178851604462,1.86271834373474,0.72723931074142
297,1563489079,2.40658640861511,0.44838160276413,-79.05324554443359,0.41634324193001,0.12111032009125,9.95970249176025,1.36977231502533,1.98822820186615,0.89204138517380
298,1563497412,2.40064573287964,0.43810403347015,-79.05448150634766,0.36006477475166,0.15768113732338,10.07829475402832,1.39436209201813,1.92962276935577,0.86855316162109
299,1563505745,2.40881657600403,0.45007473230362,-79.05130767822266,0.36018076539040,0.10374630242586,10.00285816192627,1.37002849578857,2.05282735824585,0.79983001947403
300,1563514078,2.40225362777710,0.44072592258453,-79.05347442626953,0.32259801030159,0.10248739272356,9.95596790313721,1.33506512641907,2.05495333671570,0.73748511075974
301,1563522411,2.41141009330750,0.45073556900024,-79.05020141601562,0.34087184071541,0.14682272076607,10.00314903259277,1.49297702312469,1.82644879817963,0.82349765300751
302,1563530744,2.40438985824585,0.44097152352333,-79.05134582519531,0.32654565572739,0.08141166716814,10.00452327728271,1.29487645626068,2.02531766891479,0.81868219375610
303,1563539077,2.41136813163757,0.45234832167625,-79.04779815673828,0.32967323064804,0.14328126609325,10.06219291687012,1.23716759681702,2.00108671188354,0.85136604309082
304,1563547410,2.40278959274292,0.44210758805275,-79.04859161376953,0.36227479577065,0.11945157498121,9.96382904052734,1.11975204944611,1.99009799957275,0.90397769212723
305,1563555743,2.41105008125305,0.45254036784172,-79.04489898681641,0.34252098202705,0.08958683907986,9.97727775573730,1.39500260353088,1.89558160305023,0.87797921895981
306,1563564076,2.40508937835693,0.44192501902580,-79.04595184326172,0.33133119344711,0.14459551870823,10.03038787841797,1.45130252838135,1.96292126178741,0.85876846313477
307,1563572409,2.41308045387268,0.45330893993378,-79.04268646240234,0.33512184023857,0.11054785549641,9.98356914520264,1.37020802497864,2.01591730117798,0.82237070798874
308,1563580742,2.40730714797974,0.44272285699844,-79.04379272460938,0.32243606448174,0.15714102983475,10.04811000823975,1.48457551002502,1.98369467258453,0.85802572965622
309,1563589075,2.41486477851868,0.45222160220146,-79.04065704345703,0.34662646055222,0.11282936483622,9.99459457397461,1.32359004020691,1.79837560653687,0.82034718990326
310,1563597408,2.40714502334595,0.44297060370445,-79.04126739501953,0.39822599291801,0.14113751053810,10.01623058319092,1.26437008380890,2.15992045402527,0.90016108751297
311,1563605741,2.41320037841797,0.45422253012657,-79.03815460205078,0.31737866997719,0.10197244584560,9.98435211181641,1.14918267726898,2.01814556121826,0.81066489219666
312,1563614074,2.40696334838867,0.44379919767380,-79.04049682617188,0.28969183564186,0.15301358699799,9.99376773834229,1.45483720302582,2.03041481971741,0.70264971256256
313,1563622407,2.41437506675720,0.45622771978378,-79.03765106201172,0.36008015275002,0.09637482464314,9.95445632934570,1.31787812709808,2.16660571098328,0.77431833744049
314,1563630740,2.40776324272156,0.43890827894211,-79.03961944580078,0.49578326940536,0.06990879774094,9.99476718902588,1.41982257366180,1.22323346138000,0.80999898910522
315,1563639073,2.41571140289307,0.44991806149483,-79.03639221191406,0.30919572710991,0.17669005692005,10.12236213684082,1.38795840740204,2.00608134269714,0.82844120264053
316,1563647406,2.40726256370544,0.44186130166054,-79.03784179687500,0.37047666311264,0.09208629280329,9.95330047607422,1.21078491210938,2.36094069480896,0.82887661457062
317,1563655739,2.41403150558472,0.45137235522270,-79.03488159179688,0.32582682371140,0.11628030240536,9.98874282836914,1.25261294841766,1.83564436435699,0.80792421102524
318,1563664072,2.40654587745667,0.43967416882515,-79.03690338134766,0.30261468887329,0.10845680534840,10.02808094024658,1.34070014953613,1.93579578399658,0.75628584623337
319,1563672405,2.41338443756104,0.45080763101578,-79.03392028808594,0.36194580793381,0.12615355849266,9.99966144561768,1.26818633079529,2.03722834587097,0.80390274524689
320,1563680738,2.40593361854553,0.43928515911102,-79.03528594970703,0.35106161236763,0.13629280030727,10.00951385498047,1.35770821571350,1.97562599182129,0.83141249418259
321,1563689071,2.41442108154297,0.45147314667702,-79.03137969970703,0.33112406730652,0.10984946042299,9.98588466644287,1.46956551074982,2.17805504798889,0.91227656602859
322,1563697404,2.40583682060242,0.44061246514320,-79.03247833251953,0.28980195522308,0.09181865304708,9.99115753173828,1.23353040218353,2.07096195220947,0.85869163274765
323,1563705737,2.41297984123230,0.45074152946472,-79.02848052978516,0.32641562819481,0.14399123191833,10.00079727172852,1.31280636787415,1.93879258632660,0.93397182226181
324,1563714070,2.40488576889038,0.43762892484665,-79.02993011474609,0.40553280711174,0.11164910346270,9.97760105133057,1.30366206169128,1.81087529659271,0.83092576265335
325,1563722403,2.41310119628906,0.44815731048584,-79.02670288085938,0.36076954007149,0.09508978575468,10.00812149047852,1.44950950145721,1.99237751960754,0.84347671270370
326,1563730736,2.40574336051941,0.43665003776550,-79.02793121337891,0.36029338836670,0.08410549908876,9.97797393798828,1.40514564514160,2.02493333816528,0.85838431119919
327,1563739069,2.41319298744202,0.44809740781784,-79.02535247802734,0.34777876734734,0.16132123768330,10.02926731109619,1.36198568344116,2.10820508003235,0.76499468088150
328,1563747402,2.40622067451477,0.43791851401329,-79.02698516845703,0.34099987149239,0.15284988284111,10.00756359100342,1.46223974227905,2.19777846336365,0.80134135484695
329,1563755735,2.41268968582153,0.45019346475601,-79.02360534667969,0.31847393512726,0.09483800828457,9.97483062744141,1.25146031379700,2.22019076347351,0.85620713233948
330,1563764068,2.40391421318054,0.43771609663963,-79.02525329589844,0.36521536111832,0.14327594637871,9.98943233489990,1.25543045997620,1.93671810626984,0.82795453071594
331,1563772401,2.41190862655640,0.44806170463562,-79.02295684814453,0.38457831740379,0.13284036517143,9.98506927490234,1.43985307216644,1.99086654186249,0.73812544345856
332,1563780734,2.40439009666443,0.43548831343651,-79.02471923828125,0.34069365262985,0.10939949750900,10.01799678802490,1.41505849361420,1.94217395782471,0.78945642709732
333,1563789067,2.41206574440002,0.44634839892387,-79.02145385742188,0.32315802574158,0.12150391936302,9.96617126464844,1.40770721435547,2.06612110137939,0.85728287696838
334,1563797400,2.40408563613892,0.43487632274628,-79.02336883544922,0.36956083774567,0.11453165113926,10.00296592712402,1.37166798114777,2.08510136604309,0.76297128200531
335,1563805733,2.41046118736267,0.44631993770599,-79.01972198486328,0.28553411364555,0.09930840879679,9.99641227722168,1.25617325305939,2.14621686935425,0.89982813596725
336,1563814066,2.40254759788513,0.43424472212791,-79.02106475830078,0.29686629772186,0.13843248784542,10.01374149322510,1.39185190200806,2.02616286277771,0.82997804880142
337,1563822399,2.40838074684143,0.44157359004021,-79.01828002929688,0.37300255894661,0.10126924514771,9.94308567047119,1.19761919975281,1.65859854221344,0.81960427761078
338,1563830732,2.39916229248047,0.42734518647194,-79.01963043212891,0.38369694352150,0.09646410495043,9.99466133117676,1.24282824993134,1.78203356266022,0.85385048389435
339,1563839065,2.40764451026917,0.43705865740776,-79.01565551757812,0.36971649527550,0.14494322240353,9.99956798553467,1.52084517478943,1.95703005790710,0.95202988386154
340,1563847398,2.40022063255310,0.42551413178444,-79.01687622070312,0.33763521909714,0.12560407817364,9.98906803131104,1.46895086765289,2.12029528617859,0.84047985076904
341,1563855731,2.40772724151611,0.43672496080399,-79.01377105712891,0.34910544753075,0.12711702287197,9.99060821533203,1.41021728515625,2.14127326011658,0.84181183576584
342,1563864064,2.39945602416992,0.42459511756897,-79.01562500000000,0.35035493969917,0.12095686793327,9.98063087463379,1.37535643577576,2.05951261520386,0.78207951784134
343,1563872397,2.40621066093445,0.43373012542725,-79.01280975341797,0.37450084090233,0.13521553575993,9.98991107940674,1.32594668865204,1.90078127384186,0.81788825988770
344,1563880730,2.39824151992798,0.41969189047813,-79.01467895507812,0.34189665317535,0.11867504566908,10.02338218688965,1.41961765289307,1.84384047985077,0.79329842329025
345,1563889063,2.40501213073730,0.42893058061600,-79.01226043701172,0.32604750990868,0.09324502944946,9.96136379241943,1.33355402946472,1.92052972316742,0.77324253320694
346,1563897396,2.39628386497498,0.41740059852600,-79.01345825195312,0.31931334733963,0.16013309359550,9.97116947174072,1.33934283256531,2.15815305709839,0.85572040081024
347,1563905729,2.40179133415222,0.42733785510063,-79.01048278808594,0.19379097223282,0.04625014215708,10.02445507049561,1.18770647048950,2.01455950737000,0.83825153112411
348,1563914062,2.39745020866394,0.41048437356949,-79.01167297363281,0.51435446739197,0.22813901305199,10.04954624176025,1.87524378299713,1.52453374862671,0.90966403484344
349,1563922395,2.40019893646240,0.41868337988853,-79.00920867919922,0.28146651387215,-0.01584616489708,9.91873836517334,0.86248254776001,1.81279647350311,0.78756093978882
350,1563930728,2.39390683174133,0.40447402000427,-79.01078033447266,0.46466010808945,0.25680533051491,10.11722278594971,1.65058124065399,1.85731399059296,0.84742128849030
351,1563939061,2.39932560920715,0.41668373346329,-79.00830078125000,0.34600216150284,0.05826076865196,9.89682102203369,1.18745028972626,2.30154132843018,0.77224349975586
352,1563947394,2.39110016822815,0.40439251065254,-79.01014709472656,0.29956769943237,0.15431745350361,10.01120662689209,1.42187178134918,2.10469603538513,0.82887661457062
353,1563955727,2.39619255065918,0.41548374295235,-79.00763702392578,0.34070375561714,0.15341407060623,10.02705478668213,1.15468966960907,2.17618536949158,0.78312963247299
354,1563964060,2.38853597640991,0.40412795543671,-79.00859069824219,0.29693269729614,0.11143416911364,9.97815608978271,1.49354052543640,2.22979593276978,0.92518615722656
355,1563972393,2.39505696296692,0.41270670294762,-79.00534057617188,0.29721450805664,0.18133801221848,10.05671215057373,1.33204269409180,1.88694953918457,0.88786625862122
356,1563980726,2.38611078262329,0.39615330100060,-79.00733947753906,0.37551546096802,0.08657394349575,9.98540878295898,1.34638655185699,1.60299003124237,0.80989652872086
357,1563989059,2.39198207855225,0.40218010544777,-79.00489807128906,0.42471948266029,0.06714103370905,9.97758769989014,1.25922131538391,1.58500885963440,0.80436372756958
358,1563997392,2.38472056388855,0.39011290669441,-79.00600433349609,0.40574613213539,0.18532644212246,10.05962467193604,1.56016290187836,2.16120076179504,0.88174438476562
359,1564005725,2.39032769203186,0.40217474102974,-79.00331115722656,0.36726000905037,0.08503218740225,9.93628311157227,1.23409378528595,2.31839537620544,0.80495291948318
360,1564014058,2.38159537315369,0.39033320546150,-79.00499725341797,0.24305436015129,0.14999358355999,10.02256011962891,1.39031505584717,2.20036530494690,0.81568533182144
361,1564022391,2.38823890686035,0.39745032787323,-79.00231933593750,0.25627604126930,0.11122587323189,10.02551841735840,1.36301040649414,1.73323833942413,0.82933771610260
362,1564030724,2.37874174118042,0.38015341758728,-79.00388336181641,0.39152714610100,0.07171513885260,9.94516372680664,1.30478906631470,1.54497385025024,0.85769265890121
363,1564039057,2.38499593734741,0.38731333613396,-79.00058746337891,0.38753789663315,0.13876782357693,10.03800678253174,1.32151520252228,1.75011813640594,0.90705126523972
364,1564047390,2.37549543380737,0.37674987316132,-79.00252532958984,0.32143938541412,0.12779979407787,10.02499008178711,1.31157696247101,2.36565399169922,0.79232513904572
365,1564055723,2.38219165802002,0.38575363159180,-78.99969482421875,0.39590319991112,0.10492798686028,10.01111602783203,1.38078665733337,1.97662472724915,0.84457814693451
366,1564064056,2.37379837036133,0.37191095948219,-79.00113677978516,0.29980373382568,0.11423788219690,9.97314167022705,1.45217347145081,1.98402762413025,0.86455732584000
367,1564072389,2.38022303581238,0.38114222884178,-78.99842071533203,0.35073930025101,0.12645377218723,10.02429199218750,1.35273897647858,2.01130652427673,0.83031100034714
368,1564080722,2.37234687805176,0.36553230881691,-79.00042724609375,0.36967104673386,0.14034503698349,9.99807167053223,1.52143430709839,1.77488708496094,0.80362099409103
369,1564089055,2.37784719467163,0.37395295500755,-78.99744415283203,0.36069470643997,0.13372932374477,10.00182056427002,1.24864280223846,1.92465388774872,0.86732369661331
370,1564097388,2.36728787422180,0.36175471544266,-78.99940490722656,0.35924458503723,0.11677099764347,9.99976253509521,1.20187103748322,2.19480681419373,0.81056243181229
371,1564105721,2.37355852127075,0.37013137340546,-78.99671936035156,0.36846968531609,0.16057656705379,10.00350475311279,1.34746253490448,1.92619061470032,0.83323103189468
372,1564114054,2.36460471153259,0.35561418533325,-78.99857330322266,0.34837698936462,0.09023237973452,9.98324966430664,1.39940810203552,1.92598557472229,0.81468635797501
373,1564122387,2.37149000167847,0.36374023556709,-78.99599456787109,0.36138483881950,0.13221161067486,10.03921222686768,1.42627739906311,1.90280473232269,0.82526504993439
374,1564130720,2.36278128623962,0.34961339831352,-78.99798583984375,0.34732061624527,0.13948452472687,9.97670841217041,1.43611335754395,1.98046696186066,0.79824197292328
375,1564139053,2.36909914016724,0.35968133807182,-78.99471282958984,0.33094003796577,0.11729754507542,9.99011421203613,1.36206245422363,2.14862442016602,0.89972567558289
376,1564147386,2.35918140411377,0.34349641203880,-78.99603271484375,0.32502889633179,0.13838031888008,10.02168369293213,1.29595220088959,1.74222874641418,0.88825041055679
377,1564155719,2.36524224281311,0.35160744190216,-78.99357604980469,0.35918533802032,0.09941285103559,9.99192810058594,1.33847200870514,1.91599619388580,0.81507062911987
378,1564164052,2.35642004013062,0.33690616488457,-78.99576568603516,0.34504583477974,0.14060679078102,9.99324512481689,1.43239927291870,1.92255318164825,0.78387242555618
379,1564172385,2.36239671707153,0.34677255153656,-78.99282073974609,0.33768048882484,0.11121355742216,9.98971557617188,1.33268308639526,2.13825082778931,0.86391687393188
380,1564180718,2.35187101364136,0.33252575993538,-78.99494934082031,0.31716454029083,0.10321363061666,9.99238586425781,1.23570775985718,1.98080015182495,0.76919549703598
381,1564189051,2.35900568962097,0.34054854512215,-78.99269866943359,0.34997269511223,0.15381018817425,10.05534458160400,1.47627651691437,1.92193865776062,0.79296547174454
382,1564197384,2.34790301322937,0.32570809125900,-78.99436950683594,0.33010324835777,0.13377998769283,9.96844387054443,1.17021191120148,1.91556072235107,0.82721179723740
383,1564205717,2.35393524169922,0.33124437928200,-78.99224853515625,0.43316665291786,0.11576724797487,10.02052021026611,1.34979331493378,1.63226699829102,0.79042965173721
384,1564214050,2.34333515167236,0.31851610541344,-78.99394226074219,0.13833980262280,0.11761813610792,9.99757385253906,1.23365831375122,2.17895150184631,0.83220648765564
385,1564222383,2.34956455230713,0.32803946733475,-78.99156188964844,0.45488542318344,0.13951978087425,10.01655673980713,1.37850689888000,2.11860466003418,0.80313432216644
386,1564230716,2.33981060981750,0.31389936804771,-78.99296569824219,0.30498766899109,0.11911258101463,9.98554801940918,1.33737063407898,2.01230573654175,0.87723636627197
387,1564239049,2.34434652328491,0.32392036914825,-78.99042510986328,0.02911570668221,0.05568227544427,10.00853729248047,1.18171286582947,2.18650841712952,0.82403558492661
388,1564247382,2.33569359779358,0.31118825078011,-78.99100494384766,0.07895510643721,0.25120052695274,10.05438327789307,1.47707045078278,2.17055058479309,0.97277742624283
389,1564255715,2.34116411209106,0.32323709130287,-78.98807525634766,-0.58970725536346,0.14315132796764,9.99249839782715,1.29905164241791,2.44001221656799,0.86191898584366
390,1564264048,2.33292555809021,0.30408871173859,-78.99054718017578,-0.69662272930145,0.18609198927879,9.99221611022949,1.52189552783966,1.33237564563751,0.78917461633682
391,1564272381,2.33630585670471,0.31005433201790,-78.98857879638672,0.57102340459824,0.08948292583227,10.04648208618164,1.05323183536530,1.71123588085175,0.77749460935593
392,1564280714,2.32631421089172,0.29948136210442,-78.98986053466797,0.03960651159286,0.09563030302525,9.96630477905273,1.31321620941162,2.33015227317810,0.91616976261139
393,1564289047,2.33287525177002,0.30206564068794,-78.98713684082031,1.09514701366425,0.18876875936985,10.14501857757568,1.44023728370667,1.31851828098297,0.88883954286575
394,1564297380,2.32355761528015,0.28730264306068,-78.98932647705078,0.93380808830261,0.04715244472027,9.93915843963623,1.39249241352081,1.85590517520905,0.85692429542542
395,1564305713,2.32820224761963,0.29621800780296,-78.98720550537109,0.69452381134033,-0.01826947182417,9.93286037445068,1.21624076366425,2.08092617988586,0.78543496131897
396,1564314046,2.31873822212219,0.28507950901985,-78.98915863037109,0.30796173214912,0.24152456223965,10.13833808898926,1.39154458045959,2.34552121162415,0.84923988580704
397,1564322379,2.32495832443237,0.29443165659904,-78.98658752441406,-0.10774994641542,0.06317454576492,9.87319469451904,1.41024303436279,2.14419341087341,0.84017258882523
398,1564330712,2.31587600708008,0.27794936299324,-78.98892211914062,-0.26392391324043,0.17827603220940,9.99247741699219,1.43839299678802,1.67727124691010,0.81256037950516
399,1564339045,2.32096338272095,0.28295248746872,-78.98548126220703,0.16375447809696,0.15481109917164,10.02894973754883,1.27871382236481,1.63475167751312,0.96939635276794
400,1564347378,2.31174468994141,0.26785376667976,-78.98618316650391,0.96292555332184,0.17750518023968,10.01747608184814,1.42356216907501,1.80985057353973,0.95443761348724
401,1564355711,2.31534242630005,0.27866184711456,-78.98308563232422,0.73472934961319,0.00183036550879,9.92321205139160,1.10428082942963,2.33491659164429,0.89857310056686
402,1564364044,2.30512118339539,0.26223856210709,-78.98506927490234,0.64251822233200,0.23515865206718,10.07343292236328,1.30796527862549,1.70439672470093,0.83528012037277
403,1564372377,2.31301331520081,0.26981192827225,-78.98376464843750,0.63091206550598,0.07423158735037,9.93616676330566,1.62588918209076,1.94773197174072,0.70113837718964
404,1564380710,2.30401086807251,0.25699946284294,-78.98699951171875,0.10962581634521,0.12990663945675,10.03088474273682,1.45194292068481,2.16916704177856,0.70510858297348
405,1564389043,2.30904269218445,0.26435995101929,-78.98500061035156,-0.02960992604494,0.13730867207050,10.02759838104248,1.28839600086212,1.93156945705414,0.78722786903381
406,1564397376,2.29999160766602,0.25280457735062,-78.98721313476562,-0.13004939258099,0.09587146341801,9.99574661254883,1.44395136833191,2.29810905456543,0.83922481536865
407,1564405709,2.30484962463379,0.26065692305565,-78.98397827148438,-0.34349086880684,0.10868360102177,10.05721092224121,1.27161872386932,2.00375032424927,0.93463784456253
408,1564414042,2.29510927200317,0.24173966050148,-78.98576354980469,0.83330160379410,0.07920352369547,10.04616641998291,1.36762070655823,1.35847651958466,0.93189704418182
409,1564422375,2.30081963539124,0.25468352437019,-78.98358917236328,-0.16460531949997,0.10155829042196,9.94455528259277,1.37799477577209,2.61657094955444,0.78453844785690
410,1564430708,2.29239320755005,0.23414048552513,-78.98639678955078,0.67955273389816,0.13027845323086,10.09735298156738,1.53273010253906,1.15586793422699,0.77910822629929
411,1564439041,2.29821586608887,0.24329710006714,-78.98377990722656,0.50736957788467,0.07271915674210,9.88256645202637,1.39871656894684,2.17198467254639,0.85966491699219
412,1564447374,2.29043555259705,0.22754514217377,-78.98577880859375,0.77849012613297,0.18425177037716,10.03715324401855,1.61653995513916,1.76013338565826,0.81217616796494
413,1564455707,2.29494380950928,0.23650389909744,-78.98308563232422,0.46404033899307,0.16499617695808,10.08735084533691,1.24487745761871,2.15492582321167,0.86916780471802
414,1564464040,2.28344225883484,0.22139900922775,-78.98401641845703,0.06900247931480,0.15811948478222,9.93623161315918,1.16649794578552,1.87516701221466,0.93512439727783
415,1564472373,2.28837704658508,0.23013095557690,-78.98109436035156,0.64888805150986,0.12090616673231,9.94589900970459,1.30020415782928,2.13510012626648,0.89959752559662
416,1564480706,2.27678656578064,0.21623173356056,-78.98377227783203,0.68433219194412,0.04781078547239,9.97935676574707,1.15407502651215,2.01822257041931,0.76573765277863
417,1564489039,2.28307294845581,0.22501933574677,-78.98243713378906,-0.26665690541267,0.18656925857067,9.97653007507324,1.46805417537689,2.14288663864136,0.71051323413849
418,1564497372,2.27569246292114,0.20792698860168,-78.98548126220703,0.49259844422340,0.15868264436722,10.05926609039307,1.65872669219971,1.62232899665833,0.76502037048340
419,1564505705,2.28070068359375,0.21584899723530,-78.98242950439453,0.97028177976608,-0.00127702869941,9.91076278686523,1.31967103481293,2.05357027053833,0.92382866144180
420,1564514038,2.26991438865662,0.20091478526592,-78.98474121093750,0.83883547782898,0.13609534502029,10.04304122924805,1.25530242919922,1.92434632778168,0.82006537914276
421,1564522371,2.27439856529236,0.21081577241421,-78.98127746582031,0.42588311433792,0.08686925470829,10.04074192047119,1.26075816154480,2.30041432380676,0.96916574239731
422,1564530704,2.26451849937439,0.19619715213776,-78.98263549804688,0.10071055591106,0.11424255371094,9.99415493011475,1.36851751804352,1.99422204494476,0.90799903869629
423,1564539037,2.27072739601135,0.20390528440475,-78.98085021972656,0.36380711197853,0.10025496780872,9.95931720733643,1.47463715076447,2.03702306747437,0.77787870168686
424,1564547370,2.26151657104492,0.18862807750702,-78.98332977294922,0.12718451023102,0.13493609428406,9.99295330047607,1.45260906219482,1.89532542228699,0.75620907545090
425,1564555703,2.26692700386047,0.19862794876099,-78.98086547851562,-0.23061819374561,0.20200800895691,10.04951000213623,1.38237452507019,2.32195591926575,0.84734445810318
426,1564564036,2.25656151771545,0.18073360621929,-78.98149871826172,0.12885825335979,0.13261437416077,10.03152751922607,1.31075727939606,1.55048096179962,0.99229556322098
427,1564572369,2.26038646697998,0.18846747279167,-78.97797393798828,0.53401023149490,0.08203916996717,9.90267944335938,1.19777286052704,2.06299614906311,0.98663473129272
428,1564580702,2.25026774406433,0.17279167473316,-78.97893524169922,0.70660609006882,0.11435166746378,10.01610946655273,1.34338963031769,1.80972242355347,0.91929483413696
429,1564589035,2.25521016120911,0.17869192361832,-78.97669219970703,0.62613785266876,0.11091592162848,9.98680686950684,1.33580791950226,1.84289288520813,0.84342551231384
430,1564597368,2.24660468101501,0.16502529382706,-78.97853088378906,0.70321393013000,0.11792974919081,10.01666355133057,1.52494335174561,2.08166885375977,0.81215053796768
431,1564605701,2.25263118743896,0.17283692955971,-78.97696685791016,0.45415416359901,0.09076399356127,9.93536758422852,1.47258806228638,2.07564973831177,0.75323784351349
432,1564614034,2.24347901344299,0.15753668546677,-78.97943115234375,0.23570702970028,0.15894614160061,9.98255062103271,1.46013963222504,1.90756893157959,0.77613699436188
433,1564622367,2.24776673316956,0.16477417945862,-78.97717285156250,0.26252111792564,0.16468004882336,10.02669048309326,1.26654720306396,2.01747941970825,0.84147888422012
434,1564630700,2.23668503761292,0.15056838095188,-78.97834014892578,-0.17394819855690,0.16099983453751,9.98997783660889,1.22402751445770,2.03482055664062,0.94992959499359
435,1564639033,2.24055457115173,0.15381380915642,-78.97572326660156,0.31869471073151,0.13933819532394,10.00750064849854,1.22049248218536,1.54789364337921,0.90653902292252
436,1564647366,2.23072838783264,0.13932736217976,-78.97878265380859,0.62088024616241,0.09272812306881,9.95170879364014,1.37299978733063,1.96358740329742,0.72390949726105
437,1564655699,2.23644328117371,0.14613911509514,-78.97755432128906,0.94495928287506,0.07555088400841,10.01859092712402,1.44725537300110,1.97485721111298,0.72480589151382
438,1564664032,2.22628521919250,0.13281305134296,-78.97966766357422,0.51634442806244,0.08704814314842,10.05536651611328,1.33306729793549,2.15328621864319,0.86281555891037
439,1564672365,2.23082590103149,0.13920505344868,-78.97775268554688,0.20588444173336,0.12204482406378,10.01386928558350,1.31249904632568,1.93448948860168,0.81015264987946
440,1564680698,2.22168660163879,0.12531271576881,-78.98024749755859,0.24721424281597,0.10757987201214,9.98202037811279,1.45560586452484,2.08248853683472,0.82111561298370
441,1564689031,2.22645306587219,0.12995897233486,-78.97747802734375,0.47181695699692,0.11650261282921,10.02504444122314,1.34280061721802,1.73638892173767,0.92280393838882
442,1564697364,2.21502947807312,0.11525322496891,-78.97886657714844,0.41803419589996,0.11593907326460,10.00589942932129,1.18483781814575,1.98866379261017,0.95259344577789
443,1564705697,2.21961355209351,0.12100885063410,-78.97545623779297,0.52422875165939,0.13006192445755,10.01127243041992,1.32553672790527,1.87987983226776,0.99603509902954
444,1564714030,2.21020603179932,0.10615358501673,-78.97814941406250,0.45603492856026,0.15573526918888,9.94156455993652,1.42479181289673,1.97380733489990,0.79762732982635
445,1564722363,2.21538734436035,0.11231325566769,-78.97621154785156,0.39756882190704,0.13824079930782,10.01978969573975,1.40227687358856,1.92775309085846,0.82124364376068
446,1564730696,2.20526790618896,0.09821016341448,-78.97922515869141,0.32700166106224,0.19709257781506,10.03561496734619,1.33585917949677,2.06845188140869,0.76304799318314
447,1564739029,2.20951843261719,0.10466533899307,-78.97769927978516,0.31355398893356,0.13082280755043,10.00545024871826,1.29472291469574,1.96637928485870,0.77147519588470
448,1564747362,2.19863343238831,0.09004753828049,-78.97959899902344,0.34089466929436,0.12017271667719,10.01053714752197,1.23952412605286,2.00672173500061,0.90428501367569
449,1564755695,2.20390391349792,0.09563294053078,-78.97733306884766,0.38516655564308,0.14136798679829,10.01116085052490,1.42269158363342,1.87329721450806,0.86460858583450
450,1564764028,2.19471406936646,0.07900813221931,-78.98016357421875,0.38012406229973,0.10522698611021,10.01450347900391,1.44026291370392,1.75974905490875,0.80008625984192
451,1564772361,2.19962453842163,0.08642242103815,-78.97866821289062,0.32318106293678,0.08234840631485,10.05253124237061,1.38293814659119,2.09524440765381,0.76161372661591
452,1564780694,2.19038438796997,0.07311889529228,-78.98103332519531,0.26122573018074,0.10454487055540,9.98931884765625,1.43854677677155,2.15541243553162,0.81683796644211
453,1564789027,2.19452953338623,0.08013725280762,-78.97856903076172,0.26456537842751,0.07879563421011,10.01324081420898,1.29649031162262,2.05879545211792,0.88591963052750
454,1564797360,2.18448233604431,0.06773126125336,-78.98030090332031,0.27641823887825,0.15504802763462,10.05456542968750,1.34159696102142,2.25441122055054,0.90805029869080
455,1564805693,2.18893003463745,0.07221102714539,-78.97743225097656,0.33098244667053,0.01502047944814,9.98471546173096,1.33537256717682,1.76277172565460,0.94626671075821
456,1564814026,2.17970132827759,0.05545420572162,-78.97882080078125,0.38284015655518,0.21626442670822,9.94332504272461,1.44359278678894,1.72757756710052,0.96163523197174
457,1564822359,2.18403482437134,0.06052049994469,-78.97695159912109,0.40583923459053,0.12336946278811,9.99284172058105,1.32725274562836,1.83328747749329,0.82575172185898
458,1564830692,2.17581796646118,0.04533197730780,-78.97986602783203,0.41643807291985,0.18643340468407,10.02777385711670,1.55806267261505,1.91023278236389,0.77672600746155
459,1564839025,2.17970538139343,0.05174338445067,-78.97852325439453,0.41654911637306,0.13319611549377,9.94449138641357,1.27876508235931,1.99949860572815,0.75905233621597
460,1564847358,2.16986513137817,0.03705602139235,-78.98137664794922,0.51749825477600,0.11416733264923,9.98991680145264,1.35898876190186,1.96901738643646,0.75259745121002
461,1564855691,2.17264890670776,0.04091625288129,-78.97888183593750,1.12563407421112,0.13041752576828,10.01918792724609,1.15030968189240,1.70562624931335,0.90869051218033
462,1564864024,2.16201615333557,0.02685118094087,-78.98046112060547,0.63592314720154,0.10799723863602,9.94804573059082,1.26383197307587,2.09030079841614,0.89864981174469
463,1564872357,2.16602969169617,0.03390389308333,-78.97943115234375,0.53229504823685,0.10570648312569,10.01878356933594,1.30030655860901,2.08776521682739,0.72191154956818
464,1564880690,2.15659427642822,0.01770876161754,-78.98168945312500,0.76491981744766,0.07888171076775,9.96392059326172,1.40778398513794,1.84691429138184,0.80933296680450
465,1564889023,2.16229438781738,0.02685406245291,-78.98057556152344,0.78217649459839,0.09384111315012,9.91906738281250,1.50837123394012,2.34523940086365,0.72239834070206
466,1564897356,2.15344285964966,0.01163362711668,-78.98279571533203,0.70911240577698,0.13061825931072,10.11452960968018,1.48022103309631,1.99747478961945,0.79911285638809
467,1564905689,2.15690445899963,0.02034574747086,-78.98044586181641,-0.14151619374752,0.13103988766670,9.95332717895508,1.24377596378326,2.30546069145203,0.87249767780304
468,1564914022,2.14690756797791,0.00207370938733,-78.98318481445312,-0.01302132941782,0.18965300917625,9.99699115753174,1.34044408798218,1.61513125896454,0.73502612113953
469,1564922355,2.15134787559509,0.00764522375539,-78.98106384277344,0.80500590801239,0.12778164446354,10.05197238922119,1.36390674114227,1.93477106094360,0.86327666044235
470,1564930688,2.14080810546875,-0.01041668001562,-78.98299407958984,1.16859352588654,0.05669517815113,9.90628147125244,1.26882660388947,1.64428007602692,0.85723155736923
471,1564939021,2.14534592628479,0.00153914059047,-78.98095703125000,0.69078516960144,0.08793149143457,10.00130748748779,1.38211858272552,2.70586228370667,0.82362568378448
472,1564947354,2.13611507415771,-0.01707654073834,-78.98357391357422,-0.04279951006174,0.18774029612541,10.01941299438477,1.42451000213623,1.62450599670410,0.80966597795486
473,1564955687,2.14129924774170,-0.01533260103315,-78.98229980468750,1.21132600307465,0.09651742875576,10.01663494110107,1.46375095844269,1.48539495468140,0.77938991785049
474,1564964020,2.12861967086792,-0.02730111964047,-78.98390197753906,0.90425401926041,-0.00350533216260,9.92243480682373,1.01037919521332,2.43678474426270,0.85495203733444
475,1564972353,2.13380002975464,-0.02719567902386,-78.98207092285156,0.21387584507465,0.17239911854267,10.01274490356445,1.46628677845001,1.29633641242981,0.85449081659317
476,1564980686,2.13503313064575,-0.02587190642953,-78.97992706298828,1.90878546237946,-0.03637727349997,9.88951969146729,0.98064088821411,1.42550909519196,0.88732826709747
477,1564989019,0.64047491550446,-2.04612803459167,-79.37192535400391,0.64848136901855,0.33292335271835,9.95880794525146,2.27236628532410,3.04115200042725,0.97257232666016
478,1564997352,0.63248443603516,-2.04978251457214,-79.37385559082031,1.74871850013733,-0.12254858016968,10.01070976257324,0.38485386967659,1.57735013961792,0.73684471845627
479,1565005685,0.63904410600662,-2.04157471656799,-79.37368011474609,0.73406487703323,0.28587436676025,10.03976631164551,2.14053034782410,2.95339798927307,0.84598690271378
480,1565014018,0.63226616382599,-2.03200101852417,-79.37637329101562,0.21873283386230,0.02559033967555,9.99056434631348,0.52657747268677,3.17429542541504,0.62281018495560
481,1565022351,0.64323329925537,-2.03982639312744,-79.37550354003906,0.79531466960907,0.33471813797951,9.98591327667236,2.67274284362793,1.03048622608185,0.95218354463577
482,1565030684,0.62977212667465,-2.04936385154724,-79.37725830078125,1.25950837135315,-0.23298239707947,9.71517753601074,-0.27272754907608,0.88389599323273,0.76322734355927
483,1565039017,0.64433437585831,-2.04479312896729,-79.37590789794922,0.47113475203514,0.11559368669987,10.08678627014160,3.10552096366882,2.51887822151184,0.99047678709030
484,1565047350,0.62951660156250,-2.04515552520752,-79.37757873535156,0.35730668902397,0.27482134103775,9.99633598327637,-0.43230423331261,1.99125051498413,0.75618344545364
485,1565055683,0.63298773765564,-2.04571199417114,-79.37754058837891,1.01896893978119,-0.03134978562593,10.42043590545654,1.76958513259888,1.90083253383636,0.84124839305878
486,1565064016,0.64155930280685,-2.04694080352783,-79.38013458251953,0.74002063274384,0.13191121816635,9.57663536071777,2.37036657333374,1.89033043384552,0.65034538507462
487,1565072349,0.62885075807571,-2.03994512557983,-79.38053894042969,0.63973611593246,0.00161842105445,10.26057529449463,-0.17406153678894,2.80619335174561,0.77383160591125
488,1565080682,0.63538116216660,-2.04061794281006,-79.38105773925781,0.24633176624775,-0.12009805440903,9.48292636871338,2.13430619239807,1.96371543407440,0.90054529905319
489,1565089015,0.63052892684937,-2.04574608802795,-79.37970733642578,1.20214486122131,0.30126678943634,10.18028640747070,0.77575272321701,1.35386586189270,1.00169587135315
490,1565097348,0.63714754581451,-2.03825092315674,-79.38060760498047,0.42065501213074,0.32587516307831,10.34947395324707,2.14501285552979,2.94809579849243,0.84050548076630
491,1565105681,0.63531959056854,-2.05489969253540,-79.37911987304688,1.41273653507233,-0.44585815072060,9.49969768524170,1.13847601413727,-0.02795793861151,1.03717160224915
492,1565114014,0.63389182090759,-2.05784296989441,-79.38241577148438,0.45602661371231,0.69944971799850,10.30231475830078,1.17123663425446,1.69612348079681,0.56202757358551
493,1565122347,0.63038808107376,-2.06031584739685,-79.38333892822266,0.84872514009476,-0.36775225400925,9.89721107482910,0.92833667993546,1.67025303840637,0.72539508342743
494,1565130680,0.63723611831665,-2.05283999443054,-79.38283538818359,0.48486509919167,0.58578956127167,10.17433261871338,2.17818331718445,2.95526790618896,1.00699794292450
495,1565139013,0.62912333011627,-2.04994416236877,-79.38387298583984,0.74755102396011,-0.17027784883976,9.89241886138916,0.37468504905701,2.31486082077026,0.70505744218826
496,1565147346,0.62952220439911,-2.04331827163696,-79.38119506835938,0.61267775297165,0.10134883224964,10.08786392211914,1.40952563285828,2.85696029663086,1.14787626266479
497,1565155679,0.62800472974777,-2.05030417442322,-79.37902832031250,1.89461672306061,0.10462423413992,9.80775547027588,1.17968916893005,1.13138067722321,1.10102784633636
498,1565164012,0.62437826395035,-2.04754328727722,-79.38249206542969,0.00744094420224,-0.14486673474312,9.90585899353027,0.90046834945679,2.39674973487854,0.41431027650833
499,1565172345,0.62492614984512,-2.03109121322632,-79.38113403320312,-0.43577209115028,0.35700511932373,10.14453697204590,1.42381846904755,3.94297814369202,0.97513395547867
500,1565180678,0.62767684459686,-2.03621196746826,-79.38304901123047,-0.53030192852020,0.28283518552780,9.81388950347900,1.67230212688446,1.44290101528168,0.60979807376862
501,1565189011,0.63200926780701,-2.05634260177612,-79.38494110107422,0.65105837583542,-0.03991194814444,9.85170459747314,1.86310255527496,-0.45005488395691,0.63523298501968
502,1565197344,0.63353860378265,-2.05429887771606,-79.38657379150391,-1.28987109661102,0.02976161241531,10.16709041595459,1.52709496021271,2.29823732376099,0.63548910617828
503,1565205677,0.62680667638779,-2.04146003723145,-79.38391113281250,-1.62222301959991,0.75887960195541,10.85027503967285,0.55616182088852,3.51212096214294,1.13816845417023
504,1565214010,0.64416348934174,-2.04260396957397,-79.38223266601562,-0.47972548007965,-0.13603453338146,9.36650085449219,3.43661046028137,1.89752817153931,1.03747904300690
505,1565222343,0.62484240531921,-2.02981281280518,-79.38227844238281,-1.04271423816681,0.21120066940784,10.03213119506836,-0.96613049507141,3.50169634819031,0.81071615219116
506,1565230676,0.62382781505585,-2.03318262100220,-79.38532257080078,-1.11916339397430,0.00850626826286,10.05380535125732,1.21319258213043,1.60834336280823,0.47627106308937
507,1565239009,0.63529181480408,-2.03887915611267,-79.38561248779297,-1.30773425102234,0.32604601979256,10.19971656799316,2.72668647766113,1.28519427776337,0.80643856525421
508,1565247342,0.62974560260773,-2.04500055313110,-79.38504791259766,-1.01928138732910,-0.01341140270233,9.95422363281250,0.68305486440659,1.26306343078613,0.91214859485626
509,1565255675,0.63477379083633,-2.05239152908325,-79.38497161865234,-0.59168887138367,0.35103294253349,10.04865550994873,1.95644092559814,1.08063900470734,0.85067433118820
510,1565264008,0.63361328840256,-2.05131888389587,-79.38422393798828,-0.46756678819656,0.02658255025744,10.04024887084961,1.21070802211761,2.11197042465210,0.92457133531570
511,1565272341,0.62511855363846,-2.05894303321838,-79.38042449951172,2.71566534042358,0.13102929294109,10.31049537658691,0.34976235032082,1.05784225463867,1.30117750167847
512,1565280674,0.62014353275299,-2.05378293991089,-79.37890625000000,3.49581980705261,-0.16064833104610,9.62821197509766,0.75597852468491,2.61278009414673,1.00717723369598
513,1565289007,0.61776685714722,-2.06104087829590,-79.37892150878906,3.34243941307068,-0.26134854555130,9.64842033386230,1.06662797927856,1.09631490707397,0.84373283386230
514,1565297340,0.61712807416916,-2.05043625831604,-79.37696075439453,3.14972066879272,0.17963083088398,10.23095703125000,1.28309381008148,3.30359578132629,1.05400013923645
515,1565305673,0.62409907579422,-2.04290127754211,-79.38189697265625,-1.36078631877899,0.10242069512606,9.76327705383301,2.16722083091736,2.86528563499451,0.23329447209835
516,1565314006,0.63228201866150,-2.04751920700073,-79.38386535644531,-2.81108975410461,0.31872558593750,10.09392642974854,2.32497859001160,1.47778761386871,0.60247236490250
517,1565322339,0.64429068565369,-2.04438376426697,-79.38173675537109,-2.47053313255310,0.82176160812378,10.60550117492676,2.80188989639282,2.34731411933899,1.08612036705017
518,1565330672,0.63070267438889,-2.02828311920166,-79.38315582275391,-1.53308343887329,-0.00971554685384,9.47902202606201,-0.29181015491486,3.92727684974670,0.64237940311432
519,1565339005,0.63986456394196,-2.02055883407593,-79.38318634033203,-1.51060760021210,0.49282971024513,10.03308868408203,2.45217847824097,2.89463853836060,0.82009088993073
520,1565347338,0.62332987785339,-2.03102731704712,-79.38328552246094,-0.59228432178497,-0.07069108635187,10.23882865905762,-0.64159816503525,0.71883785724640,0.83502399921417
521,1565355671,0.62792563438416,-2.03814840316772,-79.37955474853516,-0.26459878683090,0.20984317362309,9.85521602630615,1.92050409317017,1.11749792098999,1.29333961009979
522,1565364004,0.63170909881592,-2.03556323051453,-79.38504791259766,0.02500730194151,0.15638510882854,10.19156837463379,1.77516901493073,2.26988244056702,0.17363889515400
523,1565372337,0.62404698133469,-2.03729701042175,-79.38988494873047,-0.10096462816000,-0.34738573431969,9.87292861938477,0.41174885630608,1.75267982482910,0.25670588016510
524,1565380670,0.64228218793869,-2.03546786308289,-79.38723754882812,-0.97815632820129,0.59322565793991,10.24038887023926,3.54631662368774,2.18512487411499,1.14966940879822
525,1565389003,0.62973904609680,-2.04488992691040,-79.39089965820312,-1.11420559883118,-0.46238145232201,10.09032249450684,-0.16765797138214,0.83205282688141,0.40836772322655
526,1565397336,0.63124567270279,-2.03995275497437,-79.38781738281250,-0.78783428668976,0.29169735312462,10.42379379272461,1.53962039947510,2.54162359237671,1.19897651672363
527,1565405669,0.63603579998016,-2.04738497734070,-79.38430023193359,-0.43664437532425,0.13284234702587,9.65078544616699,1.94409465789795,1.08104884624481,1.26501011848450
528,1565414002,0.62730103731155,-2.04517126083374,-79.38317871093750,-1.42119026184082,-0.00984709057957,9.85918426513672,0.30137708783150,2.20205569267273,0.96693730354309
529,1565422335,0.62781953811646,-2.05153155326843,-79.38224792480469,-0.61828124523163,0.44978231191635,10.22438144683838,1.42000186443329,1.20509839057922,0.95505231618881
530,1565430668,0.63843387365341,-2.04462814331055,-79.38211822509766,-1.76241493225098,0.39703759551048,9.83554649353027,2.61846613883972,2.74848413467407,0.84094089269638
531,1565439001,0.63720571994781,-2.03180456161499,-79.38351440429688,0.30771708488464,0.22989413142204,9.99200534820557,1.19969391822815,3.50423216819763,0.65075522661209
532,1565447334,0.64368373155594,-2.03466486930847,-79.38448333740234,-1.05365252494812,0.61907154321671,9.96178150177002,2.11645293235779,1.56426131725311,0.72344839572906
533,1565455667,0.63736963272095,-2.05046820640564,-79.38644409179688,-0.19276146590710,0.28109961748123,9.97629261016846,0.58679658174515,0.06813386827707,0.62001824378967
534,1565464000,0.62867271900177,-2.04131627082825,-79.38746643066406,-1.07653605937958,0.29493269324303,10.32473850250244,0.29010683298111,2.99622511863708,0.70065188407898
535,1565472333,0.62378764152527,-2.04273724555969,-79.38764953613281,0.00356421992183,-0.50796246528625,9.54210853576660,0.76614737510681,1.79573726654053,0.81437903642654
536,1565480666,0.62722277641296,-2.04290819168091,-79.38704681396484,-0.32346314191818,0.31947532296181,10.36150836944580,1.75626575946808,1.86901962757111,0.90886992216110
537,1565488999,0.63117963075638,-2.03448772430420,-79.38867950439453,-0.08623881638050,-0.07557115703821,10.14106273651123,1.82091605663300,2.97724533081055,0.62767684459686
538,1565497332,0.64575368165970,-2.04838705062866,-79.38195037841797,1.48683631420135,-0.03276679664850,9.81617450714111,3.11968588829041,0.22394528985023,1.66336297988892
539,1565505665,0.63002908229828,-2.05401468276978,-79.39014434814453,0.99815762042999,-0.42637389898300,10.16048336029053,-0.56964778900146,1.28127515316010,-0.14276091754436
540,1565513998,0.63913661241531,-2.04845261573792,-79.38510131835938,1.44699406623840,0.22172383964062,10.33658218383789,2.45981192588806,2.56782698631287,1.43403851985931
541,1565522331,0.63334137201309,-2.04844808578491,-79.38243865966797,0.98667788505554,0.02461503073573,9.73695468902588,0.66814738512039,1.97244977951050,1.15256381034851
542,1565530664,0.63006836175919,-2.05846738815308,-79.38243103027344,1.61117768287659,-0.03057864680886,9.81043148040771,0.95307999849319,0.70129209756851,0.85105842351913
543,1565538997,0.62965238094330,-2.06904387474060,-79.38290405273438,1.53904139995575,0.58478069305420,9.95353126525879,1.30038356781006,0.69816720485687,0.79119807481766
544,1565547330,0.64028638601303,-2.06277418136597,-79.38149261474609,1.79575693607330,0.33762216567993,9.94627094268799,2.62635564804077,2.67230749130249,0.99839162826538
545,1565555663,0.63481801748276,-2.07287597656250,-79.38208007812500,2.85008597373962,-0.02554280310869,9.69718742370605,0.69373595714569,0.75549185276031,0.77670043706894
546,1565563996,0.63021105527878,-2.06971216201782,-79.38219451904297,3.02095293998718,0.02409293875098,10.01021480560303,0.79406690597534,2.32006072998047,0.91576009988785
547,1565572329,0.62943452596664,-2.06330752372742,-79.38146209716797,2.44182300567627,0.01535061560571,9.94348907470703,1.26278185844421,2.73782896995544,0.91540151834488
548,1565580662,0.62824708223343,-2.05463862419128,-79.38180541992188,0.94592911005020,0.09753222018480,9.80071830749512,1.20330560207367,3.00519013404846,0.88469010591507
549,1565588995,0.62769079208374,-2.05368018150330,-79.38420104980469,0.59874182939529,0.01493388600647,9.98628520965576,1.27669012546539,2.07974791526794,0.54699194431305
550,1565597328,0.63271087408066,-2.05887246131897,-79.38606262207031,0.44172826409340,0.03449230268598,10.00498199462891,1.93858790397644,1.34472191333771,0.61830204725266
551,1565605661,0.63591462373734,-2.05753731727600,-79.38587951660156,0.35867708921432,-0.10411231219769,10.02914047241211,1.73846364021301,2.12726211547852,0.85297960042953
552,1565613994,0.63696026802063,-2.04862356185913,-79.38307189941406,0.07855504006147,0.14326383173466,9.99847316741943,1.48437070846558,3.04414963722229,1.15988945960999
553,1565622327,0.63963049650192,-2.04473304748535,-79.38182067871094,-0.22839391231537,0.44009420275688,10.28037357330322,1.67780935764313,2.43622136116028,0.97969329357147
554,1565630660,0.63764572143555,-2.03842496871948,-79.38010406494141,-0.51937067508698,0.10005060583353,9.99461078643799,1.11460340023041,2.72358727455139,1.03404653072357
555,1565638993,0.62896138429642,-2.03699946403503,-79.38539123535156,-3.69350123405457,0.18615610897541,10.57847976684570,0.28836506605148,2.13207745552063,0.19920189678669
556,1565647326,0.63997083902359,-2.02352166175842,-79.38105773925781,-3.28706836700439,0.49203997850418,10.01527690887451,2.68421816825867,3.56401634216309,1.33703756332397
557,1565655659,0.64017099142075,-2.05706524848938,-79.38339233398438,-0.30463957786560,-0.39253610372543,9.43473815917969,1.36657071113586,-2.06185603141785,0.59857910871506
558,1565663992,0.62981802225113,-2.07441544532776,-79.38573455810547,0.72368890047073,0.49761614203453,10.66805744171143,0.09280036389828,-0.16573689877987,0.57698619365692
559,1565672325,0.63546806573868,-2.06073904037476,-79.38238525390625,1.15203690528870,-0.22617642581463,9.93331432342529,2.04496383666992,3.61391258239746,1.21923768520355
560,1565680658,0.63491016626358,-2.05793476104736,-79.37824249267578,1.11013162136078,0.03106251545250,9.55460453033447,1.29631090164185,2.26611709594727,1.32902026176453
561,1565688991,0.63224953413010,-2.06575512886047,-79.37741851806641,1.31887805461884,-0.03543664142489,9.90290069580078,1.03658223152161,1.03061425685883,0.94319278001785
562,1565697324,0.63249927759171,-2.07219362258911,-79.37910461425781,1.80935573577881,0.25651329755783,10.02409934997559,1.37269234657288,1.16086268424988,0.73582005500793
563,1565705657,0.63822585344315,-2.06243014335632,-79.38008880615234,1.64483428001404,0.36804345250130,10.17245483398438,2.03656196594238,3.13725662231445,0.70264959335327
564,1565713990,0.63841897249222,-2.05315494537354,-79.38137817382812,1.40579259395599,-0.18790535628796,9.54597854614258,1.36470091342926,3.06003046035767,0.76425200700760
565,1565722323,0.63997298479080,-2.05283951759338,-79.38230895996094,-0.15643559396267,0.38463351130486,10.00421333312988,1.53477942943573,2.00508260726929,0.72027230262756
566,1565730656,0.64506220817566,-2.05305957794189,-79.38289642333984,-0.43978127837181,0.46384879946709,10.29510021209717,1.95738863945007,1.92421817779541,0.85999786853790
567,1565738989,0.64478617906570,-2.04506659507751,-79.38381195068359,-1.50206124782562,0.34023332595825,9.87334537506104,1.31503486633301,2.92558121681213,0.71304905414581
568,1565747322,0.63742601871490,-2.06897711753845,-79.38533020019531,0.65835464000702,-0.10970983654261,10.07199859619141,0.45216801762581,-0.93324184417725,0.68323403596878
569,1565755655,0.63196551799774,-2.04742908477783,-79.38610839843750,-0.35251757502556,0.02487977221608,9.92419052124023,0.69394087791443,4.55280208587646,0.71504706144333
570,1565763988,0.63955527544022,-2.04405570030212,-79.38615417480469,1.02173113822937,0.26649296283722,10.29169940948486,2.25530767440796,2.34196066856384,0.82208883762360
571,1565772321,0.63109838962555,-2.05502009391785,-79.38820648193359,-0.10093389451504,-0.65286165475845,9.59759902954102,0.32868185639381,0.64919281005859,0.60365062952042
572,1565780654,0.63896119594574,-2.05851173400879,-79.38587951660156,1.47894191741943,0.55517059564590,10.57964515686035,2.29951810836792,1.52151119709015,1.11959826946259
573,1565788987,0.64149785041809,-2.06206774711609,-79.38437652587891,1.57586669921875,-0.52313995361328,9.57342624664307,1.66400313377380,1.54295015335083,1.01957452297211
574,1565797320,0.63193958997726,-2.06095862388611,-79.38417053222656,1.24603211879730,0.07795076072216,10.21968841552734,0.20491386950016,2.08297514915466,0.95016002655029
575,1565805653,0.63765591382980,-2.06247353553772,-79.38291168212891,1.44649231433868,0.21234773099422,10.11559200286865,2.04314517974854,1.78815531730652,0.98463690280914
576,1565813986,0.63855952024460,-2.06324410438538,-79.38349151611328,1.12205421924591,0.09134597331285,9.74365806579590,1.45660471916199,1.86730325222015,0.85543864965439
577,1565822319,0.63552445173264,-2.06310606002808,-79.38449096679688,0.61397838592529,0.14924177527428,9.82228660583496,0.98438066244125,1.98313093185425,0.71548241376877
578,1565830652,0.63778519630432,-2.06617760658264,-79.38471984863281,0.78500294685364,0.45443877577782,10.09066486358643,1.62104809284210,1.59566438198090,0.90464365482330
579,1565838985,0.63903629779816,-2.06510186195374,-79.38481903076172,0.60345292091370,0.26867079734802,9.89717960357666,1.50222373008728,2.09634590148926,0.82147413492203
580,1565847318,0.63867175579071,-2.06295084953308,-79.38626861572266,0.57019317150116,0.27954342961311,9.95667266845703,1.29976868629456,2.22495484352112,0.75421118736267
581,1565855651,0.63837987184525,-2.06000208854675,-79.38687896728516,0.48900431394577,0.13604673743248,9.87191867828369,1.31439459323883,2.32039380073547,0.75823265314102
582,1565863984,0.63960248231888,-2.08729743957520,-79.38679504394531,3.55177307128906,0.33051955699921,10.03063201904297,1.49569201469421,-1.30423843860626,0.97610723972321
583,1565872317,0.62639182806015,-2.06568646430969,-79.38805389404297,4.59730863571167,-0.95019096136093,9.88787841796875,-0.23955714702606,4.55941104888916,0.65600621700287
584,1565880650,0.62592732906342,-2.05017423629761,-79.38947296142578,0.92043328285217,0.38787531852722,10.01625347137451,1.29021453857422,3.86359977722168,0.73963665962219
585,1565888983,0.63475871086121,-2.05968046188354,-79.39038085937500,1.31861960887909,-0.12434438616037,10.13746929168701,2.40899324417114,0.82593101263046,0.73827904462814
586,1565897316,0.62673372030258,-2.05550551414490,-79.39280700683594,0.62429606914520,-0.41808947920799,9.70895195007324,0.37499240040779,2.50632739067078,0.54081892967224
587,1565905649,0.64770561456680,-2.05512142181396,-79.39256286621094,-0.59101653099060,0.59724330902100,10.40240573883057,3.87054181098938,2.01440596580505,0.86309736967087
588,1565913982,0.63573580980301,-2.04930424690247,-79.39295196533203,-1.03677606582642,-0.06905864179134,10.11146259307861,-0.09002123028040,2.70371055603027,0.77933871746063
589,1565922315,0.63621515035629,-2.04725456237793,-79.39112091064453,-1.49467086791992,0.13845941424370,9.79020977020264,1.41785037517548,2.21709108352661,1.05182290077209
590,1565930648,0.63845789432526,-2.04339885711670,-79.39112091064453,-1.60530233383179,0.67247742414474,10.31726551055908,1.62181639671326,2.45481705665588,0.92674857378006
591,1565938981,0.63204306364059,-2.04228973388672,-79.39076995849609,-1.54936110973358,-0.02760927565396,9.88274097442627,0.58441436290741,2.09998297691345,0.87521278858185
592,1565947314,0.63537549972534,-2.04614377021790,-79.39153289794922,-1.63014841079712,0.48409250378609,9.98883438110352,1.74683952331543,1.51195704936981,0.84288763999939
593,1565955647,0.63840430974960,-2.04968333244324,-79.39257049560547,-0.17097453773022,0.23690749704838,10.11729240417480,1.71118474006653,1.54202830791473,0.71435546875000
594,1565963980,0.64076769351959,-2.04916143417358,-79.39351654052734,-0.59178018569946,0.13118094205856,9.91756725311279,1.62811744213104,2.02398538589478,0.80912798643112
595,1565972313,0.64193278551102,-2.06184148788452,-79.39425659179688,0.17563277482986,0.09921568632126,10.01882743835449,1.48923718929291,0.44456064701080,0.76176732778549
596,1565980646,0.64109456539154,-2.06265449523926,-79.39378356933594,0.45105129480362,0.21064049005508,10.13618564605713,1.24728524684906,1.86138665676117,0.89296352863312
597,1565988979,0.62898856401443,-2.06431174278259,-79.39434051513672,1.36676931381226,-0.41211473941803,9.70495223999023,-0.10290518403053,1.76799678802490,0.77042490243912
598,1565997312,0.63133305311203,-2.06245493888855,-79.39354705810547,1.09079742431641,0.20890353620052,10.27096843719482,1.63213908672333,2.18597006797791,0.92869538068771
599,1566005645,0.64289069175720,-2.05835938453674,-79.39221191406250,0.12412434071302,0.27292889356613,10.16113471984863,2.74553847312927,2.46068286895752,0.98740321397781
600,1566013978,0.64032852649689,-2.06069540977478,-79.39344024658203,0.39107212424278,-0.24615938961506,9.63504409790039,1.03389286994934,1.68254780769348,0.69219911098480
601,1566022311,0.64148664474487,-2.05877280235291,-79.39459991455078,0.19207791984081,0.29765456914902,10.10359001159668,1.48654758930206,2.19721460342407,0.69263452291489
602,1566030644,0.64126229286194,-2.05908489227295,-79.39402770996094,0.22054965794086,0.31666955351830,10.16119384765625,1.32133591175079,1.92565250396729,0.90397757291794
603,1566038977,0.64102095365524,-2.06203365325928,-79.39263153076172,0.41080701351166,0.11316647380590,9.87600517272949,1.33081316947937,1.61633491516113,1.00579416751862
604,1566047310,0.63576108217239,-2.06212139129639,-79.39359283447266,0.37857809662819,0.18027272820473,10.04242134094238,0.71366387605667,1.95229160785675,0.80969160795212
605,1566055643,0.63557457923889,-2.06339526176453,-79.39289855957031,0.41130906343460,0.07891351729631,9.94556617736816,1.33252942562103,1.81732976436615,0.91980731487274
606,1566063976,0.64224076271057,-2.04032349586487,-79.39413452148438,-2.11167263984680,0.25387713313103,9.85725116729736,2.14396262168884,4.73112869262695,0.73833030462265
607,1566072309,0.63543242216110,-2.05555868148804,-79.40127563476562,-5.28754615783691,0.54919528961182,11.06370258331299,0.50621414184570,0.12976171076298,0.00038421351928
608,1566080642,0.66247069835663,-2.05569005012512,-79.40015411376953,-1.28990757465363,0.58212274312973,9.70878410339355,4.59537267684937,1.91650819778442,1.05763733386993
609,1566088975,0.64119523763657,-2.05224466323853,-79.40105438232422,-1.83969354629517,-0.60042548179626,9.42137908935547,-1.20457339286804,2.37984418869019,0.72127115726471
610,1566097308,0.63173192739487,-2.03624153137207,-79.40161132812500,-1.38838946819305,0.19987097382545,10.44020271301270,0.20639948546886,3.83219671249390,0.74814057350159
611,1566105641,0.65325623750687,-2.05235767364502,-79.39633178710938,-1.25420904159546,0.48858940601349,10.04637622833252,3.95967936515808,0.04193050414324,1.48828971385956
612,1566113974,0.63746315240860,-2.04915142059326,-79.40084075927734,-0.08967639505863,0.41665720939636,10.01760196685791,-0.57282388210297,2.27792501449585,0.29077279567719
613,1566122307,0.64572983980179,-2.06871843338013,-79.40145874023438,1.30519497394562,-0.17416054010391,10.15090084075928,2.34306216239929,-0.38117825984955,0.78548616170883
614,1566130640,0.64269262552261,-2.06916403770447,-79.40300750732422,0.25066363811493,-0.52468806505203,9.98284339904785,0.97116369009018,1.84655559062958,0.65336787700653
615,1566138973,0.64427226781845,-2.06052136421204,-79.40160369873047,0.55606234073639,0.76437538862228,10.30803871154785,1.54894411563873,3.00711131095886,0.99029773473740
616,1566147306,0.64527374505997,-2.06538081169128,-79.40055084228516,0.35132318735123,-0.23904365301132,9.65040969848633,1.47023153305054,1.32284724712372,1.05492234230042
617,1566155639,0.64475339651108,-2.07814598083496,-79.39912414550781,0.72787308692932,-0.00209616357461,9.98995685577393,1.29649019241333,0.43795216083527,1.02106022834778
618,1566163972,0.63421374559402,-2.07491898536682,-79.39817047119141,0.94551062583923,0.34499749541283,10.17815589904785,0.08698594570160,2.29390859603882,1.02697718143463
619,1566172305,0.63547152280807,-2.06768274307251,-79.39728546142578,1.47625756263733,-0.12847572565079,9.75365924835205,1.50878095626831,2.83841609954834,0.93092381954193
620,1566180638,0.64042097330093,-2.06839203834534,-79.39715576171875,1.68953990936279,0.08573372662067,9.99129199981689,1.94102132320404,1.82877957820892,0.93107753992081
621,1566188971,0.64699935913086,-2.09890413284302,-79.40009307861328,3.65748023986816,0.28410089015961,9.82765674591064,2.12969565391541,-1.69844138622284,0.52345246076584
622,1566197304,0.64365720748901,-2.07991075515747,-79.40113067626953,3.15710973739624,0.10553680360317,9.89110946655273,0.94316738843918,4.21177434921265,0.77316576242447
623,1566205637,0.64544981718063,-2.07074165344238,-79.40245056152344,1.53672623634338,-0.06641267985106,9.58449554443359,1.56167435646057,3.06602406501770,0.66205114126205
624,1566213970,0.64286297559738,-2.05630230903625,-79.40487670898438,-4.52304553985596,0.32534551620483,10.54115200042725,1.02751505374908,3.68017649650574,0.60395807027817
625,1566222303,0.65358698368073,-2.05839467048645,-79.39910888671875,0.66569119691849,0.93982207775116,10.64619731903076,2.66344523429871,1.72483706474304,1.52998960018158
626,1566230636,0.64103835821152,-2.07204413414001,-79.41134643554688,-0.30903890728951,-1.23274219036102,8.97179698944092,-0.21412219107151,0.27568602561951,-0.52674394845963
627,1566238969,0.63756036758423,-2.05769586563110,-79.41178131103516,1.15649080276489,0.49350687861443,10.37423706054688,0.93471461534500,3.69042205810547,0.76110130548477
628,1566247302,0.64943957328796,-2.05925583839417,-79.40760040283203,-0.30314710736275,0.49964991211891,10.12657260894775,2.79097843170166,1.74981105327606,1.42363917827606
629,1566255635,0.64114242792130,-2.06580805778503,-79.40825653076172,0.59229832887650,-0.54716390371323,9.45881175994873,0.35511574149132,1.18127727508545,0.76553261280060
630,1566263968,0.64227616786957,-2.08854150772095,-79.40685272216797,0.82396018505096,0.35468810796738,10.53245162963867,1.49161934852600,-0.79589825868607,1.11972630023956
631,1566272301,0.64875888824463,-2.07101273536682,-79.40544891357422,0.23650787770748,-0.21958036720753,9.80681991577148,2.13697004318237,4.07420063018799,0.97910422086716
632,1566280634,0.64258801937103,-2.07823991775513,-79.40773773193359,0.34606900811195,0.23901250958443,10.46957302093506,0.59834855794907,1.06291389465332,0.65469992160797
633,1566288967,0.65312349796295,-2.06529235839844,-79.40558624267578,-1.14209961891174,0.45414945483208,10.04438400268555,2.62714982032776,3.52344322204590,1.07502949237823
634,1566297300,0.64681214094162,-2.07466411590576,-79.40404510498047,0.03708748891950,-0.16972266137600,9.39538097381592,0.59471136331558,0.80487608909607,1.03542983531952
635,1566305633,0.64369004964828,-2.06868886947632,-79.40333557128906,-0.65935873985291,0.37089911103249,9.90893840789795,0.98089712858200,2.68534493446350,0.91097021102905
636,1566313966,0.64276885986328,-2.08052945137024,-79.40322875976562,0.85425686836243,0.54564744234085,10.45031833648682,1.23422181606293,0.50022035837173,0.86258488893509
637,1566322299,0.64590519666672,-2.08197903633118,-79.40305328369141,1.20236980915070,0.14514949917793,9.95242786407471,1.73070263862610,1.79455876350403,0.85613024234772
638,1566330632,0.64605307579041,-2.08189678192139,-79.40338134765625,2.14546227455139,0.09947488456964,9.74586391448975,1.36021852493286,1.93571913242340,0.79821640253067
639,1566338965,0.63617259263992,-2.08250188827515,-79.40583038330078,2.24109315872192,-0.33444312214851,9.68276214599609,0.15570893883705,1.89202094078064,0.54138249158859
640,1566347298,0.64852046966553,-2.07301735877991,-79.40726470947266,-0.17034500837326,0.50757896900177,10.23328208923340,2.82174110412598,3.07944607734680,0.64950019121170
641,1566355631,0.64445793628693,-2.07434201240540,-79.40853118896484,-1.07612895965576,-0.22018459439278,9.96531677246094,0.85889661312103,1.80623900890350,0.68425875902176
642,1566363964,0.63932842016220,-2.07021617889404,-79.40694427490234,-0.18568101525307,-0.13505837321281,9.89877033233643,0.73671662807465,2.43166208267212,1.01939535140991
643,1566372297,0.65647804737091,-2.08713006973267,-79.40974426269531,-0.33862087130547,0.72897249460220,10.44850921630859,3.39931678771973,-0.06494489312172,0.52296584844589
644,1566380630,0.64118635654449,-2.07688283920288,-79.41196441650391,-0.07256380468607,-0.43187013268471,9.86208343505859,-0.50084793567657,3.15557122230530,0.55372858047485
645,1566388963,0.64513170719147,-2.07907199859619,-79.40681457519531,0.23826774954796,0.12727430462837,10.20781803131104,1.84837448596954,1.71300339698792,1.45588755607605
646,1566397296,0.65146374702454,-2.07990241050720,-79.40504455566406,0.63223868608475,0.34746029973030,9.94272041320801,2.11384057998657,1.83008587360382,1.04885160923004
647,1566405629,0.63779109716415,-2.09028482437134,-79.40637207031250,1.36530625820160,-0.12458138912916,9.88717460632324,-0.29378247261047,0.71968322992325,0.69068789482117
648,1566413962,0.64245688915253,-2.08413338661194,-79.40461730957031,0.95978748798370,0.12125390022993,10.11229228973389,1.91374218463898,2.67435693740845,1.03878545761108
649,1566422295,0.64701813459396,-2.08336400985718,-79.40406799316406,1.25332391262054,0.33509331941605,10.08770275115967,1.90267658233643,2.06151056289673,0.89893168210983
650,1566430628,0.64637351036072,-2.07899355888367,-79.40261840820312,0.93006402254105,0.10458944737911,9.93141651153564,1.27320683002472,2.46644616127014,1.00366818904877
651,1566438961,0.64252531528473,-2.08074879646301,-79.40292358398438,0.43522673845291,-0.01524796988815,9.89121627807617,0.89078623056412,1.75529229640961,0.80239146947861
652,1566447294,0.64751386642456,-2.08270001411438,-79.40315246582031,0.14970378577709,0.41483590006828,10.09511280059814,1.94317281246185,1.70757293701172,0.81204807758331
653,1566455627,0.64530670642853,-2.08486247062683,-79.40364837646484,0.65515750646591,-0.03056111373007,9.64262008666992,1.08612036705017,1.70808517932892,0.77752006053925
654,1566463960,0.64426952600479,-2.08363986015320,-79.40514373779297,1.00029397010803,0.14033088088036,10.04842376708984,1.21388423442841,2.08617711067200,0.65108829736710
655,1566472293,0.64709728956223,-2.07773423194885,-79.40505218505859,0.61087894439697,0.26511549949646,10.06515121459961,1.69210195541382,2.67709732055664,0.83789283037186
656,1566480626,0.65025997161865,-2.07404065132141,-79.40436553955078,0.55337023735046,0.04039949551225,9.87835788726807,1.72793638706207,2.39011549949646,0.91447943449020
657,1566488959,0.65097129344940,-2.08778762817383,-79.40231323242188,0.80563092231750,0.26920169591904,10.20635509490967,1.44769084453583,0.32099756598473,1.09897875785828
658,1566497292,0.64981210231781,-2.07221150398254,-79.40328979492188,-0.40638941526413,0.30846735835075,10.01459598541260,1.19992434978485,3.81736588478088,0.69652783870697
659,1566505625,0.65188980102539,-2.07640528678894,-79.40557861328125,-0.23451334238052,0.43341875076294,10.36107254028320,1.59184777736664,1.46124088764191,0.56612581014633
660,1566513958,0.64243394136429,-2.06786680221558,-79.40715026855469,-0.63590824604034,-0.73722213506699,9.57261753082275,0.20201948285103,2.96520638465881,0.63730782270432
661,1566522291,0.64577555656433,-2.07849025726318,-79.40576171875000,0.70959234237671,0.32086992263794,10.37888431549072,1.75944197177887,0.69604122638702,1.01422119140625
662,1566530624,0.64779424667358,-2.07779145240784,-79.40355682373047,0.64609694480896,-0.08708862960339,9.95476531982422,1.59702193737030,2.02777671813965,1.09777486324310
663,1566538957,0.64225691556931,-2.08443880081177,-79.40392303466797,0.62998676300049,-0.16696847975254,9.78121852874756,0.68748605251312,1.16952025890350,0.79970198869705
664,1566547290,0.64663702249527,-2.08030509948730,-79.40256500244141,0.81693243980408,0.00515627302229,9.96460914611816,1.87839448451996,2.44221496582031,0.99178326129913
665,1566555623,0.64693295955658,-2.08376789093018,-79.40247344970703,1.56607019901276,0.20049853622913,9.96669578552246,1.38854765892029,1.55255568027496,0.84993153810501
666,1566563956,0.64879447221756,-2.09162521362305,-79.40142059326172,1.72207653522491,0.14388564229012,9.97128105163574,1.57435333728790,1.00812506675720,0.97321271896362
667,1566572289,0.64676856994629,-2.09413242340088,-79.40130615234375,1.80960488319397,0.34220933914185,10.04148197174072,1.11078679561615,1.66633391380310,0.85034132003784
668,1566580622,0.64962500333786,-2.09186649322510,-79.40164184570312,1.63665878772736,0.30938526988029,9.88676452636719,1.68779861927032,2.23202419281006,0.79237633943558
669,1566588955,0.64644515514374,-2.08450365066528,-79.40165710449219,1.21886992454529,0.06875898689032,9.78850173950195,0.97019040584564,2.85142779350281,0.82242178916931
670,1566597288,0.65003371238708,-2.08621072769165,-79.40348052978516,0.43515583872795,0.38013663887978,10.04770469665527,1.76979005336761,1.75954437255859,0.61722630262375
671,1566605621,0.64850693941116,-2.08619213104248,-79.40445709228516,0.69363331794739,0.13331586122513,9.92801189422607,1.16403889656067,1.96947848796844,0.71809500455856
672,1566613954,0.64537090063095,-2.08952307701111,-79.40502166748047,2.05486559867859,-0.18950031697750,9.92074966430664,0.96724468469620,1.56812906265259,0.77206426858902
673,1566622287,0.64596664905548,-2.08882403373718,-79.40712738037109,1.05398917198181,-0.02751347422600,9.99150848388672,1.41518652439117,2.04924130439758,0.58185291290283
674,1566630620,0.64402049779892,-2.09134459495544,-79.40498352050781,2.39774727821350,-0.25484290719032,10.03962993621826,1.12208271026611,1.67773222923279,1.09534144401550
675,1566638953,0.64427995681763,-2.07271528244019,-79.40274810791016,0.87431305646896,0.04641300067306,9.97926902770996,1.39297902584076,4.20642089843750,1.07779574394226
676,1566647286,0.64760017395020,-2.07940173149109,-79.40306854248047,0.81908917427063,-0.02231857739389,10.09856319427490,1.74443185329437,1.18340313434601,0.80623364448547
677,1566655619,0.64620828628540,-2.08153724670410,-79.40353393554688,-0.38222670555115,-0.00820273719728,10.02260875701904,1.18383884429932,1.71039068698883,0.78046584129333
678,1566663952,0.65037131309509,-2.08348202705383,-79.40209197998047,0.00918057281524,0.22190885245800,10.07280540466309,1.85531592369080,1.75444710254669,1.01176226139069
679,1566672285,0.64896970987320,-2.07865858078003,-79.40092468261719,-0.41467469930649,0.37047687172890,10.11561775207520,1.19044709205627,2.54723310470581,0.96581029891968
680,1566680618,0.64570009708405,-2.08618855476379,-79.39898681640625,0.88996332883835,0.00890718959272,9.78789901733398,0.96358186006546,1.08030593395233,1.07574653625488
681,1566688951,0.64218652248383,-2.07900404930115,-79.39896392822266,-0.06735676527023,0.42274048924446,10.08404922485352,0.92984795570374,2.82986068725586,0.83013176918030
682,1566697284,0.64167213439941,-2.08161354064941,-79.39663696289062,1.28943657875061,-0.08232470601797,9.85597038269043,1.29631090164185,1.67079091072083,1.11660134792328
683,1566705617,0.64604973793030,-2.07571411132812,-79.39713287353516,-0.43294692039490,0.52064925432205,9.99655246734619,1.87667810916901,2.67556047439575,0.76691579818726
684,1566713950,0.64201521873474,-2.08382916450500,-79.40042877197266,0.14026010036469,-0.06894624978304,9.98526859283447,0.84821546077728,1.00330960750580,0.45183515548706
685,1566722283,0.64912539720535,-2.08593440055847,-79.40260314941406,-0.48752605915070,0.40510424971581,10.05471515655518,2.19578003883362,1.71238839626312,0.57647395133972
686,1566730616,0.64659136533737,-2.08549475669861,-79.40374755859375,-0.39840748906136,0.03674253821373,10.03446292877197,1.03694105148315,2.02862167358398,0.69803905487061
687,1566738949,0.64418947696686,-2.07814359664917,-79.40205383300781,0.36246904730797,0.07433559745550,10.15570449829102,1.07190465927124,2.85278511047363,1.02700269222260
688,1566747282,0.64081686735153,-2.07287788391113,-79.40399932861328,-0.38830503821373,0.10942703485489,9.83874988555908,0.93420243263245,2.60440421104431,0.59571021795273
689,1566755615,0.64010953903198,-2.07248926162720,-79.40291595458984,-0.33802375197411,0.04737946018577,10.16395092010498,1.27115774154663,2.01558446884155,0.96371001005173
690,1566763948,0.64306128025055,-2.07651829719543,-79.40168762207031,1.26634061336517,0.08604633808136,10.13629817962646,1.70772683620453,1.48816156387329,0.98717272281647
691,1566772281,0.64190357923508,-2.07906126976013,-79.40186309814453,1.28555750846863,-0.15615263581276,9.91110229492188,1.21155321598053,1.66269671916962,0.81660741567612
692,1566780614,0.64321911334991,-2.07574653625488,-79.40230560302734,-0.17702466249466,0.15158282220364,10.11097431182861,1.50499010086060,2.37321019172668,0.77728956937790
693,1566788947,0.64209014177322,-2.08019018173218,-79.39999389648438,0.36050286889076,0.24988001585007,10.08983230590820,1.22638392448425,1.43665111064911,1.11801016330719
694,1566797280,0.63774359226227,-2.07917499542236,-79.39900970458984,1.65940141677856,-0.18614770472050,9.80406570434570,0.83138692378998,2.09811329841614,0.95187628269196
695,1566805613,0.64090126752853,-2.07235741615295,-79.39826965332031,-0.02794697135687,0.34264975786209,10.14817047119141,1.73382771015167,2.78626561164856,0.91399276256561
696,1566813946,0.63665759563446,-2.08746623992920,-79.39532470703125,1.95075953006744,0.12600456178188,9.89892005920410,0.85103285312653,0.16959182918072,1.20773684978485
697,1566822279,0.63752323389053,-2.08298897743225,-79.39609527587891,1.17836058139801,-0.21134975552559,9.67108535766602,1.45378708839417,2.50333023071289,0.73830473423004
698,1566830612,0.64485263824463,-2.07229471206665,-79.39799499511719,0.26556465029716,0.62189805507660,10.10674953460693,2.22006249427795,3.26573801040649,0.59248286485672
