sep=,
DeviceTag:,Xsens DOT
FirmwareVersion:,3.0.0
AppVersion:,2023.6.0
StartTime: ,2025-03-06_12:43:39_000 PST
© Movella Technologies B. V. 2005-2025

PacketCounter,SampleTimeFine,Euler_X,Euler_Y,Euler_Z,Acc_X,Acc_Y,Acc_Z,Gyr_X,Gyr_Y,Gyr_Z
0,2042652963,-0.66603851318359,-0.45543900132179,11.04310989379883,0.00000000000000,0.00000000000000,0.00000000000000,0.00000000000000,0.00000000000000,0.00000000000000
1,2042661296,-0.66654717922211,-0.45463111996651,11.04289245605469,0.08370261639357,-0.10908830165863,9.78823661804199,0.14852413535118,-0.97854059934616,-0.87067902088165
2,2042669629,-0.66651225090027,-0.45489674806595,11.04302787780762,0.09021159261465,-0.11479567736387,9.76146411895752,0.21522359549999,-1.10919892787933,-0.80774492025375
3,2042677962,-0.66608554124832,-0.45451974868774,11.04273319244385,0.07548394799232,-0.12361542880535,9.79593276977539,0.26255872845650,-1.03002524375916,-0.88151389360428
4,2042686295,-0.66675585508347,-0.45416334271431,11.04273509979248,0.07348834723234,-0.11263611167669,9.79417324066162,0.13046610355377,-1.03258657455444,-0.83000355958939
5,2042694628,-0.66749948263168,-0.45417371392250,11.04232597351074,0.07865265756845,-0.11136261373758,9.75904560089111,0.12196218222380,-1.07720661163330,-0.89503818750381
6,2042702961,-0.66773843765259,-0.45425587892532,11.04255294799805,0.07546959072351,-0.08924572169781,9.79761409759521,0.18277035653591,-1.08553123474121,-0.81647932529449
7,2042711294,-0.66817206144333,-0.45494171977043,11.04210567474365,0.07566276937723,-0.10809376090765,9.80909442901611,0.15812948346138,-1.15871119499207,-0.90054529905319
8,2042719627,-0.66857838630676,-0.45512780547142,11.04183197021484,0.06536982953548,-0.11969567090273,9.77863025665283,0.16143371164799,-1.09726250171661,-0.85892212390900
9,2042727960,-0.66876512765884,-0.45530959963799,11.04178142547607,0.08775822818279,-0.11315082013607,9.79244899749756,0.18968620896339,-1.09821033477783,-0.85208314657211
10,2042736293,-0.66845899820328,-0.45506727695465,11.04180145263672,0.06383912265301,-0.11766427010298,9.79517459869385,0.24698524177074,-1.04605960845947,-0.83179658651352
11,2042744626,-0.66807103157043,-0.45527181029320,11.04245948791504,0.08194296807051,-0.12045387178659,9.76795101165771,0.25897270441055,-1.10225749015808,-0.76709508895874
12,2042752959,-0.66734337806702,-0.45512425899506,11.04240703582764,0.09685654938221,-0.13470919430256,9.77346611022949,0.29726600646973,-1.05730438232422,-0.86442917585373
13,2042761292,-0.66739737987518,-0.45567208528519,11.04137325286865,0.07539819180965,-0.11563324183226,9.77699947357178,0.20428633689880,-1.13929557800293,-0.97044652700424
14,2042769625,-0.66776603460312,-0.45505031943321,11.04108428955078,0.07315206527710,-0.10032548010349,9.78544712066650,0.16655656695366,-1.00118362903595,-0.87667274475098
15,2042777958,-0.66807591915131,-0.45520558953285,11.04104709625244,0.09725005179644,-0.13159085810184,9.78317928314209,0.17475311458111,-1.09421443939209,-0.85059744119644
16,2042786291,-0.66831642389297,-0.45543259382248,11.04046821594238,0.05995513126254,-0.09511135518551,9.79460239410400,0.18123351037502,-1.10223174095154,-0.90817826986313
17,2042794624,-0.66899019479752,-0.45454227924347,11.04017734527588,0.07484734803438,-0.11857982724905,9.79485321044922,0.12969768047333,-0.96878153085709,-0.87938785552979
18,2042802957,-0.66955423355103,-0.45471164584160,11.04013252258301,0.07275156676769,-0.11378027498722,9.80093288421631,0.14291460812092,-1.09659671783447,-0.84217041730881
19,2042811290,-0.66932076215744,-0.45507213473320,11.04004001617432,0.06577038764954,-0.12535357475281,9.82144737243652,0.23904486000538,-1.11916279792786,-0.85738533735275
20,2042819623,-0.66952925920486,-0.45462301373482,11.04060840606689,0.09378807991743,-0.11174171417952,9.81996631622314,0.18610021471977,-1.02269947528839,-0.78920006752014
21,2042827956,-0.66984993219376,-0.45469486713409,11.03990936279297,0.07136391103268,-0.11449556052685,9.81513118743896,0.17329309880733,-1.08361017704010,-0.92892581224442
22,2042836289,-0.67033886909485,-0.45559117197990,11.03982543945312,0.07743662595749,-0.11070421338081,9.78914546966553,0.15277609229088,-1.18271160125732,-0.85295397043228
23,2042844622,-0.66989976167679,-0.45569485425949,11.04013824462891,0.06044867634773,-0.10878758877516,9.81955146789551,0.26304537057877,-1.08855378627777,-0.80923050642014
24,2042852955,-0.67048031091690,-0.45544490218163,11.04095268249512,0.08647071570158,-0.10443866252899,9.76392364501953,0.14322198927402,-1.04726350307465,-0.75866800546646
25,2042861288,-0.67062819004059,-0.45563334226608,11.04064846038818,0.08896712958813,-0.11183502525091,9.77905178070068,0.19224762916565,-1.09862017631531,-0.88235914707184
26,2042869621,-0.67101031541824,-0.45515277981758,11.04101467132568,0.07855252176523,-0.12407321482897,9.78106880187988,0.16578815877438,-1.01801216602325,-0.81084430217743
27,2042877954,-0.67135685682297,-0.45525062084198,11.04052352905273,0.07983282208443,-0.12067528814077,9.78133487701416,0.16911798715591,-1.08612036705017,-0.90523260831833
28,2042886287,-0.67152172327042,-0.45576006174088,11.04101467132568,0.08235777914524,-0.10885881632566,9.79570484161377,0.19204270839691,-1.13832211494446,-0.78832924365997
29,2042894620,-0.67106157541275,-0.45523932576180,11.04091262817383,0.07366704940796,-0.10704200714827,9.80843639373779,0.26614466309547,-1.01319670677185,-0.85764139890671
30,2042902953,-0.67069405317307,-0.45553717017174,11.04074859619141,0.10030432045460,-0.11468153446913,9.80692005157471,0.25510495901108,-1.11114537715912,-0.86030530929565
31,2042911286,-0.67119187116623,-0.45538899302483,11.04058456420898,0.08929609507322,-0.11797899007797,9.75454616546631,0.15013782680035,-1.05715060234070,-0.86591482162476
32,2042919619,-0.67110520601273,-0.45478141307831,11.04084968566895,0.09417426586151,-0.10285045951605,9.76888847351074,0.22221630811691,-1.00377058982849,-0.81694042682648
33,2042927952,-0.67159080505371,-0.45571225881577,11.04101943969727,0.07082034647465,-0.11654876172543,9.80490970611572,0.15344206988811,-1.18801379203796,-0.82690435647964
34,2042936285,-0.67282819747925,-0.45606353878975,11.04085063934326,0.09544038027525,-0.11162726581097,9.80237770080566,0.06220416724682,-1.11811256408691,-0.87308675050735
35,2042944618,-0.67267578840256,-0.45723676681519,11.04082012176514,0.08338069170713,-0.10604089498520,9.77880859375000,0.22941391170025,-1.21688115596771,-0.85167336463928
36,2042952951,-0.67236000299454,-0.45702123641968,11.04029464721680,0.09836597740650,-0.10991091281176,9.79948043823242,0.24854773283005,-1.04851865768433,-0.91450500488281
37,2042961284,-0.67261594533920,-0.45697844028473,11.04022693634033,0.08057671785355,-0.12323602288961,9.77288722991943,0.17895385622978,-1.07116162776947,-0.85385060310364
38,2042969617,-0.67250770330429,-0.45714622735977,11.03962135314941,0.07363858819008,-0.11245017498732,9.80575370788574,0.22467525303364,-1.09490609169006,-0.88576585054398
39,2042977950,-0.67185413837433,-0.45679298043251,11.04034042358398,0.08255095779896,-0.12573982775211,9.78335094451904,0.28950491547585,-1.03443098068237,-0.75928276777267
40,2042986283,-0.67198109626770,-0.45674413442612,11.03992557525635,0.08217192441225,-0.10255779325962,9.80196952819824,0.19614100456238,-1.06913816928864,-0.88804548978806
41,2042994616,-0.67217022180557,-0.45629298686981,11.04006385803223,0.07937509566545,-0.10643430054188,9.78556156158447,0.18822619318962,-1.02195668220520,-0.82872289419174
42,2043002949,-0.67199689149857,-0.45592874288559,11.03990459442139,0.07126377522945,-0.12482426315546,9.76113414764404,0.23212899267673,-1.03169012069702,-0.87654483318329
43,2043011282,-0.67190432548523,-0.45613354444504,11.03987979888916,0.08852358162403,-0.10018987208605,9.78595447540283,0.22216506302357,-1.10148894786835,-0.84923988580704
44,2043019615,-0.67136782407761,-0.45546433329582,11.04016208648682,0.05974054336548,-0.11234255135059,9.78733539581299,0.27613425254822,-0.99539476633072,-0.80969148874283
45,2043027948,-0.67155325412750,-0.45505788922310,11.04041862487793,0.07292317599058,-0.10536825656891,9.78029060363770,0.18876409530640,-1.02723324298859,-0.81476318836212
46,2043036281,-0.67085039615631,-0.45430523157120,11.03944683074951,0.06993334740400,-0.12308612465858,9.77644157409668,0.29424351453781,-0.98412442207336,-0.92938685417175
47,2043044614,-0.67133909463882,-0.45542705059052,11.03894805908203,0.07268003374338,-0.09503982216120,9.80259895324707,0.15251997113228,-1.21088731288910,-0.90735864639282
48,2043052947,-0.67165654897690,-0.45535665750504,11.03867530822754,0.07371010631323,-0.11584776639938,9.77458858489990,0.17234538495541,-1.06575703620911,-0.88120645284653
49,2043061280,-0.67107743024826,-0.45546662807465,11.03946876525879,0.06383904814720,-0.09672761708498,9.81983852386475,0.28192305564880,-1.09060275554657,-0.75093245506287
50,2043069613,-0.67050170898438,-0.45449450612068,11.03946399688721,0.08439639210701,-0.11903761327267,9.81260585784912,0.27946409583092,-0.95876634120941,-0.83489596843719
51,2043077946,-0.67020028829575,-0.45414936542511,11.03985595703125,0.07210773974657,-0.12104728817940,9.80661964416504,0.24811227619648,-1.03632628917694,-0.79839569330215
52,2043086279,-0.67038398981094,-0.45345872640610,11.03903293609619,0.08358812332153,-0.10897356271744,9.78807926177979,0.18855917453766,-0.99022066593170,-0.94337218999863
53,2043094612,-0.67007708549500,-0.45362153649330,11.03902435302734,0.06750138103962,-0.12220632284880,9.79759216308594,0.24775366485119,-1.09708321094513,-0.84678095579147
54,2043102945,-0.66972273588181,-0.45337882637978,11.03888702392578,0.05294526740909,-0.11941640824080,9.79534721374512,0.25279971957207,-1.04565000534058,-0.86868125200272
55,2043111278,-0.67028844356537,-0.45383560657501,11.03931236267090,0.08824462443590,-0.11990310996771,9.80374336242676,0.14368306100368,-1.13191866874695,-0.79537326097488
56,2043119611,-0.67081755399704,-0.45425903797150,11.03901576995850,0.07269429415464,-0.12508858740330,9.76774406433105,0.14824236929417,-1.12572014331818,-0.89309149980545
57,2043127944,-0.67089372873306,-0.45520180463791,11.03895568847656,0.09027603268623,-0.10368761420250,9.79223442077637,0.20108455419540,-1.18934583663940,-0.85479831695557
58,2043136277,-0.67052286863327,-0.45540228486061,11.03920078277588,0.09101992845535,-0.11685599386692,9.78752803802490,0.25628325343132,-1.09961903095245,-0.82628959417343
59,2043144610,-0.67000836133957,-0.45620921254158,11.03929042816162,0.07122808694839,-0.10589101910591,9.81078243255615,0.27270194888115,-1.17331123352051,-0.83648407459259
60,2043152943,-0.66946572065353,-0.45660504698753,11.03853034973145,0.08456081151962,-0.10425233095884,9.77909564971924,0.27464863657951,-1.12128865718842,-0.95372033119202
61,2043161276,-0.66933506727219,-0.45612025260925,11.03843212127686,0.07162134349346,-0.11252108216286,9.78335189819336,0.22726230323315,-1.01880621910095,-0.85725718736649
62,2043169609,-0.66937023401260,-0.45578172802925,11.03800392150879,0.09587670862675,-0.11023246496916,9.78882980346680,0.20687337219715,-1.03307342529297,-0.89434659481049
63,2043177942,-0.66922706365585,-0.45496061444283,11.03828811645508,0.07192898541689,-0.10574763268232,9.79701328277588,0.22813320159912,-0.97841256856918,-0.81022948026657
64,2043186275,-0.67017704248428,-0.45449140667915,11.03899955749512,0.07862404733896,-0.10854439437389,9.77489662170410,0.09652724117041,-1.02031743526459,-0.75472348928452
65,2043194608,-0.67024636268616,-0.45561119914055,11.04007911682129,0.07161426544189,-0.10981044173241,9.81067466735840,0.20490105450153,-1.21250092983246,-0.71842795610428
66,2043202941,-0.67051190137863,-0.45625633001328,11.04013919830322,0.08250804245472,-0.12099033594131,9.81463050842285,0.17905630171299,-1.15258944034576,-0.83609986305237
67,2043211274,-0.67045861482620,-0.45593285560608,11.04040241241455,0.08083427697420,-0.11083330214024,9.78330135345459,0.21732395887375,-1.03686428070068,-0.81396907567978
68,2043219607,-0.67001783847809,-0.45650839805603,11.03994178771973,0.10310823470354,-0.11818642169237,9.78827953338623,0.26327592134476,-1.14367556571960,-0.89547365903854
69,2043227940,-0.67044883966446,-0.45577958226204,11.03909873962402,0.08598437905312,-0.12717786431313,9.81045341491699,0.15920528769493,-0.98776167631149,-0.94572871923447
70,2043236273,-0.67048305273056,-0.45591193437576,11.03830528259277,0.08079128712416,-0.10871572047472,9.77868080139160,0.20531089603901,-1.09080779552460,-0.93970948457718
71,2043244606,-0.67080593109131,-0.45566567778587,11.03835391998291,0.06660727411509,-0.09406703710556,9.78638362884521,0.17349803447723,-1.04693067073822,-0.83971154689789
72,2043252939,-0.67037481069565,-0.45595872402191,11.03849983215332,0.09137041866779,-0.12236368656158,9.78868007659912,0.26199519634247,-1.11101734638214,-0.81619757413864
73,2043261272,-0.67049044370651,-0.45562702417374,11.03890800476074,0.09343758970499,-0.11413076519966,9.79676246643066,0.19842065870762,-1.03612136840820,-0.79703807830811
74,2043269605,-0.67077189683914,-0.45554912090302,11.03795146942139,0.08986825495958,-0.12051790952682,9.78405952453613,0.17611066997051,-1.06560337543488,-0.96322327852249
75,2043277938,-0.67073720693588,-0.45551988482475,11.03733921051025,0.07051994651556,-0.11319407820702,9.79870796203613,0.21437834203243,-1.07200694084167,-0.91985851526260
76,2043286271,-0.67040848731995,-0.45572179555893,11.03777217864990,0.06654290109873,-0.11384464800358,9.80616855621338,0.25221055746078,-1.09933733940125,-0.79427170753479
77,2043294604,-0.67037588357925,-0.45519760251045,11.03714370727539,0.08580550551414,-0.10247877985239,9.77666282653809,0.21396853029728,-1.01255631446838,-0.92085742950439
78,2043302937,-0.67077571153641,-0.45537176728249,11.03696537017822,0.08380980044603,-0.12681956589222,9.77675628662109,0.16263757646084,-1.09567451477051,-0.90925401449203
79,2043311270,-0.67087113857269,-0.45607402920723,11.03706741333008,0.08505445718765,-0.12213478982449,9.78695583343506,0.19834384322166,-1.16065788269043,-0.83458864688873
80,2043319603,-0.67035454511642,-0.45605808496475,11.03709793090820,0.08227200061083,-0.11061156541109,9.78914451599121,0.27347040176392,-1.07321083545685,-0.84631997346878
81,2043327936,-0.66967684030533,-0.45629873871803,11.03719520568848,0.08188583701849,-0.13307896256447,9.78160572052002,0.29350069165230,-1.10576641559601,-0.83446055650711
82,2043336269,-0.66904199123383,-0.45619577169418,11.03744506835938,0.08277985453606,-0.11969567090273,9.80385780334473,0.28655925393105,-1.06288838386536,-0.81983488798141
83,2043344602,-0.66887241601944,-0.45635488629341,11.03735828399658,0.07564846426249,-0.11319374293089,9.80093955993652,0.23192408680916,-1.09570014476776,-0.85602772235870
84,2043352935,-0.66888338327408,-0.45529016852379,11.03702735900879,0.07619923353195,-0.10374483466148,9.76771450042725,0.20992144942284,-0.94775223731995,-0.88307636976242
85,2043361268,-0.66950589418411,-0.45575425028801,11.03676223754883,0.06644275784492,-0.11790031194687,9.80517387390137,0.13581947982311,-1.13132965564728,-0.87800472974777
86,2043369601,-0.66945731639862,-0.45515760779381,11.03642559051514,0.09592677652836,-0.11506778746843,9.76908111572266,0.21571028232574,-1.00369369983673,-0.88835299015045
87,2043377934,-0.66990339756012,-0.45483756065369,11.03703117370605,0.10061188787222,-0.13279253244400,9.78390884399414,0.15871858596802,-1.03855466842651,-0.77311432361603
88,2043386267,-0.67004829645157,-0.45475876331329,11.03711414337158,0.06692200154066,-0.10532560944557,9.80055332183838,0.19270870089531,-1.06591081619263,-0.86957776546478
89,2043394600,-0.66974622011185,-0.45531475543976,11.03723812103271,0.07719340920448,-0.11685568094254,9.77048397064209,0.24826598167419,-1.14308643341064,-0.83200156688690
90,2043402933,-0.66965430974960,-0.45457354187965,11.03777027130127,0.07532659173012,-0.11307929456234,9.81583881378174,0.22270298004150,-0.98829954862595,-0.78989177942276
91,2043411266,-0.66946631669998,-0.45402291417122,11.03708362579346,0.08753649145365,-0.12426634132862,9.82181930541992,0.23299990594387,-1.00845801830292,-0.92756843566895
92,2043419599,-0.66930985450745,-0.45410245656967,11.03654861450195,0.08094163984060,-0.10847318917513,9.80893707275391,0.22905525565147,-1.08404564857483,-0.88789176940918
93,2043427932,-0.66871547698975,-0.45333379507065,11.03694438934326,0.08916734158993,-0.13685534894466,9.76348781585693,0.28258904814720,-0.98435503244400,-0.79714059829712
94,2043436265,-0.66924899816513,-0.45312762260437,11.03619384765625,0.08053390681744,-0.11413825303316,9.81950187683105,0.14598833024502,-1.05095219612122,-0.93673825263977
95,2043444598,-0.66885519027710,-0.45368197560310,11.03691291809082,0.07238677144051,-0.09149201214314,9.79827213287354,0.25956183671951,-1.14236927032471,-0.76048660278320
96,2043452931,-0.66923236846924,-0.45343619585037,11.03750610351562,0.09089117497206,-0.10419546067715,9.78968811035156,0.16681268811226,-1.04690492153168,-0.79844689369202
97,2043461264,-0.66930121183395,-0.45385882258415,11.03751850128174,0.10073348879814,-0.11694183200598,9.78604030609131,0.20257015526295,-1.12712860107422,-0.84503906965256
98,2043469597,-0.66970735788345,-0.45305857062340,11.03802394866943,0.08793704956770,-0.12033227831125,9.79378032684326,0.16258634626865,-0.98089712858200,-0.78768897056580
99,2043477930,-0.66999012231827,-0.45338699221611,11.03845119476318,0.07966836541891,-0.12398737668991,9.80765628814697,0.17662295699120,-1.11624264717102,-0.79560369253159
100,2043486263,-0.66981476545334,-0.45317313075066,11.03879165649414,0.07177878171206,-0.11418083310127,9.80058956146240,0.23299987614155,-1.05036282539368,-0.81110036373138
101,2043494596,-0.67014330625534,-0.45264121890068,11.03819656372070,0.09920998662710,-0.13182005286217,9.76842975616455,0.17226850986481,-1.01089143753052,-0.91645175218582
102,2043502929,-0.67081415653229,-0.45281177759171,11.03789615631104,0.09254348278046,-0.10980328917503,9.76889514923096,0.12980012595654,-1.09570014476776,-0.89293777942657
103,2043511262,-0.67052590847015,-0.45439419150352,11.03812408447266,0.07371719926596,-0.10609812289476,9.77499675750732,0.24478243291378,-1.26654708385468,-0.82091051340103
104,2043519595,-0.67072117328644,-0.45375993847847,11.03777694702148,0.08152817189693,-0.11293653398752,9.77664852142334,0.18702232837677,-0.99944174289703,-0.88407528400421
105,2043527928,-0.67056059837341,-0.45409435033798,11.03762340545654,0.08461806178093,-0.11107617616653,9.80980968475342,0.23151426017284,-1.11593532562256,-0.86486458778381
106,2043536261,-0.67111343145370,-0.45415070652962,11.03777313232422,0.08177845180035,-0.11216372996569,9.78534698486328,0.14368304610252,-1.08212447166443,-0.82357442378998
107,2043544594,-0.67115759849548,-0.45410192012787,11.03770542144775,0.08537633717060,-0.08532626181841,9.78628349304199,0.20546457171440,-1.07103359699249,-0.85377353429794
108,2043552927,-0.67122107744217,-0.45359253883362,11.03732109069824,0.07278017699718,-0.11761419475079,9.80925178527832,0.20431195199490,-1.01309418678284,-0.89160597324371
109,2043561260,-0.67121273279190,-0.45328736305237,11.03769302368164,0.08167824894190,-0.11300034075975,9.78885173797607,0.21304641664028,-1.04037332534790,-0.80116206407547
110,2043569593,-0.67138463258743,-0.45395001769066,11.03794574737549,0.07934648543596,-0.11784308403730,9.79656982421875,0.18991674482822,-1.15568864345551,-0.81635123491287
111,2043577926,-0.67083877325058,-0.45408585667610,11.03773880004883,0.07473289966583,-0.11223525553942,9.79177665710449,0.27644160389900,-1.09193491935730,-0.87111461162567
112,2043586259,-0.67089265584946,-0.45406553149223,11.03744029998779,0.08196442574263,-0.11682738363743,9.79211997985840,0.20469616353512,-1.07321083545685,-0.88100159168243
113,2043594592,-0.67065495252609,-0.45424494147301,11.03726482391357,0.08016906678677,-0.13206294178963,9.79747104644775,0.23858381807804,-1.09746754169464,-0.86768227815628
114,2043602925,-0.67063361406326,-0.45354431867599,11.03720283508301,0.08708592504263,-0.12254279851913,9.79361534118652,0.21345619857311,-0.99165499210358,-0.85653996467590
115,2043611258,-0.67049521207809,-0.45372647047043,11.03739833831787,0.07020515203476,-0.10535422712564,9.79364395141602,0.22887597978115,-1.09731376171112,-0.82308781147003
116,2043619591,-0.67069649696350,-0.45330759882927,11.03686809539795,0.08622036874294,-0.11732808500528,9.78691291809082,0.18645881116390,-1.02551710605621,-0.90016096830368
117,2043627924,-0.67048913240433,-0.45337879657745,11.03620338439941,0.08991830796003,-0.11817893385887,9.76379585266113,0.23430620133877,-1.08253443241119,-0.92656928300858
118,2043636257,-0.67065215110779,-0.45335033535957,11.03636360168457,0.07860969007015,-0.12385118752718,9.76211452484131,0.19188904762268,-1.07346689701080,-0.81071615219116
119,2043644590,-0.67055428028107,-0.45258039236069,11.03647041320801,0.06714373826981,-0.12700587511063,9.78033256530762,0.22224189341068,-0.98391962051392,-0.83184790611267
120,2043652923,-0.67040830850601,-0.45290136337280,11.03584384918213,0.09712845087051,-0.12448807805777,9.78933811187744,0.22938828170300,-1.11265683174133,-0.91873133182526
121,2043661256,-0.67007625102997,-0.45393356680870,11.03578853607178,0.08993261307478,-0.11753517389297,9.76683616638184,0.25044316053391,-1.20061600208282,-0.85467010736465
122,2043669589,-0.66974252462387,-0.45439338684082,11.03612232208252,0.07956100255251,-0.10991743206978,9.79783630371094,0.25192883610725,-1.13091981410980,-0.81845170259476
123,2043677922,-0.66947364807129,-0.45452678203583,11.03650379180908,0.06466878205538,-0.10785027593374,9.80255031585693,0.24388593435287,-1.09247267246246,-0.80100828409195
124,2043686255,-0.66995573043823,-0.45450672507286,11.03651523590088,0.08373833447695,-0.12086158990860,9.79832172393799,0.15205891430378,-1.07336461544037,-0.83948099613190
125,2043694588,-0.66997396945953,-0.45391094684601,11.03688621520996,0.09362356364727,-0.13433039188385,9.76507568359375,0.20938356220722,-1.00617837905884,-0.80018872022629
126,2043702921,-0.67049604654312,-0.45373854041100,11.03668785095215,0.08283707499504,-0.12491009384394,9.78639793395996,0.14798623323441,-1.05410242080688,-0.87093520164490
127,2043711254,-0.67106044292450,-0.45383527874947,11.03682327270508,0.07461130619049,-0.10850147157907,9.80108261108398,0.14350374042988,-1.08722174167633,-0.82938891649246
128,2043719587,-0.67118543386459,-0.45405375957489,11.03746414184570,0.06976167857647,-0.09328737854958,9.78189182281494,0.19719117879868,-1.10215485095978,-0.76660841703415
129,2043727920,-0.67115318775177,-0.45403251051903,11.03713798522949,0.07944669574499,-0.12611210346222,9.76466083526611,0.21425023674965,-1.07395350933075,-0.88479238748550
130,2043736253,-0.67092716693878,-0.45405095815659,11.03752899169922,0.07056279480457,-0.13335044682026,9.80874347686768,0.23871186375618,-1.07718098163605,-0.79852372407913
131,2043744586,-0.67066884040833,-0.45351457595825,11.03812122344971,0.07662840932608,-0.11249276250601,9.79596900939941,0.24193926155567,-1.01327335834503,-0.77365225553513
132,2043752919,-0.66911172866821,-0.44979438185692,11.03862190246582,0.09138472378254,-0.11521083861589,9.80519580841064,0.25059688091278,-1.07126414775848,-0.80741196870804
133,2043761252,-0.66833961009979,-0.44987931847572,11.03847503662109,0.08831615000963,-0.12134797871113,9.77734947204590,0.30410501360893,-1.08637654781342,-0.86325091123581
134,2043769585,-0.66787761449814,-0.44936802983284,11.03839111328125,0.07566992193460,-0.10393080860376,9.77910900115967,0.26519697904587,-1.01419568061829,-0.87851697206497
135,2043777918,-0.66798698902130,-0.45003813505173,11.03818988800049,0.07232955098152,-0.13226321339607,9.77539730072021,0.19926592707634,-1.15658521652222,-0.87075591087341
136,2043786251,-0.66748237609863,-0.44977852702141,11.03818035125732,0.07921764999628,-0.12783531844616,9.76814460754395,0.27039662003517,-1.04411292076111,-0.85782068967819
137,2043794584,-0.66766792535782,-0.44940388202667,11.03770732879639,0.06456156075001,-0.12312904000282,9.80559635162354,0.18889218568802,-1.03069114685059,-0.90244066715240
138,2043802917,-0.66767162084579,-0.44992420077324,11.03734874725342,0.08991838991642,-0.11386610567570,9.79372978210449,0.20981901884079,-1.13842463493347,-0.88235914707184
139,2043811250,-0.66779059171677,-0.45039778947830,11.03753376007080,0.08139941096306,-0.10782942920923,9.78045368194580,0.19739611446857,-1.13348126411438,-0.82447099685669
140,2043819583,-0.66837447881699,-0.45037287473679,11.03763484954834,0.08067687600851,-0.11238516867161,9.79859447479248,0.14019951224327,-1.07262170314789,-0.83274435997009
141,2043827916,-0.66807562112808,-0.45005577802658,11.03775024414062,0.08154240995646,-0.12120492756367,9.81696224212646,0.24701085686684,-1.03916943073273,-0.83171975612640
142,2043836249,-0.66793400049210,-0.44995999336243,11.03860664367676,0.08106310665607,-0.11427355557680,9.78742885589600,0.22946511209011,-1.06468141078949,-0.73638361692429
143,2043844582,-0.66805946826935,-0.44918558001518,11.03877162933350,0.08137789368629,-0.11738530546427,9.77674198150635,0.19588486850262,-0.98350977897644,-0.82544440031052
144,2043852915,-0.66854256391525,-0.44883826375008,11.03895568847656,0.08590559661388,-0.11161983758211,9.76456069946289,0.15403120219707,-1.03450775146484,-0.80928170681000
145,2043861248,-0.66804575920105,-0.44894182682037,11.03940105438232,0.07008355855942,-0.12118346244097,9.80421543121338,0.27057597041130,-1.08993697166443,-0.79250442981720
146,2043869581,-0.66755938529968,-0.44963806867599,11.03925704956055,0.06506941467524,-0.11105503886938,9.80965232849121,0.26875731348991,-1.15904402732849,-0.86473655700684
147,2043877914,-0.66732466220856,-0.44962933659554,11.03893947601318,0.07298053801060,-0.10122020542622,9.80337142944336,0.23937782645226,-1.07520866394043,-0.88397282361984
148,2043886247,-0.66755819320679,-0.45049533247948,11.03927326202393,0.08507585525513,-0.11773548275232,9.78469657897949,0.18374371528625,-1.18032944202423,-0.79186403751373
149,2043894580,-0.66833651065826,-0.45071911811829,11.03952789306641,0.09296549856663,-0.12367980927229,9.78788566589355,0.11653195321560,-1.10287201404572,-0.81635123491287
150,2043902913,-0.66845834255219,-0.45142817497253,11.03865528106689,0.06695061177015,-0.10240725427866,9.81841468811035,0.19708873331547,-1.16042733192444,-0.94211715459824
151,2043911246,-0.66904395818710,-0.45138341188431,11.03886127471924,0.07471863925457,-0.11168478429317,9.77212810516357,0.14045564830303,-1.07108473777771,-0.82093626260757
152,2043919579,-0.66876649856567,-0.45103228092194,11.03897190093994,0.07180746644735,-0.10458201915026,9.80053901672363,0.24391154944897,-1.03297066688538,-0.86366075277328
153,2043927912,-0.66858476400375,-0.45124569535255,11.03882598876953,0.07371004670858,-0.11817211657763,9.77672767639160,0.23276938498020,-1.10284638404846,-0.86348146200180
154,2043936245,-0.66848832368851,-0.45064964890480,11.03865146636963,0.06912507116795,-0.12094742059708,9.79634761810303,0.22198575735092,-1.00387310981750,-0.86435234546661
155,2043944578,-0.66895729303360,-0.45066037774086,11.03808593750000,0.07078453153372,-0.12377994507551,9.79606914520264,0.15444104373455,-1.07618212699890,-0.91406959295273
156,2043952911,-0.66861969232559,-0.45090785622597,11.03724098205566,0.07454692572355,-0.11459569633007,9.77972412109375,0.25036633014679,-1.10381984710693,-0.92615944147110
157,2043961244,-0.66855841875076,-0.45135602355003,11.03719329833984,0.07423928380013,-0.11475273966789,9.78451061248779,0.21883520483971,-1.13074040412903,-0.85208320617676
158,2043969577,-0.66801357269287,-0.45104455947876,11.03738307952881,0.08821592479944,-0.09812956303358,9.81643390655518,0.27551952004433,-1.03804242610931,-0.83784157037735
159,2043977910,-0.66747957468033,-0.45097732543945,11.03677749633789,0.09081964939833,-0.10566179454327,9.81037425994873,0.27498161792755,-1.06862568855286,-0.91855204105377
160,2043986243,-0.66694808006287,-0.45080512762070,11.03656578063965,0.07137106359005,-0.10678479075432,9.77244281768799,0.27549389004707,-1.05512702465057,-0.87790226936340
161,2043994576,-0.66657739877701,-0.45137962698936,11.03646278381348,0.06072763726115,-0.10383781790733,9.80850791931152,0.25402918457985,-1.14510989189148,-0.85961365699768
162,2044002909,-0.66707748174667,-0.45093020796776,11.03647899627686,0.06549858301878,-0.09948173910379,9.81439399719238,0.15105994045734,-1.02113711833954,-0.85341507196426
163,2044011242,-0.66674149036407,-0.45079329609871,11.03620529174805,0.07973273843527,-0.11760704219341,9.76419544219971,0.25226178765297,-1.05991697311401,-0.87864500284195
164,2044019575,-0.66677296161652,-0.45073491334915,11.03591442108154,0.08954644203186,-0.11301492154598,9.79734897613525,0.20610491931438,-1.06929183006287,-0.88502299785614
165,2044027908,-0.66733413934708,-0.45067545771599,11.03526115417480,0.07450406253338,-0.10044770687819,9.78932380676270,0.14250478148460,-1.06772947311401,-0.92405909299850
166,2044036241,-0.66751641035080,-0.45092532038689,11.03523349761963,0.07595609873533,-0.09483271092176,9.80108261108398,0.18930199742317,-1.10648369789124,-0.84724199771881
167,2044044574,-0.66747677326202,-0.45105448365211,11.03539180755615,0.07780147343874,-0.11599765717983,9.79039669036865,0.21571028232574,-1.09147369861603,-0.82692998647690
168,2044052907,-0.66751575469971,-0.45014724135399,11.03479194641113,0.07036966830492,-0.10653444379568,9.78783607482910,0.20641231536865,-0.96570795774460,-0.92490452528000
169,2044061240,-0.66674530506134,-0.45043578743935,11.03424644470215,0.07037672400475,-0.11194881051779,9.76564788818359,0.30349025130272,-1.11063313484192,-0.91178995370865
170,2044069573,-0.66726702451706,-0.45125165581703,11.03364467620850,0.07441107183695,-0.12659852206707,9.78314399719238,0.14757642149925,-1.17323446273804,-0.89070945978165
171,2044077906,-0.66691470146179,-0.45184999704361,11.03374958038330,0.06456147879362,-0.12528172135353,9.78569030761719,0.25259476900101,-1.14779937267303,-0.83433234691620
172,2044086239,-0.66709065437317,-0.45225638151169,11.03360366821289,0.07247969508171,-0.11692719906569,9.79743576049805,0.18989111483097,-1.12518215179443,-0.87349665164948
173,2044094572,-0.66667234897614,-0.45162892341614,11.03309154510498,0.06987611949444,-0.10375913977623,9.76640605926514,0.26094499230385,-0.99916011095047,-0.90738433599472
174,2044102905,-0.66629213094711,-0.45179444551468,11.03236103057861,0.08359527587891,-0.10888772457838,9.76643466949463,0.25610396265984,-1.09539270401001,-0.93412548303604
175,2044111238,-0.66583335399628,-0.45267900824547,11.03232955932617,0.08632766455412,-0.13078972697258,9.77981758117676,0.26519694924355,-1.18217372894287,-0.85098171234131
176,2044119571,-0.66631299257278,-0.45291775465012,11.03175449371338,0.08559096604586,-0.12184187024832,9.77698516845703,0.15264803171158,-1.10433208942413,-0.90781968832016
177,2044127904,-0.66640478372574,-0.45251098275185,11.03184986114502,0.09481093287468,-0.12209187448025,9.80232048034668,0.20044419169426,-1.02723324298859,-0.83461421728134
178,2044136237,-0.66641485691071,-0.45219850540161,11.03151607513428,0.08356666564941,-0.09973208606243,9.78155612945557,0.20920427143574,-1.03786325454712,-0.89147788286209
179,2044144570,-0.66683268547058,-0.45187556743622,11.03089714050293,0.08046954125166,-0.11157037317753,9.77000427246094,0.16033230721951,-1.03671050071716,-0.92001205682755
180,2044152903,-0.66633379459381,-0.45162981748581,11.03048610687256,0.08289429545403,-0.12131221592426,9.78883743286133,0.27134442329407,-1.04652082920074,-0.90326040983200
181,2044161236,-0.66610199213028,-0.45160561800003,11.03086948394775,0.07521206885576,-0.10471733659506,9.81638336181641,0.23886556923389,-1.07346689701080,-0.79998379945755
182,2044169569,-0.66633331775665,-0.45092150568962,11.03044223785400,0.09210722148418,-0.11110541969538,9.78251457214355,0.18215560913086,-0.99252587556839,-0.93430477380753
183,2044177902,-0.66623783111572,-0.45102226734161,11.03017330169678,0.06828819215298,-0.13311441242695,9.78549003601074,0.22165276110172,-1.08868169784546,-0.87820953130722
184,2044186235,-0.66716015338898,-0.45071181654930,11.03040599822998,0.07862404733896,-0.11915921419859,9.80862236022949,0.10175254195929,-1.03909254074097,-0.81263715028763
185,2044194568,-0.66720098257065,-0.45045402646065,11.03060722351074,0.08719322085381,-0.12213508039713,9.80124759674072,0.20674528181553,-1.04524004459381,-0.82147413492203
186,2044202901,-0.66703039407730,-0.45126271247864,11.03016948699951,0.06137854605913,-0.10531130433083,9.82171154022217,0.22974686324596,-1.17300391197205,-0.89847052097321
187,2044211234,-0.66702753305435,-0.45061928033829,11.02996730804443,0.08049093931913,-0.14007411897182,9.78550434112549,0.21115094423294,-0.99782812595367,-0.86947518587112
188,2044219567,-0.66770166158676,-0.45022046566010,11.02941513061523,0.07896023243666,-0.11707057803869,9.77845096588135,0.13074785470963,-1.02789914608002,-0.90628284215927
189,2044227900,-0.66763073205948,-0.45020994544029,11.02879428863525,0.07916773855686,-0.11472478508949,9.81593227386475,0.21801556646824,-1.07469654083252,-0.92080622911453
190,2044236233,-0.66692292690277,-0.45013448596001,11.02878761291504,0.06604219973087,-0.11250706762075,9.77963829040527,0.29572916030884,-1.06550085544586,-0.86035650968552
191,2044244566,-0.66709369421005,-0.45079693198204,11.02821826934814,0.07880280911922,-0.13032445311546,9.79177761077881,0.19001920521259,-1.15527892112732,-0.91509425640106
192,2044252899,-0.66742616891861,-0.45097556710243,11.02842807769775,0.08348087966442,-0.12567576766014,9.80601882934570,0.17111590504646,-1.09774935245514,-0.81537789106369
193,2044261232,-0.66731321811676,-0.45028242468834,11.02825927734375,0.08107740432024,-0.13379363715649,9.80072593688965,0.22472651302814,-0.99401164054871,-0.86514645814896
194,2044269565,-0.66726535558701,-0.45099687576294,11.02810287475586,0.07185030728579,-0.10901647806168,9.77830123901367,0.21655553579330,-1.16099071502686,-0.86716991662979
195,2044277898,-0.66785508394241,-0.45021495223045,11.02783489227295,0.06785902380943,-0.11161296069622,9.78274345397949,0.14012268185616,-0.98110216856003,-0.87708258628845
196,2044286231,-0.66792070865631,-0.44978883862495,11.02799892425537,0.07498331367970,-0.12246412038803,9.80609703063965,0.20241649448872,-1.02492797374725,-0.84332305192947
197,2044294564,-0.66741245985031,-0.44978398084641,11.02795219421387,0.07920342683792,-0.11968851834536,9.81721210479736,0.27201038599014,-1.07625901699066,-0.85146844387054
198,2044302897,-0.66731506586075,-0.45018523931503,11.02763557434082,0.06126403063536,-0.11463828384876,9.79474639892578,0.22329208254814,-1.12290239334106,-0.87695449590683
199,2044311230,-0.66721242666245,-0.45040449500084,11.02755355834961,0.08139935135841,-0.10392365604639,9.80172634124756,0.22349700331688,-1.10256481170654,-0.85646325349808
200,2044319563,-0.66664856672287,-0.45015627145767,11.02757358551025,0.08438923954964,-0.10350164026022,9.77572631835938,0.27836269140244,-1.04600846767426,-0.84526968002319
201,2044327896,-0.66665083169937,-0.45016714930534,11.02786922454834,0.08371680974960,-0.11538936942816,9.80704212188721,0.21130461990833,-1.07928133010864,-0.80984526872635
202,2044336229,-0.66610801219940,-0.45023438334465,11.02775764465332,0.07767271995544,-0.12057547271252,9.84117507934570,0.27575004100800,-1.08243203163147,-0.85595095157623
203,2044344562,-0.66610544919968,-0.45056533813477,11.02795505523682,0.07959689944983,-0.12296483665705,9.79769992828369,0.21133023500443,-1.11739552021027,-0.82301104068756
204,2044352895,-0.66662687063217,-0.45072451233864,11.02834033966064,0.06280200183392,-0.12295766919851,9.79747772216797,0.14944624900818,-1.09636604785919,-0.79924094676971
205,2044361228,-0.66725319623947,-0.45072978734970,11.02821636199951,0.07957537472248,-0.10814383625984,9.80219841003418,0.13587069511414,-1.07584905624390,-0.86117613315582
206,2044369561,-0.66747581958771,-0.45067900419235,11.02888870239258,0.05553461983800,-0.11823622137308,9.77435302734375,0.18410231173038,-1.07087981700897,-0.77654677629471
207,2044377894,-0.66721713542938,-0.45071870088577,11.02915287017822,0.07798737287521,-0.11575416475534,9.79249286651611,0.24181117117405,-1.08040845394135,-0.81509619951248
208,2044386227,-0.66763585805893,-0.45118784904480,11.02937030792236,0.07283024489880,-0.12867964804173,9.79259204864502,0.16163863241673,-1.13383972644806,-0.82682752609253
209,2044394560,-0.66776764392853,-0.45120668411255,11.02948570251465,0.07296615093946,-0.11456708610058,9.79076099395752,0.19473220407963,-1.07846164703369,-0.83246254920959
210,2044402893,-0.66757804155350,-0.45133528113365,11.02963447570801,0.08401013910770,-0.12354390323162,9.76966094970703,0.23456238210201,-1.09096157550812,-0.83535712957382
211,2044411226,-0.66736954450607,-0.45121243596077,11.02968883514404,0.09950319677591,-0.10906654596329,9.79197025299072,0.23507465422153,-1.06196630001068,-0.83983945846558
212,2044419559,-0.66786777973175,-0.45101094245911,11.03026103973389,0.07317358255386,-0.10147738456726,9.79454517364502,0.15162345767021,-1.05177175998688,-0.79178720712662
213,2044427892,-0.66757690906525,-0.45132949948311,11.03032493591309,0.07948954403400,-0.10642714798450,9.79722023010254,0.24626804888248,-1.11547434329987,-0.83794403076172
214,2044436225,-0.66712820529938,-0.45106691122055,11.03026676177979,0.09063374996185,-0.09438207000494,9.80639076232910,0.26563242077827,-1.04285800457001,-0.84964978694916
215,2044444558,-0.66778606176376,-0.45155084133148,11.02998447418213,0.10149888694286,-0.09373119473457,9.79885101318359,0.13190048933029,-1.13409578800201,-0.88036131858826
216,2044452891,-0.66806465387344,-0.45167133212090,11.02988719940186,0.07804472744465,-0.11086938530207,9.80536079406738,0.17636680603027,-1.09062850475311,-0.85858911275864
217,2044461224,-0.66764903068542,-0.45170816779137,11.02972316741943,0.07174309343100,-0.11728548258543,9.80156898498535,0.26135486364365,-1.08022916316986,-0.86576122045517
218,2044469557,-0.66709041595459,-0.45149108767509,11.02946281433105,0.07650680840015,-0.10410962998867,9.80422973632812,0.27731251716614,-1.05051672458649,-0.88061738014221
219,2044477890,-0.66734892129898,-0.45121133327484,11.03044700622559,0.08029771596193,-0.11453080177307,9.79553127288818,0.18026016652584,-1.04418981075287,-0.72729057073593
220,2044486223,-0.66748893260956,-0.45121264457703,11.02999305725098,0.07092043757439,-0.10270051658154,9.82609653472900,0.19560311734676,-1.07390248775482,-0.91396713256836
221,2044494556,-0.66743069887161,-0.45184603333473,11.02968120574951,0.08104886114597,-0.12479565292597,9.80876541137695,0.21637624502182,-1.15281999111176,-0.88340932130814
222,2044502889,-0.66766494512558,-0.45089834928513,11.02958774566650,0.08465389907360,-0.10470331460238,9.81589603424072,0.18392303586006,-0.96207070350647,-0.85326147079468
223,2044511222,-0.66769790649414,-0.45012938976288,11.02912807464600,0.08339499682188,-0.12188444286585,9.77943801879883,0.20595125854015,-0.98345857858658,-0.90051966905594
224,2044519555,-0.66704303026199,-0.45001709461212,11.02920055389404,0.07445394247770,-0.10009688138962,9.79317855834961,0.29022210836411,-1.06201732158661,-0.84432202577591
225,2044527888,-0.66752487421036,-0.45036289095879,11.02924156188965,0.08002606034279,-0.12919497489929,9.76772212982178,0.15195643901825,-1.11865031719208,-0.84147882461548
226,2044536221,-0.66796100139618,-0.44981625676155,11.02966403961182,0.06348157674074,-0.11285096406937,9.78764438629150,0.16002492606640,-1.01032793521881,-0.80672025680542
227,2044544554,-0.66787672042847,-0.45030978322029,11.02940845489502,0.07673569768667,-0.12594009935856,9.77952384948730,0.22034645080566,-1.13450562953949,-0.87756931781769
228,2044552887,-0.66823810338974,-0.45017516613007,11.02978515625000,0.06798776984215,-0.10583346337080,9.77494621276855,0.16806779801846,-1.06086480617523,-0.81002449989319
229,2044561220,-0.66801238059998,-0.44892394542694,11.02982616424561,0.08207172155380,-0.10702799260616,9.80470180511475,0.23727746307850,-0.92569845914841,-0.83953213691711
230,2044569553,-0.66761404275894,-0.44891151785851,11.03003120422363,0.07143536210060,-0.10851548612118,9.80268573760986,0.25912642478943,-1.07536244392395,-0.81563401222229
231,2044577886,-0.66751587390900,-0.44868659973145,11.02989578247070,0.06041283905506,-0.11212766915560,9.76115608215332,0.22367630898952,-1.04977369308472,-0.86132979393005
232,2044586219,-0.66766428947449,-0.44869509339333,11.02958202362061,0.08429625630379,-0.09760769456625,9.77827930450439,0.19283677637577,-1.07528555393219,-0.89147782325745
233,2044594552,-0.66734176874161,-0.44871535897255,11.02910137176514,0.08080566674471,-0.12315765023232,9.79019641876221,0.24803544580936,-1.07807755470276,-0.90459227561951
234,2044602885,-0.66726464033127,-0.44885331392288,11.02951240539551,0.07829495519400,-0.11290018260479,9.79532527923584,0.22201137244701,-1.09331798553467,-0.80341607332230
235,2044611218,-0.66681236028671,-0.44771224260330,11.02952003479004,0.08631335943937,-0.11233539879322,9.81174755096436,0.26524820923805,-0.93983745574951,-0.84345108270645
236,2044619551,-0.66720414161682,-0.44803169369698,11.03008556365967,0.08669965714216,-0.12269301712513,9.79901599884033,0.16407197713852,-1.11555111408234,-0.79908722639084
237,2044627884,-0.66726768016815,-0.44792556762695,11.03002166748047,0.06864583492279,-0.12669830024242,9.77986049652100,0.20308244228363,-1.06222224235535,-0.85408103466034
238,2044636217,-0.66771554946899,-0.44820773601532,11.03083801269531,0.09069804847240,-0.12149818986654,9.80496692657471,0.15741229057312,-1.11199092864990,-0.75774592161179
239,2044644550,-0.66793566942215,-0.44836056232452,11.03128623962402,0.07592742890120,-0.10261468589306,9.79520320892334,0.18525494635105,-1.09531581401825,-0.79173594713211
240,2044652883,-0.66819715499878,-0.44890907406807,11.03175354003906,0.07624924927950,-0.11870826035738,9.78592681884766,0.17979912459850,-1.14098608493805,-0.84893256425858
241,2044661216,-0.66846197843552,-0.44871109724045,11.03161239624023,0.08950346708298,-0.11602596193552,9.81988143920898,0.17918436229229,-1.05315482616425,-0.86266177892685
242,2044669549,-0.66835486888885,-0.44891402125359,11.03157138824463,0.10250023752451,-0.10968884825706,9.79567527770996,0.22277982532978,-1.09956789016724,-0.85443961620331
243,2044677882,-0.66811412572861,-0.44843333959579,11.03155422210693,0.07502616941929,-0.11353707313538,9.79247093200684,0.24088905751705,-1.01898550987244,-0.84731888771057
244,2044686215,-0.66837400197983,-0.44898730516434,11.03120040893555,0.06614233553410,-0.11173456162214,9.77752876281738,0.17890262603760,-1.14172899723053,-0.90728175640106
245,2044694548,-0.66847324371338,-0.44879060983658,11.03086662292480,0.07897453755140,-0.12314334511757,9.77492523193359,0.19870242476463,-1.05225837230682,-0.88602209091187
246,2044702881,-0.66878831386566,-0.44973364472389,11.03012561798096,0.08601287752390,-0.11914452910423,9.78717136383057,0.17365171015263,-1.18821871280670,-0.93071883916855
247,2044711214,-0.66837155818939,-0.44946691393852,11.02983760833740,0.07788730412722,-0.12164124846458,9.79842948913574,0.25920322537422,-1.04401051998138,-0.88064301013947
248,2044719547,-0.66804301738739,-0.44949379563332,11.02950286865234,0.06546997278929,-0.11622654646635,9.78812217712402,0.25108352303505,-1.07869231700897,-0.87946474552155
249,2044727880,-0.66775852441788,-0.45011389255524,11.02934265136719,0.07966836541891,-0.11057580262423,9.78794288635254,0.24421891570091,-1.14989972114563,-0.86650389432907
250,2044736213,-0.66749536991119,-0.45034548640251,11.02877998352051,0.08518328517675,-0.12069026380777,9.78963851928711,0.24263083934784,-1.10358929634094,-0.91253268718719
251,2044744546,-0.66757166385651,-0.45038118958473,11.02844333648682,0.08029066026211,-0.10638423264027,9.78175640106201,0.20090524852276,-1.08002436161041,-0.88655984401703
252,2044752879,-0.66745537519455,-0.45052456855774,11.02832412719727,0.09023318439722,-0.12654842436314,9.80631160736084,0.22572545707226,-1.09285700321198,-0.86496716737747
253,2044761212,-0.66850841045380,-0.45033413171768,11.02826976776123,0.08096303045750,-0.12763532996178,9.78672695159912,0.08405311405659,-1.05379533767700,-0.85208314657211
254,2044769545,-0.66916906833649,-0.45006826519966,11.02789783477783,0.09252917766571,-0.11625515669584,9.81544589996338,0.13087593019009,-1.04265308380127,-0.88866025209427
255,2044777878,-0.66863912343979,-0.45034143328667,11.02726078033447,0.08693565428257,-0.11173456162214,9.78119754791260,0.27434125542641,-1.10814869403839,-0.92257350683212
256,2044786211,-0.66926062107086,-0.45039078593254,11.02718734741211,0.08134928345680,-0.10623402148485,9.76372337341309,0.13599880039692,-1.08138179779053,-0.85564357042313
257,2044794544,-0.66986536979675,-0.45074835419655,11.02716445922852,0.07335955649614,-0.10652729123831,9.78650569915771,0.13902126252651,-1.11990559101105,-0.84875327348709
258,2044802877,-0.67062848806381,-0.45003315806389,11.02704524993896,0.07594173401594,-0.12397307157516,9.78210639953613,0.11906776577234,-0.99016934633255,-0.83417868614197
259,2044811210,-0.67014682292938,-0.44993460178375,11.02669429779053,0.06567016243935,-0.10918783396482,9.80018234252930,0.26919278502464,-1.06401538848877,-0.88855779170990
260,2044819543,-0.66992193460464,-0.44999361038208,11.02692699432373,0.07975419610739,-0.10521116852760,9.78166294097900,0.23727746307850,-1.08348214626312,-0.80251950025558
261,2044827876,-0.67005360126495,-0.44923669099808,11.02689456939697,0.08053386211395,-0.10674902796745,9.81733417510986,0.19542381167412,-0.98581510782242,-0.84829235076904
262,2044836209,-0.67006260156631,-0.44926187396049,11.02645015716553,0.05097122490406,-0.08999025076628,9.80606842041016,0.20953726768494,-1.07797503471375,-0.90039151906967
263,2044844542,-0.67028152942657,-0.44834062457085,11.02675628662109,0.07765841484070,-0.13475240767002,9.79661273956299,0.18522933125496,-0.96670675277710,-0.80741184949875
264,2044852875,-0.66936284303665,-0.44807338714600,11.02721405029297,0.08257957547903,-0.12308612465858,9.81728458404541,0.32101041078568,-1.04331898689270,-0.80277580022812
265,2044861208,-0.66940993070602,-0.44779628515244,11.02661800384521,0.06931104511023,-0.12781414389610,9.78748512268066,0.20497791469097,-1.04180765151978,-0.91709208488464
266,2044869541,-0.67013257741928,-0.44745302200317,11.02621269226074,0.09128453582525,-0.09870177507401,9.76779460906982,0.12311481684446,-1.03491747379303,-0.89537113904953
267,2044877874,-0.67115265130997,-0.44741711020470,11.02568626403809,0.07740091532469,-0.11262151598930,9.79519653320312,0.08907349407673,-1.07062375545502,-0.90912604331970
268,2044886207,-0.67212963104248,-0.44676947593689,11.02552318572998,0.07504759728909,-0.11662681400776,9.77657032012939,0.09335108101368,-0.99864786863327,-0.87359905242920
269,2044894540,-0.67205792665482,-0.44627481698990,11.02522945404053,0.05684364214540,-0.11033260077238,9.77263641357422,0.21873272955418,-1.01603984832764,-0.88130885362625
270,2044902873,-0.67180544137955,-0.44549483060837,11.02456283569336,0.07868127524853,-0.12445946782827,9.80093955993652,0.24063295125961,-0.98089712858200,-0.93217891454697
271,2044911206,-0.67166376113892,-0.44617247581482,11.02526187896729,0.08785830438137,-0.12785677611828,9.78953170776367,0.22882476449013,-1.15865981578827,-0.76307362318039
272,2044919539,-0.67245948314667,-0.44609001278877,11.02461338043213,0.08825892955065,-0.12092596292496,9.78560447692871,0.11640388518572,-1.06473243236542,-0.91281455755234
273,2044927872,-0.67204988002777,-0.44644224643707,11.02533149719238,0.07710772007704,-0.11652725189924,9.79936599731445,0.25943377614021,-1.11964941024780,-0.76043546199799
274,2044936205,-0.67157924175262,-0.44579133391380,11.02528381347656,0.09091978520155,-0.10141300410032,9.76110553741455,0.26780959963799,-0.99800741672516,-0.86827141046524
275,2044944538,-0.67118853330612,-0.44482141733170,11.02471923828125,0.05461910739541,-0.11527521908283,9.78011035919189,0.25807622075081,-0.95907384157181,-0.91173869371414
276,2044952871,-0.67108666896820,-0.44475135207176,11.02408981323242,0.07778001576662,-0.11857267469168,9.78229999542236,0.22249804437160,-1.06647431850433,-0.92613399028778
277,2044961204,-0.67087417840958,-0.44527569413185,11.02394580841064,0.08085566759109,-0.11455960571766,9.77772235870361,0.23515146970749,-1.13865518569946,-0.86435234546661
278,2044969537,-0.67039227485657,-0.44589075446129,11.02469444274902,0.09951034933329,-0.10266475379467,9.78398799896240,0.26970505714417,-1.15094995498657,-0.76998943090439
279,2044977870,-0.67027717828751,-0.44558429718018,11.02489471435547,0.08932470530272,-0.10244301706553,9.80037498474121,0.22488015890121,-1.03986096382141,-0.82160216569901
280,2044986203,-0.67002445459366,-0.44541528820992,11.02588081359863,0.06047728657722,-0.10722827166319,9.73978328704834,0.24227225780487,-1.05702257156372,-0.73884266614914
281,2044994536,-0.67041409015656,-0.44538956880569,11.02577972412109,0.08762227743864,-0.10988882184029,9.79072666168213,0.16473795473576,-1.07377433776855,-0.85812819004059
282,2045002869,-0.67062437534332,-0.44575524330139,11.02549934387207,0.08109893649817,-0.12045387178659,9.82401466369629,0.18474265933037,-1.11872720718384,-0.90269672870636
283,2045011202,-0.67101866006851,-0.44556218385696,11.02495479583740,0.09480378031731,-0.11048996448517,9.78236389160156,0.16361092031002,-1.05310368537903,-0.91102141141891
284,2045019535,-0.67026233673096,-0.44581061601639,11.02556514739990,0.08369541913271,-0.11402346938848,9.81612491607666,0.30179971456528,-1.10597121715546,-0.78838044404984
285,2045027868,-0.67086458206177,-0.44523838162422,11.02559566497803,0.08385992795229,-0.10911662131548,9.78550434112549,0.13830405473709,-1.00766396522522,-0.84119701385498
286,2045036201,-0.67156589031219,-0.44524377584457,11.02627563476562,0.09204278141260,-0.12147673219442,9.80328559875488,0.12775099277496,-1.07648944854736,-0.76996392011642
287,2045044534,-0.67122089862823,-0.44422036409378,11.02606296539307,0.07311636209488,-0.12072568386793,9.77484607696533,0.25236424803734,-0.95374608039856,-0.87014126777649
288,2045052867,-0.67111271619797,-0.44354575872421,11.02643871307373,0.08169262111187,-0.10320837050676,9.78083992004395,0.22444471716881,-0.99559962749481,-0.79442536830902
289,2045061200,-0.67169314622879,-0.44300028681755,11.02663135528564,0.08006892353296,-0.10947426408529,9.80674839019775,0.14091670513153,-1.01196730136871,-0.82219129800797
290,2045069533,-0.67203021049500,-0.44293019175529,11.02690410614014,0.08796565979719,-0.10719965398312,9.77462482452393,0.17042429745197,-1.06696093082428,-0.83535701036453
291,2045077866,-0.67143201828003,-0.44354540109634,11.02774143218994,0.08033357560635,-0.11138407140970,9.78043270111084,0.28305006027222,-1.15197443962097,-0.74678295850754
292,2045086199,-0.67130750417709,-0.44322445988655,11.02819728851318,0.08877399563789,-0.10544034093618,9.78496742248535,0.22705736756325,-1.03678727149963,-0.79714047908783
293,2045094532,-0.67150771617889,-0.44341531395912,11.02874565124512,0.08172129094601,-0.10612702369690,9.78861522674561,0.18750900030136,-1.09961903095245,-0.78082436323166
294,2045102865,-0.67154085636139,-0.44339168071747,11.02850532531738,0.09149923175573,-0.09290859848261,9.78198528289795,0.20712950825691,-1.07405602931976,-0.86624765396118
295,2045111198,-0.67195838689804,-0.44325789809227,11.02871513366699,0.07830932736397,-0.10041160881519,9.78395938873291,0.16120317578316,-1.05963528156281,-0.82083368301392
296,2045119531,-0.67264842987061,-0.44294223189354,11.02846240997314,0.09234320372343,-0.13723444938660,9.78167057037354,0.12721310555935,-1.03858041763306,-0.86076641082764
297,2045127864,-0.67182981967926,-0.44304245710373,11.02901649475098,0.08860226720572,-0.11614786088467,9.75428199768066,0.31009870767593,-1.08799016475677,-0.77987653017044
298,2045136197,-0.67143654823303,-0.44320192933083,11.02904510498047,0.10273620486259,-0.11885848641396,9.78079128265381,0.25846043229103,-1.09610998630524,-0.84698599576950
299,2045144530,-0.67222589254379,-0.44257545471191,11.02885055541992,0.07031240314245,-0.11247816681862,9.80218505859375,0.11522562801838,-0.99954432249069,-0.86957764625549
300,2045152863,-0.67136573791504,-0.44184461236000,11.02910423278809,0.09233605116606,-0.11809343844652,9.80360031127930,0.31468367576599,-0.98855572938919,-0.82108980417252
301,2045161196,-0.67148131132126,-0.44184654951096,11.02931976318359,0.07870267331600,-0.12347923964262,9.78070545196533,0.19703751802444,-1.07674562931061,-0.82016783952713
302,2045169529,-0.67142897844315,-0.44243270158768,11.02943325042725,0.07851681858301,-0.11867314577103,9.78888702392578,0.21819482743740,-1.14674925804138,-0.83891743421555
303,2045177862,-0.67170912027359,-0.44254845380783,11.02937126159668,0.06825958192348,-0.12906590104103,9.79021739959717,0.17649489641190,-1.09032118320465,-0.85282593965530
304,2045186195,-0.67194718122482,-0.44269832968712,11.02975177764893,0.06506946682930,-0.12314364314079,9.78076171875000,0.18325701355934,-1.09370207786560,-0.79603916406631
305,2045194528,-0.67100626230240,-0.44343459606171,11.03010082244873,0.08622036874294,-0.12055401504040,9.77297973632812,0.32523673772812,-1.16506350040436,-0.80500417947769
306,2045202861,-0.67156749963760,-0.44366350769997,11.02960777282715,0.07573430240154,-0.12623336911201,9.82329940795898,0.14283779263496,-1.10235989093781,-0.91255843639374
307,2045211194,-0.67161643505096,-0.44451874494553,11.02890586853027,0.08063399791718,-0.11285755783319,9.79545402526855,0.20467054843903,-1.17876708507538,-0.93138480186462
308,2045219527,-0.67173188924789,-0.44498890638351,11.02893638610840,0.08109178394079,-0.12041810899973,9.75942516326904,0.19675573706627,-1.13245642185211,-0.85110980272293
309,2045227860,-0.67174905538559,-0.44420740008354,11.02944946289062,0.09554065018892,-0.13189178705215,9.77391719818115,0.20884567499161,-0.98335611820221,-0.78333455324173
310,2045236193,-0.67099279165268,-0.44359359145164,11.02996063232422,0.07306629419327,-0.10586922615767,9.81237697601318,0.30336222052574,-1.00187516212463,-0.78832936286926
311,2045244526,-0.67018979787827,-0.44293853640556,11.02994441986084,0.09551906585693,-0.11908768117428,9.77973842620850,0.30553939938545,-0.99846845865250,-0.84690904617310
312,2045252859,-0.67094779014587,-0.44347086548805,11.02971744537354,0.09409569203854,-0.11614104360342,9.77202796936035,0.12121935933828,-1.13975656032562,-0.86302042007446
313,2045261192,-0.67164784669876,-0.44292125105858,11.03021049499512,0.08189290016890,-0.08977533131838,9.81562423706055,0.12667520344257,-1.01076340675354,-0.78599846363068
314,2045269525,-0.67183786630630,-0.44270759820938,11.03008842468262,0.07937509566545,-0.11691322177649,9.80693435668945,0.18902026116848,-1.04915916919708,-0.86937272548676
315,2045277858,-0.67191529273987,-0.44289383292198,11.03069591522217,0.08310172706842,-0.12360112369061,9.77645587921143,0.20105892419815,-1.09979832172394,-0.77301192283630
316,2045286191,-0.67157423496246,-0.44278052449226,11.03125762939453,0.08531203120947,-0.10991802066565,9.79620456695557,0.25397795438766,-1.06319558620453,-0.77206426858902
317,2045294524,-0.67137849330902,-0.44169044494629,11.03124332427979,0.08941039443016,-0.11355083435774,9.80915737152100,0.23346093297005,-0.94562625885010,-0.84642237424850
318,2045302857,-0.67184883356094,-0.44118529558182,11.03105831146240,0.06522672623396,-0.14052446186543,9.78978919982910,0.15374942123890,-1.01514327526093,-0.86665755510330
319,2045311190,-0.67185902595520,-0.44106796383858,11.03073310852051,0.07107786834240,-0.10558343678713,9.81330680847168,0.20971655845642,-1.06068551540375,-0.88517677783966
320,2045319523,-0.67188769578934,-0.44063323736191,11.03063678741455,0.08455375581980,-0.11792892217636,9.79823589324951,0.20687334239483,-1.02405703067780,-0.86801511049271
321,2045327856,-0.67160701751709,-0.44080239534378,11.03054809570312,0.06635700166225,-0.11120557039976,9.80283546447754,0.24552521109581,-1.09628927707672,-0.85666805505753
322,2045336189,-0.67098432779312,-0.44130918383598,11.03003787994385,0.07043404132128,-0.11099066585302,9.79401588439941,0.28538101911545,-1.13691341876984,-0.92464828491211
323,2045344522,-0.67185431718826,-0.44180136919022,11.03026485443115,0.07582728564739,-0.11303637921810,9.77570438385010,0.10684978216887,-1.13486421108246,-0.82024455070496
324,2045352855,-0.67159491777420,-0.44156467914581,11.02990722656250,0.07794453203678,-0.11443118005991,9.80896568298340,0.24178555607796,-1.04708421230316,-0.88850653171539
325,2045361188,-0.67222362756729,-0.44136315584183,11.03051567077637,0.06283772736788,-0.11435250192881,9.78067588806152,0.13561457395554,-1.05287313461304,-0.77255094051361
326,2045369521,-0.67261284589767,-0.44129708409309,11.03000640869141,0.08171407878399,-0.09551906585693,9.79326438903809,0.16420005261898,-1.06624376773834,-0.90625739097595
327,2045377854,-0.67218732833862,-0.44095161557198,11.03024101257324,0.08559092134237,-0.11034690588713,9.79796409606934,0.26209765672684,-1.03596770763397,-0.81694036722183
328,2045386187,-0.67227971553802,-0.44109115004539,11.03029727935791,0.08244366943836,-0.12224208563566,9.78656959533691,0.20044417679310,-1.09239578247070,-0.85756456851959
329,2045394520,-0.67224401235580,-0.44101938605309,11.02928924560547,0.08160685747862,-0.09279417991638,9.80558204650879,0.21348182857037,-1.06657683849335,-0.96714222431183
330,2045402853,-0.67252695560455,-0.44052967429161,11.02958869934082,0.07592027634382,-0.10543290525675,9.78623390197754,0.17734016478062,-1.01729500293732,-0.78799629211426
331,2045411186,-0.67268455028534,-0.44114178419113,11.02989292144775,0.07768702507019,-0.11272165179253,9.81459426879883,0.19370765984058,-1.14969491958618,-0.81033194065094
332,2045419519,-0.67235976457596,-0.44094291329384,11.02971363067627,0.07640666514635,-0.12458106875420,9.78998184204102,0.24798421561718,-1.05274498462677,-0.87067902088165
333,2045427852,-0.67280632257462,-0.44031280279160,11.02944755554199,0.07118508964777,-0.12964527308941,9.77029037475586,0.15830877423286,-0.99985164403915,-0.87685203552246
334,2045436185,-0.67228889465332,-0.43983799219131,11.02887153625488,0.08026920258999,-0.10933120548725,9.78086185455322,0.27252262830734,-1.01752555370331,-0.91227656602859
335,2045444518,-0.67255133390427,-0.44010061025620,11.02887630462646,0.09624150395393,-0.12104756385088,9.78892326354980,0.17841596901417,-1.10853290557861,-0.84575653076172
336,2045452851,-0.67248231172562,-0.44200876355171,11.02910423278809,0.08372395485640,-0.11592575907707,9.77877902984619,0.22067943215370,-1.30512201786041,-0.82618713378906
337,2045461184,-0.67249846458435,-0.44230535626411,11.02856254577637,0.08403159677982,-0.11493903398514,9.80875110626221,0.20807723701000,-1.11086368560791,-0.91122633218765
338,2045469517,-0.67198681831360,-0.44242483377457,11.02832794189453,0.08152810484171,-0.12389439344406,9.78682041168213,0.27195915579796,-1.09032118320465,-0.87413704395294
339,2045477850,-0.67244225740433,-0.44199115037918,11.02799415588379,0.08957510441542,-0.11492504179478,9.80675506591797,0.15654139220715,-1.02336549758911,-0.88543283939362
340,2045486183,-0.67268389463425,-0.44109117984772,11.02797985076904,0.07811620086432,-0.12213478982449,9.76521110534668,0.18128474056721,-0.96742403507233,-0.82710933685303
341,2045494516,-0.67197823524475,-0.44052916765213,11.02799224853516,0.09082671254873,-0.12368667870760,9.76078414916992,0.29552423954010,-1.00984108448029,-0.84337425231934
342,2045502849,-0.67168247699738,-0.44043722748756,11.02748680114746,0.08705732971430,-0.11981760710478,9.77866554260254,0.24606311321259,-1.06311869621277,-0.92603141069412
343,2045511182,-0.67213624715805,-0.43974366784096,11.02706336975098,0.07685735076666,-0.12953828275204,9.75803756713867,0.15654139220715,-0.99242359399796,-0.89598602056503
344,2045519515,-0.67193990945816,-0.43991348147392,11.02728939056396,0.08001878112555,-0.11948794126511,9.79713535308838,0.23494656383991,-1.09728813171387,-0.81801617145538
345,2045527848,-0.67157435417175,-0.43975433707237,11.02746200561523,0.07355976104736,-0.12224894762039,9.78696346282959,0.25436213612556,-1.05727863311768,-0.82539302110672
346,2045536181,-0.67176997661591,-0.43984520435333,11.02746868133545,0.10008972883224,-0.11661995202303,9.78967380523682,0.18779076635838,-1.08681190013885,-0.84112018346786
347,2045544514,-0.67174124717712,-0.44038888812065,11.02725505828857,0.09566212445498,-0.11249991506338,9.78792190551758,0.21476255357265,-1.14085805416107,-0.87224155664444
348,2045552847,-0.67147809267044,-0.43997043371201,11.02743721008301,0.10201392322779,-0.10890232026577,9.77890872955322,0.24234907329082,-1.02564513683319,-0.81069052219391
349,2045561180,-0.67171472311020,-0.43988156318665,11.02771091461182,0.08367395401001,-0.11738530546427,9.77351570129395,0.18269355595112,-1.06593644618988,-0.81289339065552
350,2045569513,-0.67258143424988,-0.44026899337769,11.02766799926758,0.07842376828194,-0.11312936246395,9.78257846832275,0.10825856029987,-1.12241578102112,-0.84329742193222
351,2045577846,-0.67302232980728,-0.44068977236748,11.02748203277588,0.07478297501802,-0.12418050318956,9.78356552124023,0.15643894672394,-1.12764108181000,-0.86819458007812
352,2045586179,-0.67276853322983,-0.44124299287796,11.02710151672363,0.08850212395191,-0.12587572634220,9.76832962036133,0.24270768463612,-1.14057624340057,-0.90054517984390
353,2045594512,-0.67335385084152,-0.44159856438637,11.02742385864258,0.10056897252798,-0.11365867406130,9.80523109436035,0.13981530070305,-1.12021291255951,-0.80743747949600
354,2045602845,-0.67275387048721,-0.44122570753098,11.02662086486816,0.08753649145365,-0.11162726581097,9.80568218231201,0.28294765949249,-1.02974355220795,-0.93640530109406
355,2045611178,-0.67203241586685,-0.44053402543068,11.02644824981689,0.08187859505415,-0.10872321575880,9.76601982116699,0.29665127396584,-0.99355047941208,-0.86606848239899
356,2045619511,-0.67167961597443,-0.43996071815491,11.02682018280029,0.08562668412924,-0.11403777450323,9.76067638397217,0.25402918457985,-1.00720298290253,-0.80267328023911
357,2045627844,-0.67134708166122,-0.44024351239204,11.02667522430420,0.10810091346502,-0.12220632284880,9.78525352478027,0.24998211860657,-1.11022341251373,-0.86358386278152
358,2045636177,-0.67107540369034,-0.43988472223282,11.02645683288574,0.08248658478260,-0.10604804754257,9.78275775909424,0.24503858387470,-1.03202319145203,-0.87129390239716
359,2045644510,-0.67111486196518,-0.43988412618637,11.02685642242432,0.07268003374338,-0.10841564089060,9.77702045440674,0.20597685873508,-1.07774448394775,-0.79726868867874
360,2045652843,-0.67122346162796,-0.43910136818886,11.02685642242432,0.10238579660654,-0.11335109919310,9.76855182647705,0.19801084697247,-0.98174238204956,-0.85653996467590
361,2045661176,-0.67141622304916,-0.43951842188835,11.02608966827393,0.09114152193069,-0.12426634132862,9.78763580322266,0.18761143088341,-1.12472093105316,-0.93819820880890
362,2045669509,-0.67131781578064,-0.43927568197250,11.02579689025879,0.07428227365017,-0.11547549813986,9.79301452636719,0.22124294936657,-1.04562437534332,-0.87677520513535
363,2045677842,-0.67135584354401,-0.43892499804497,11.02523231506348,0.06898923963308,-0.12595473229885,9.80042457580566,0.20725758373737,-1.03394412994385,-0.91322427988052
364,2045686175,-0.67241597175598,-0.43911448121071,11.02570819854736,0.07620636373758,-0.11594013124704,9.77866649627686,0.08279801160097,-1.09915804862976,-0.81133085489273
365,2045694508,-0.67227983474731,-0.43921211361885,11.02547359466553,0.08049809187651,-0.12950222194195,9.79330062866211,0.22728791832924,-1.08796465396881,-0.87400889396667
366,2045702841,-0.67184460163116,-0.43959715962410,11.02614021301270,0.08797281235456,-0.11410930007696,9.79848670959473,0.26412117481232,-1.12315857410431,-0.78366744518280
367,2045711174,-0.67208606004715,-0.43929320573807,11.02678585052490,0.09575510770082,-0.11660564690828,9.80174064636230,0.18330825865269,-1.03996360301971,-0.76794040203094
368,2045719507,-0.67262780666351,-0.43956908583641,11.02720355987549,0.08792989701033,-0.10662027448416,9.76214981079102,0.14501498639584,-1.11009526252747,-0.79201769828796
369,2045727840,-0.67299777269363,-0.43884298205376,11.02762413024902,0.07667142152786,-0.09981846064329,9.79838752746582,0.16824708878994,-0.98940092325211,-0.79491209983826
370,2045736173,-0.67313867807388,-0.43808317184448,11.02705955505371,0.06728679686785,-0.13351497054100,9.78378772735596,0.19296482205391,-0.98281800746918,-0.93789076805115
371,2045744506,-0.67330378293991,-0.43827453255653,11.02764320373535,0.07527646422386,-0.10914494842291,9.78331565856934,0.19071078300476,-1.10064363479614,-0.77677726745605
372,2045752839,-0.66948151588440,-0.44832423329353,11.03004169464111,0.07071307301521,-0.12022529542446,9.77154159545898,0.19178657233715,-1.03079354763031,-0.90162104368210
373,2045761172,-0.66996461153030,-0.44787973165512,11.03052234649658,0.08764378726482,-0.09817992150784,9.79745674133301,0.15323714911938,-1.02367281913757,-0.78807312250137
374,2045769505,-0.67045438289642,-0.44741722941399,11.03004074096680,0.07881002128124,-0.10451734066010,9.78750705718994,0.15221257507801,-1.01814019680023,-0.88453632593155
375,2045777838,-0.67061173915863,-0.44725587964058,11.02933025360107,0.08797996491194,-0.09853756427765,9.80470943450928,0.19094131886959,-1.05543458461761,-0.93123120069504
376,2045786171,-0.67082333564758,-0.44698789715767,11.02998161315918,0.08350944519043,-0.11824364960194,9.78096866607666,0.18663811683655,-1.04421544075012,-0.76048660278320
377,2045794504,-0.67026954889297,-0.44722980260849,11.02985477447510,0.08645649999380,-0.12399485707283,9.77803611755371,0.27603179216385,-1.10381984710693,-0.86240565776825
378,2045802837,-0.67081373929977,-0.44726687669754,11.02988243103027,0.08937477320433,-0.11712780594826,9.81930160522461,0.14532236754894,-1.08017802238464,-0.84772878885269
379,2045811170,-0.67035973072052,-0.44712558388710,11.02984428405762,0.07051995396614,-0.10792955011129,9.76191425323486,0.26535066962242,-1.05763733386993,-0.85159641504288
380,2045819503,-0.67044210433960,-0.44771590828896,11.02951717376709,0.10167766362429,-0.11367297917604,9.75379562377930,0.20021364092827,-1.14616012573242,-0.87649339437485
381,2045827836,-0.67041099071503,-0.44726970791817,11.02900314331055,0.08597717434168,-0.10900932550430,9.78541851043701,0.21550539135933,-1.02065038681030,-0.90805029869080
382,2045836169,-0.66989934444427,-0.44697842001915,11.02871322631836,0.07913190126419,-0.11457423865795,9.80943012237549,0.27090892195702,-1.03950250148773,-0.87503337860107
383,2045844502,-0.67000263929367,-0.44631484150887,11.02848625183105,0.07192898541689,-0.12063269317150,9.78626251220703,0.19877925515175,-0.99580442905426,-0.87329167127609
384,2045852835,-0.66959595680237,-0.44646158814430,11.02809715270996,0.07640666514635,-0.11718502640724,9.79045391082764,0.25833234190941,-1.09152495861053,-0.89475649595261
385,2045861168,-0.67011117935181,-0.44595181941986,11.02837657928467,0.08394581824541,-0.13473838567734,9.76843738555908,0.14862659573555,-1.01514339447021,-0.81256043910980
386,2045869501,-0.67017430067062,-0.44613164663315,11.02812385559082,0.08548362553120,-0.08124914020300,9.80899429321289,0.20410703122616,-1.09780037403107,-0.84872764348984
387,2045877834,-0.67032343149185,-0.44617825746536,11.02870750427246,0.08130636811256,-0.11369443684816,9.77149200439453,0.19242694973946,-1.08138167858124,-0.77690535783768
388,2045886167,-0.67053937911987,-0.44572901725769,11.02862930297852,0.08001879602671,-0.10149139910936,9.79253578186035,0.18515248596668,-1.02039432525635,-0.85654008388519
389,2045894500,-0.67041152715683,-0.44430509209633,11.02933597564697,0.07556263357401,-0.12136228382587,9.78402328491211,0.22705739736557,-0.90620601177216,-0.75951337814331
390,2045902833,-0.67003524303436,-0.44417458772659,11.02925682067871,0.07788722962141,-0.10501059144735,9.78480339050293,0.25636008381844,-1.05927681922913,-0.84929114580154
391,2045911166,-0.67026680707932,-0.44335260987282,11.02901268005371,0.07727216184139,-0.11272165179253,9.79002475738525,0.18210440874100,-0.97654265165329,-0.87498223781586
392,2045919499,-0.66994506120682,-0.44384810328484,11.02908802032471,0.08617752790451,-0.11148452758789,9.77344417572021,0.24900877475739,-1.13473618030548,-0.82777523994446
393,2045927832,-0.66982161998749,-0.44420143961906,11.02874851226807,0.07269434630871,-0.10266475379467,9.78287220001221,0.22536684572697,-1.11642193794250,-0.88804548978806
394,2045936165,-0.66962671279907,-0.44522970914841,11.02948284149170,0.06316675245762,-0.12067561596632,9.81275653839111,0.23430620133877,-1.20025753974915,-0.76340669393539
395,2045944498,-0.66917425394058,-0.44553896784782,11.02963161468506,0.08212187141180,-0.11951000988483,9.76921653747559,0.26547873020172,-1.11199080944061,-0.82987564802170
396,2045952831,-0.66851288080215,-0.44536247849464,11.02959728240967,0.09239327162504,-0.10292226076126,9.79066848754883,0.28922310471535,-1.05458927154541,-0.85825604200363
397,2045961164,-0.66895180940628,-0.44538128376007,11.02974128723145,0.08052670955658,-0.11455278098583,9.81908702850342,0.15841121971607,-1.07736027240753,-0.82992678880692
398,2045969497,-0.66947430372238,-0.44520524144173,11.03001213073730,0.08323768526316,-0.14103290438652,9.79438781738281,0.14813993871212,-1.05474305152893,-0.83156621456146
399,2045977830,-0.66946202516556,-0.44536995887756,11.02999496459961,0.08308026939631,-0.11469583958387,9.77189254760742,0.21294392645359,-1.09523904323578,-0.84883010387421
400,2045986163,-0.66990548372269,-0.44571524858475,11.03068923950195,0.08143506944180,-0.12478106468916,9.79167079925537,0.15774527192116,-1.11614036560059,-0.76888817548752
401,2045994496,-0.67019838094711,-0.44528973102570,11.03072452545166,0.08199298381805,-0.12632606923580,9.79936695098877,0.17613629996777,-1.02554273605347,-0.84153014421463
402,2046002829,-0.66993087530136,-0.44592022895813,11.03128147125244,0.07838800549507,-0.11582598835230,9.78493213653564,0.24350173771381,-1.15100133419037,-0.76883691549301
403,2046011162,-0.67021197080612,-0.44541686773300,11.03162097930908,0.07466137409210,-0.10889488458633,9.80308532714844,0.17644365131855,-1.01473343372345,-0.80531156063080
404,2046019495,-0.67060565948486,-0.44578003883362,11.03173446655273,0.07948239147663,-0.09729296714067,9.78484630584717,0.16445620357990,-1.12046921253204,-0.82385623455048
405,2046027828,-0.67088705301285,-0.44569230079651,11.03133296966553,0.06702213734388,-0.12200604379177,9.78674125671387,0.17657171189785,-1.06352865695953,-0.89578104019165
406,2046036161,-0.67130428552628,-0.44539251923561,11.03133869171143,0.09252922981977,-0.09768667817116,9.79508876800537,0.15999932587147,-1.03955376148224,-0.85215997695923
407,2046044494,-0.67106521129608,-0.44587379693985,11.03196334838867,0.09954611212015,-0.10758591443300,9.76827239990234,0.24042800068855,-1.13340425491333,-0.77331936359406
408,2046052827,-0.67103916406631,-0.44569864869118,11.03193378448486,0.06788048148155,-0.12925186753273,9.79000282287598,0.21268780529499,-1.05458927154541,-0.86327666044235
409,2046061160,-0.67046475410461,-0.44596344232559,11.03168010711670,0.07838800549507,-0.10452449321747,9.78899478912354,0.28013008832932,-1.10771310329437,-0.87805593013763
410,2046069493,-0.66962862014771,-0.44520020484924,11.03255081176758,0.07594173401594,-0.10345871746540,9.78902339935303,0.31168681383133,-0.98302316665649,-0.78750962018967
411,2046077826,-0.66984635591507,-0.44550836086273,11.03233814239502,0.07408199459314,-0.11221379786730,9.77994632720947,0.18351316452026,-1.11255431175232,-0.87252324819565
412,2046086159,-0.66962629556656,-0.44627764821053,11.03244209289551,0.07398192584515,-0.11248595267534,9.78478908538818,0.23720063269138,-1.16667711734772,-0.85190379619598
413,2046094492,-0.66924923658371,-0.44680139422417,11.03176689147949,0.07540518045425,-0.11924469470978,9.79355907440186,0.25495126843452,-1.13791239261627,-0.92810630798340
414,2046102825,-0.66908657550812,-0.44764921069145,11.03195571899414,0.08151372522116,-0.11093311756849,9.77945327758789,0.23079705238342,-1.17656421661377,-0.82024461030960
415,2046111158,-0.66860944032669,-0.44849979877472,11.03180885314941,0.07517638057470,-0.10365899652243,9.77605533599854,0.26865491271019,-1.17723023891449,-0.86545377969742
416,2046119491,-0.66838651895523,-0.44942891597748,11.03149318695068,0.08334492892027,-0.09393113106489,9.77384471893311,0.23717498779297,-1.18724536895752,-0.87872195243835
417,2046127824,-0.66808319091797,-0.44911023974419,11.03162479400635,0.09678518772125,-0.12002500146627,9.79974555969238,0.24565330147743,-1.03747904300690,-0.83061838150024
418,2046136157,-0.66782599687576,-0.44855666160583,11.03221225738525,0.06644275784492,-0.11601911485195,9.79458141326904,0.24391153454781,-1.00917518138885,-0.77444636821747
419,2046144490,-0.66857677698135,-0.44842827320099,11.03199863433838,0.06893194466829,-0.11335825175047,9.78003883361816,0.12004110962152,-1.05986571311951,-0.87247204780579
420,2046152823,-0.66912776231766,-0.44820278882980,11.03181648254395,0.08368110656738,-0.12418050318956,9.78752136230469,0.14337567985058,-1.04798078536987,-0.85587400197983
421,2046161156,-0.66918897628784,-0.44812557101250,11.03179645538330,0.09018297493458,-0.08874502032995,9.79323005676270,0.20344106853008,-1.06539845466614,-0.84962427616119
422,2046169489,-0.66857910156250,-0.44768348336220,11.03184127807617,0.08202880620956,-0.09792242199183,9.80669784545898,0.28397220373154,-1.02188003063202,-0.84532105922699
423,2046177822,-0.66849642992020,-0.44788688421249,11.03190422058105,0.07242253422737,-0.11200636625290,9.77364444732666,0.22057694196701,-1.10025942325592,-0.83978825807571
424,2046186155,-0.66850525140762,-0.44765865802765,11.03147411346436,0.08142080903053,-0.11232109367847,9.77752113342285,0.20956285297871,-1.04782712459564,-0.89196443557739
425,2046194488,-0.66937988996506,-0.44793716073036,11.03141307830811,0.06637123227119,-0.11797899007797,9.79175567626953,0.10556906461716,-1.10909652709961,-0.85490077733994
426,2046202821,-0.66864079236984,-0.44823026657104,11.03192806243896,0.06814513355494,-0.09086256474257,9.78797912597656,0.29992988705635,-1.11127364635468,-0.78638261556625
427,2046211154,-0.66864204406738,-0.44711703062057,11.03253364562988,0.09113425016403,-0.11749925464392,9.79369258880615,0.20979340374470,-0.94221967458725,-0.77319127321243
428,2046219487,-0.66821753978729,-0.44637307524681,11.03220176696777,0.07315212488174,-0.13349351286888,9.78652667999268,0.26179027557373,-0.98461115360260,-0.88230788707733
429,2046227820,-0.66779083013535,-0.44619405269623,11.03201866149902,0.07310205698013,-0.12709172070026,9.78944492340088,0.26222574710846,-1.05407702922821,-0.86847621202469
430,2046236153,-0.66855901479721,-0.44653710722923,11.03157329559326,0.09309425204992,-0.10908801108599,9.77853679656982,0.11799197643995,-1.11547422409058,-0.89268177747726
431,2046244486,-0.66936433315277,-0.44641196727753,11.03121185302734,0.07753681391478,-0.10191370546818,9.77614116668701,0.11425228416920,-1.05981445312500,-0.89027392864227
432,2046252819,-0.66909933090210,-0.44534844160080,11.03100776672363,0.07449685782194,-0.10503949970007,9.78520393371582,0.24209296703339,-0.94841831922531,-0.86645269393921
433,2046261152,-0.66925078630447,-0.44472870230675,11.03087425231934,0.07884579151869,-0.11111225932837,9.77584743499756,0.19155606627464,-1.00077378749847,-0.86207264661789
434,2046269485,-0.66894185543060,-0.44467088580132,11.03114223480225,0.06303793191910,-0.12066817283630,9.78393840789795,0.24834279716015,-1.06842088699341,-0.81801623106003
435,2046277818,-0.66857469081879,-0.44496867060661,11.03049945831299,0.08270841091871,-0.09951785206795,9.77325153350830,0.25413164496422,-1.10955739021301,-0.92467379570007
436,2046286151,-0.66909956932068,-0.44468352198601,11.02976703643799,0.07077018171549,-0.11876547336578,9.80217838287354,0.14793503284454,-1.04011738300323,-0.94362854957581
437,2046294484,-0.66924262046814,-0.44485265016556,11.02962779998779,0.07359559834003,-0.12658385932446,9.81135463714600,0.19316975772381,-1.09654545783997,-0.86302047967911
438,2046302817,-0.66847944259644,-0.44428101181984,11.02949333190918,0.08552654087543,-0.11349415779114,9.81084632873535,0.30123618245125,-1.00543558597565,-0.86816889047623
439,2046311150,-0.66850966215134,-0.44435086846352,11.02933788299561,0.08092011511326,-0.12752804160118,9.78370189666748,0.20787230134010,-1.08412230014801,-0.86553061008453
440,2046319483,-0.66915822029114,-0.44550269842148,11.02987670898438,0.08913157880306,-0.11131253838539,9.77952384948730,0.13297629356384,-1.21447324752808,-0.78336018323898
441,2046327816,-0.66925060749054,-0.44518271088600,11.02978229522705,0.08861657232046,-0.10081931948662,9.79504585266113,0.19959892332554,-1.03627502918243,-0.85825610160828
442,2046336149,-0.66891586780548,-0.44526997208595,11.03002452850342,0.09532593935728,-0.12336508184671,9.78048229217529,0.25008457899094,-1.08576190471649,-0.80269891023636
443,2046344482,-0.66923481225967,-0.44481867551804,11.03056812286377,0.07781577855349,-0.12210617959499,9.77127742767334,0.17313940823078,-1.02211034297943,-0.78033757209778
444,2046352815,-0.66939115524292,-0.44490659236908,11.03035068511963,0.07669986784458,-0.10841532796621,9.78703498840332,0.19147920608521,-1.08548009395599,-0.86373758316040
445,2046361148,-0.66840112209320,-0.44478973746300,11.03012847900391,0.08582696318626,-0.10672041773796,9.77877330780029,0.33035960793495,-1.06114661693573,-0.87375289201736
446,2046369481,-0.66822695732117,-0.44508680701256,11.03027915954590,0.07874572277069,-0.10835873335600,9.78108310699463,0.23074585199356,-1.11170911788940,-0.82631516456604
447,2046377814,-0.66821521520615,-0.44462168216705,11.02979278564453,0.08494716137648,-0.10630555450916,9.79247760772705,0.21273902058601,-1.01867806911469,-0.90489965677261
448,2046386147,-0.66763561964035,-0.44438746571541,11.02971363067627,0.06730825453997,-0.12192020565271,9.79375839233398,0.27997636795044,-1.04705858230591,-0.84473180770874
449,2046394480,-0.66797012090683,-0.44442194700241,11.02973556518555,0.09226446598768,-0.10325813293457,9.78182792663574,0.16980957984924,-1.07961440086365,-0.84363037347794
450,2046402813,-0.66853445768356,-0.44391417503357,11.02913761138916,0.06614233553410,-0.09717137366533,9.80741310119629,0.14299148321152,-1.01396512985229,-0.90953594446182
451,2046411146,-0.66844934225082,-0.44433197379112,11.02945613861084,0.08184998482466,-0.13560359179974,9.78864383697510,0.22057697176933,-1.12472093105316,-0.80905109643936
452,2046419479,-0.66848570108414,-0.44428762793541,11.02914333343506,0.08189290016890,-0.10327274352312,9.78621196746826,0.20613056421280,-1.07070052623749,-0.88246166706085
453,2046427812,-0.66822224855423,-0.44433885812759,11.02920150756836,0.07262996584177,-0.11415222287178,9.79225635528564,0.24242590367794,-1.08174026012421,-0.83942967653275
454,2046436145,-0.66779959201813,-0.44509246945381,11.02907371520996,0.07770133018494,-0.10612673312426,9.78056144714355,0.26112431287766,-1.16516602039337,-0.85262113809586
455,2046444478,-0.66795384883881,-0.44510674476624,11.02933979034424,0.09189257025719,-0.11748544871807,9.79725646972656,0.19299045205116,-1.07664310932159,-0.81530106067657
456,2046452811,-0.66775631904602,-0.44494053721428,11.02927494049072,0.07318788766861,-0.11905907094479,9.79425239562988,0.23379391431808,-1.05546009540558,-0.85062307119370
457,2046461144,-0.66716814041138,-0.44455298781395,11.02928829193115,0.06675748527050,-0.11033260077238,9.78560447692871,0.28100094199181,-1.02935922145844,-0.84478306770325
458,2046469477,-0.66758739948273,-0.44454854726791,11.02940464019775,0.08119912445545,-0.10597682744265,9.77945232391357,0.16040915250778,-1.07359492778778,-0.83346158266068
459,2046477810,-0.66750943660736,-0.44597727060318,11.02873897552490,0.07881002128124,-0.11987449228764,9.77788639068604,0.22065381705761,-1.24664473533630,-0.92792701721191
460,2046486143,-0.66730296611786,-0.44634848833084,11.02910518646240,0.05886074528098,-0.12862242758274,9.75569820404053,0.23533077538013,-1.11949563026428,-0.82370251417160
461,2046494476,-0.66715121269226,-0.44598665833473,11.02941894531250,0.07629930973053,-0.12316452711821,9.80704212188721,0.22882476449013,-1.03220248222351,-0.80853897333145
462,2046502809,-0.66709327697754,-0.44618973135948,11.03002452850342,0.07114211469889,-0.12143352627754,9.79393768310547,0.21896329522133,-1.10125851631165,-0.79255568981171
463,2046511142,-0.66795283555984,-0.44619667530060,11.03056049346924,0.06984750926495,-0.13453781604767,9.79830741882324,0.10772066563368,-1.07720661163330,-0.78248918056488
464,2046519475,-0.66759926080704,-0.44638618826866,11.03116416931152,0.08443930745125,-0.12840068340302,9.78002452850342,0.25318387150764,-1.09823596477509,-0.78215622901917
465,2046527808,-0.66743695735931,-0.44679093360901,11.03155517578125,0.08378124982119,-0.12081866711378,9.82132530212402,0.22967004776001,-1.12490034103394,-0.80036801099777
466,2046536141,-0.66740101575851,-0.44667127728462,11.03194713592529,0.08800143003464,-0.12882985174656,9.80887985229492,0.21555657684803,-1.06037807464600,-0.77967160940170
467,2046544474,-0.66776448488235,-0.44646427035332,11.03182601928711,0.08648502081633,-0.12356536090374,9.78225708007812,0.16770918667316,-1.05026042461395,-0.86115044355392
468,2046552807,-0.66768383979797,-0.44708055257797,11.03169345855713,0.07866697013378,-0.10745000839233,9.77127742767334,0.22075627744198,-1.14997673034668,-0.86888605356216
469,2046561140,-0.66813880205154,-0.44659870862961,11.03173255920410,0.06346002221107,-0.10643430054188,9.79450988769531,0.15587544441223,-1.01749992370605,-0.84227293729782
470,2046569473,-0.66828209161758,-0.44673025608063,11.03144168853760,0.08473257720470,-0.12960235774517,9.76556205749512,0.19219639897346,-1.09034681320190,-0.88545846939087
471,2046577806,-0.66783463954926,-0.44709348678589,11.03137397766113,0.08668530732393,-0.11164157092571,9.81304264068604,0.26409554481506,-1.11862480640411,-0.85597640275955
472,2046586139,-0.66838014125824,-0.44753941893578,11.03181171417236,0.07255128771067,-0.11543973535299,9.76326560974121,0.14603956043720,-1.12943398952484,-0.79657703638077
473,2046594472,-0.66776114702225,-0.44789040088654,11.03220844268799,0.07783723622561,-0.12845790386200,9.80147647857666,0.28591886162758,-1.11739528179169,-0.79975318908691
474,2046602805,-0.66817456483841,-0.44877272844315,11.03242206573486,0.09091263264418,-0.10738562792540,9.79804992675781,0.16076773405075,-1.18260908126831,-0.82667380571365
475,2046611138,-0.66841793060303,-0.44975191354752,11.03271865844727,0.09488251805305,-0.11795786023140,9.78933811187744,0.18225808441639,-1.19236826896667,-0.81273961067200
476,2046619471,-0.66846168041229,-0.45052087306976,11.03307533264160,0.08721461147070,-0.12317910790443,9.77867317199707,0.20582318305969,-1.16847014427185,-0.80971717834473
477,2046627804,-0.66814690828323,-0.45063689351082,11.03330039978027,0.08227915316820,-0.11388041079044,9.79119777679443,0.24731823801994,-1.08962953090668,-0.81945061683655
478,2046636137,-0.66874551773071,-0.45025920867920,11.03348731994629,0.06276619434357,-0.11572584509850,9.79071807861328,0.13968722522259,-1.02907752990723,-0.82659691572189
479,2046644470,-0.66892874240875,-0.45089754462242,11.03289890289307,0.07865981757641,-0.10687062889338,9.78141212463379,0.18873849511147,-1.15107798576355,-0.91791182756424
480,2046652803,-0.66971111297607,-0.45085582137108,11.03252601623535,0.05746594071388,-0.10828688740730,9.77215671539307,0.11607090383768,-1.07093107700348,-0.88868582248688
481,2046661136,-0.67002052068710,-0.44996827840805,11.03235340118408,0.06722956895828,-0.10229280591011,9.80443000793457,0.17316503822803,-0.96757775545120,-0.86635035276413
482,2046669469,-0.66938197612762,-0.44999668002129,11.03242969512939,0.08282276988029,-0.11010371148586,9.79041099548340,0.28686660528183,-1.07789826393127,-0.85797441005707
483,2046677802,-0.66926974058151,-0.44970607757568,11.03222370147705,0.08099164068699,-0.10466039925814,9.78983879089355,0.22359944880009,-1.04050147533417,-0.87126809358597
484,2046686135,-0.66939592361450,-0.45008045434952,11.03212261199951,0.06040569394827,-0.11845791339874,9.79044055938721,0.19667889177799,-1.12005913257599,-0.86642706394196
485,2046694468,-0.66977494955063,-0.45075589418411,11.03170490264893,0.06182917580009,-0.12675553560257,9.80451583862305,0.16343162953854,-1.15640580654144,-0.89711302518845
486,2046702801,-0.66948807239532,-0.45041272044182,11.03069972991943,0.06297362595797,-0.12739928066730,9.78775024414062,0.24421891570091,-1.03189516067505,-0.96327447891235
487,2046711134,-0.66925543546677,-0.44988536834717,11.03093624114990,0.06868867576122,-0.12362946569920,9.80465316772461,0.23945470154285,-1.01306867599487,-0.81752955913544
488,2046719467,-0.66918861865997,-0.45017212629318,11.03147220611572,0.06015541031957,-0.12302174419165,9.80133342742920,0.21886084973812,-1.10989046096802,-0.78064513206482
489,2046727800,-0.66944360733032,-0.45017328858376,11.03159523010254,0.05378937721252,-0.11997463554144,9.79622650146484,0.18107983469963,-1.07592582702637,-0.83174538612366
490,2046736133,-0.66937398910522,-0.45035967230797,11.03153228759766,0.06898917257786,-0.13318593800068,9.79651260375977,0.21837413311005,-1.09659647941589,-0.86688816547394
491,2046744466,-0.66940003633499,-0.45139980316162,11.03158760070801,0.06340280175209,-0.12225639075041,9.77333736419678,0.20674531161785,-1.20128202438354,-0.84081292152405
492,2046752799,-0.66952383518219,-0.45137274265289,11.03253746032715,0.06993328779936,-0.11670551449060,9.76730823516846,0.19696064293385,-1.07249355316162,-0.74501556158066
493,2046761132,-0.66955029964447,-0.45120343565941,11.03233718872070,0.07294469326735,-0.10868029296398,9.77963829040527,0.20705266296864,-1.05471730232239,-0.87057656049728
494,2046769465,-0.66951507329941,-0.45176056027412,11.03278636932373,0.07647104561329,-0.10282211750746,9.79329299926758,0.21512115001678,-1.14201068878174,-0.80787295103073
495,2046777798,-0.66946280002594,-0.45206993818283,11.03206729888916,0.07077022641897,-0.09845888614655,9.77207851409912,0.21642747521400,-1.11245179176331,-0.93310093879700
496,2046786131,-0.66944092512131,-0.45225811004639,11.03153705596924,0.06961146742105,-0.13292843103409,9.77681350708008,0.21284148097038,-1.09654533863068,-0.89626765251160
497,2046794464,-0.66904526948929,-0.45221936702728,11.03176307678223,0.08878824114799,-0.12483856827021,9.76982498168945,0.25922885537148,-1.07167398929596,-0.81945061683655
498,2046802797,-0.66864258050919,-0.45254656672478,11.03081607818604,0.08737921714783,-0.10629876703024,9.80656909942627,0.25805062055588,-1.11309206485748,-0.95110756158829
499,2046811130,-0.66842842102051,-0.45218297839165,11.03094100952148,0.09922431409359,-0.10878072679043,9.80278491973877,0.23681640625000,-1.03076803684235,-0.83179658651352
500,2046819463,-0.66850656270981,-0.45195266604424,11.03024864196777,0.09878075867891,-0.12826478481293,9.78068256378174,0.20059786736965,-1.04736602306366,-0.92372608184814
501,2046827796,-0.66822433471680,-0.45161893963814,11.03032207489014,0.07328803092241,-0.09909548610449,9.78320121765137,0.24350173771381,-1.03448224067688,-0.83732938766479
502,2046836129,-0.66776710748672,-0.45174449682236,11.03039550781250,0.07348822802305,-0.11618332564831,9.77255058288574,0.26634961366653,-1.09091019630432,-0.84001886844635
503,2046844462,-0.66768336296082,-0.45092809200287,11.03065586090088,0.06546282023191,-0.09478947520256,9.79095458984375,0.22103804349899,-0.97741353511810,-0.81391787528992
504,2046852795,-0.66815799474716,-0.45182624459267,11.03058433532715,0.08544781059027,-0.11895143985748,9.78884506225586,0.15359574556351,-1.18376183509827,-0.84396338462830
505,2046861128,-0.66769909858704,-0.45172443985939,11.03056812286377,0.07159280776978,-0.12869395315647,9.75786590576172,0.26535069942474,-1.06276011466980,-0.84875327348709
506,2046869461,-0.66771793365479,-0.45185223221779,11.03100204467773,0.06937542557716,-0.10841564089060,9.78492450714111,0.20823091268539,-1.09116649627686,-0.80100828409195
507,2046877794,-0.66803574562073,-0.45190143585205,11.03125953674316,0.06287349015474,-0.09003283083439,9.81584644317627,0.17426642775536,-1.08133053779602,-0.81545472145081
508,2046886127,-0.66789454221725,-0.45112651586533,11.03166198730469,0.08134914934635,-0.12096118927002,9.78772735595703,0.22769773006439,-0.98304873704910,-0.80208414793015
509,2046894460,-0.66807061433792,-0.45053678750992,11.03170585632324,0.08974672108889,-0.10682770609856,9.78474617004395,0.18886655569077,-1.00402677059174,-0.84055680036545
510,2046902793,-0.66853183507919,-0.45072621107101,11.03189849853516,0.08055531978607,-0.11271449923515,9.79422378540039,0.15631088614464,-1.09892761707306,-0.82698124647141
511,2046911126,-0.66811025142670,-0.45077723264694,11.03123092651367,0.07767280936241,-0.10313003510237,9.79106903076172,0.25976672768593,-1.07930696010590,-0.92692786455154
512,2046919459,-0.66743499040604,-0.45087492465973,11.03074264526367,0.08420317620039,-0.11227784305811,9.78338718414307,0.29288595914841,-1.08576178550720,-0.91970473527908
513,2046927792,-0.66734987497330,-0.45068630576134,11.03047466278076,0.06874590367079,-0.10099068284035,9.79820060729980,0.21904012560844,-1.05351340770721,-0.87800472974777
514,2046936125,-0.66715502738953,-0.45037809014320,11.03059101104736,0.05547029525042,-0.10370907187462,9.78885173797607,0.23397323489189,-1.03822171688080,-0.84772866964340
515,2046944458,-0.66762077808380,-0.45015305280685,11.03031539916992,0.06816659122705,-0.11913059651852,9.80172634124756,0.15554244816303,-1.04672574996948,-0.87982338666916
516,2046952791,-0.66749125719070,-0.45002943277359,11.02996063232422,0.06801638007164,-0.12253535538912,9.79115486145020,0.22585351765156,-1.05994260311127,-0.86865538358688
517,2046961124,-0.66748815774918,-0.44983467459679,11.03075885772705,0.07484019547701,-0.11953116208315,9.81925106048584,0.21166321635246,-1.05359029769897,-0.75075328350067
518,2046969457,-0.66769576072693,-0.44980666041374,11.03080940246582,0.07182884961367,-0.11294338852167,9.80064678192139,0.18592092394829,-1.07139217853546,-0.84747254848480
519,2046977790,-0.66710674762726,-0.45034459233284,11.03073787689209,0.08084858208895,-0.11319374293089,9.80441570281982,0.28148764371872,-1.13973104953766,-0.85625833272934
520,2046986123,-0.66728019714355,-0.45043620467186,11.03037929534912,0.07351692020893,-0.09209284931421,9.78597640991211,0.18917392194271,-1.08583867549896,-0.86204701662064
521,2046994456,-0.66660904884338,-0.45017221570015,11.03009605407715,0.09584809839725,-0.11119094491005,9.80430126190186,0.29096490144730,-1.04413866996765,-0.87946474552155
522,2047002789,-0.66640526056290,-0.44988423585892,11.03029155731201,0.09091978520155,-0.12674838304520,9.80859375000000,0.23561252653599,-1.04032218456268,-0.81768327951431
523,2047011122,-0.66590911149979,-0.44972553849220,11.03072929382324,0.08390285074711,-0.11805052310228,9.78479576110840,0.26993560791016,-1.05627977848053,-0.79404127597809
524,2047019455,-0.66599732637405,-0.44916167855263,11.03119564056396,0.06267321109772,-0.11492472887039,9.78587627410889,0.20087963342667,-1.00804817676544,-0.79460471868515
525,2047027788,-0.66619986295700,-0.44834825396538,11.03147125244141,0.08702863752842,-0.12146242707968,9.78300762176514,0.18725284934044,-0.97864305973053,-0.81189435720444
526,2047036121,-0.66597718000412,-0.44863381981850,11.03230762481689,0.07367428392172,-0.10541860014200,9.79227733612061,0.23745675384998,-1.10968542098999,-0.75016403198242
527,2047044454,-0.66594308614731,-0.44886103272438,11.03236103057861,0.07073446363211,-0.11296484619379,9.79126167297363,0.21524924039841,-1.10361492633820,-0.84088981151581
528,2047052787,-0.66513568162918,-0.44886541366577,11.03176116943359,0.08328054845333,-0.13045355677605,9.77501106262207,0.30738365650177,-1.07487583160400,-0.90505331754684
529,2047061120,-0.66549587249756,-0.45007830858231,11.03220462799072,0.06793770194054,-0.10912377387285,9.77048301696777,0.16665902733803,-1.22123563289642,-0.79527074098587
530,2047069453,-0.66589647531509,-0.45025974512100,11.03240108489990,0.06436128169298,-0.11544688791037,9.79264926910400,0.16414882242680,-1.09695518016815,-0.84206795692444
531,2047077786,-0.66578048467636,-0.44996058940887,11.03205680847168,0.07813758403063,-0.10685601830482,9.79893779754639,0.22275419533253,-1.03970742225647,-0.88768678903580
532,2047086119,-0.66593593358994,-0.45000499486923,11.03228855133057,0.08252955973148,-0.11642713099718,9.80697727203369,0.19263184070587,-1.08010101318359,-0.83415305614471
533,2047094452,-0.66617321968079,-0.45028656721115,11.03277683258057,0.07563421875238,-0.10124879330397,9.78124046325684,0.18323142826557,-1.10989034175873,-0.78866225481033
534,2047102785,-0.66575151681900,-0.45064336061478,11.03223800659180,0.08193590492010,-0.10079105943441,9.77182102203369,0.25912639498711,-1.11752343177795,-0.92418712377548
535,2047111118,-0.66583710908890,-0.45142358541489,11.03155612945557,0.08027635514736,-0.10647007077932,9.80431556701660,0.20077718794346,-1.16729187965393,-0.92961734533310
536,2047119451,-0.66500800848007,-0.45148035883904,11.03087902069092,0.08594141155481,-0.10132002085447,9.77465343475342,0.31043171882629,-1.08076715469360,-0.93896663188934
537,2047127784,-0.66570222377777,-0.45140361785889,11.03076457977295,0.06826673448086,-0.12091881036758,9.78528213500977,0.12621413171291,-1.06591069698334,-0.86097133159637
538,2047136117,-0.66575270891190,-0.45114231109619,11.03011798858643,0.08491855114698,-0.13094709813595,9.78767108917236,0.20292878150940,-1.04298615455627,-0.95400208234787
539,2047144450,-0.66617864370346,-0.45175960659981,11.02939224243164,0.08614163100719,-0.11224920302629,9.79786491394043,0.15887229144573,-1.14851665496826,-0.93438160419464
540,2047152783,-0.66634237766266,-0.45168253779411,11.02912807464600,0.07486165314913,-0.09847319126129,9.76916694641113,0.19181220233440,-1.06452763080597,-0.87183177471161
541,2047161116,-0.66648578643799,-0.45169499516487,11.02949714660645,0.06666455417871,-0.14056082069874,9.79269218444824,0.19414307177067,-1.07802617549896,-0.80228900909424
542,2047169449,-0.66634345054626,-0.45070299506187,11.02941513061523,0.08209332078695,-0.12480336427689,9.79210758209229,0.22687807679176,-0.95592331886292,-0.85541296005249
543,2047177782,-0.66660904884338,-0.45029467344284,11.02935600280762,0.06317385286093,-0.11439512670040,9.78391647338867,0.17979912459850,-1.02651619911194,-0.85331255197525
544,2047186115,-0.66747903823853,-0.45066672563553,11.02959156036377,0.06748710572720,-0.10466071218252,9.80370807647705,0.10672170668840,-1.12003350257874,-0.81788808107376
545,2047194448,-0.66748094558716,-0.45017153024673,11.02980899810791,0.07240822911263,-0.12968103587627,9.81696891784668,0.21020323038101,-1.01678264141083,-0.81980919837952
546,2047202781,-0.66817951202393,-0.44987154006958,11.03052711486816,0.06646421551704,-0.12244951725006,9.78523254394531,0.12662398815155,-1.03952813148499,-0.76266384124756
547,2047211114,-0.66942864656448,-0.45024356245995,11.03082370758057,0.07894590497017,-0.12118315696716,9.78752899169922,0.06156381219625,-1.12021291255951,-0.81148451566696
548,2047219447,-0.67021507024765,-0.44953674077988,11.03014659881592,0.07424651086330,-0.10099098831415,9.80828571319580,0.11573791503906,-0.98911929130554,-0.93650764226913
549,2047227780,-0.66986030340195,-0.44935393333435,11.03048801422119,0.05971901118755,-0.09973180294037,9.77039813995361,0.25392672419548,-1.05438435077667,-0.80513221025467
550,2047236113,-0.67013472318649,-0.44889971613884,11.03011989593506,0.08636348694563,-0.13699871301651,9.79751396179199,0.17639242112637,-1.01967704296112,-0.89888036251068
551,2047244446,-0.66980314254761,-0.44890928268433,11.02981662750244,0.08218624442816,-0.10582663863897,9.78960990905762,0.24977719783783,-1.07679677009583,-0.88271772861481
552,2047252779,-0.66943681240082,-0.44851383566856,11.02940368652344,0.08183576166630,-0.11878042668104,9.76558303833008,0.25487446784973,-1.02579891681671,-0.90367031097412
553,2047261112,-0.66912138462067,-0.44848906993866,11.02912616729736,0.07771563529968,-0.10458171367645,9.78586196899414,0.24762563407421,-1.07187902927399,-0.88059175014496
554,2047269445,-0.66901594400406,-0.44976416230202,11.02917575836182,0.09800110012293,-0.11482458561659,9.79890155792236,0.22467525303364,-1.22830498218536,-0.83635598421097
555,2047277778,-0.66939020156860,-0.44953286647797,11.02920341491699,0.10011834651232,-0.11629807204008,9.76732158660889,0.16471235454082,-1.04728925228119,-0.84314388036728
556,2047286111,-0.66894418001175,-0.44953849911690,11.02939796447754,0.07791583985090,-0.13323572278023,9.80288600921631,0.26409557461739,-1.07692492008209,-0.82787764072418
557,2047294444,-0.66946971416473,-0.44953429698944,11.02912712097168,0.06270897388458,-0.10598367452621,9.80327129364014,0.14821676909924,-1.07482457160950,-0.87951594591141
558,2047302777,-0.66885054111481,-0.44918626546860,11.02922248840332,0.07373150438070,-0.10736417025328,9.79655551910400,0.28530415892601,-1.03230488300323,-0.83602297306061
559,2047311110,-0.66910833120346,-0.44939887523651,11.02896404266357,0.08669961243868,-0.10456740856171,9.78271484375000,0.17913317680359,-1.10174512863159,-0.87785112857819
560,2047319443,-0.66943866014481,-0.44961747527122,11.02864742279053,0.08871676772833,-0.11090515553951,9.79988098144531,0.17093658447266,-1.10013127326965,-0.86929583549500
561,2047327776,-0.66911327838898,-0.44912785291672,11.02916812896729,0.07895315438509,-0.13093306124210,9.79667663574219,0.25080180168152,-1.01798641681671,-0.78328335285187
562,2047336109,-0.66897577047348,-0.44909641146660,11.02881145477295,0.06910361349583,-0.11193484067917,9.77326583862305,0.22580227255821,-1.06947124004364,-0.90062212944031
563,2047344442,-0.66914057731628,-0.44908013939857,11.02867031097412,0.08780115097761,-0.12420196831226,9.79647636413574,0.19124867022038,-1.07418417930603,-0.86322528123856
564,2047352775,-0.66919898986816,-0.44880202412605,11.02863693237305,0.09054783731699,-0.12022498250008,9.79179859161377,0.20408144593239,-1.04121875762939,-0.84196561574936
565,2047361108,-0.66932970285416,-0.44896727800369,11.02868270874023,0.07323074340820,-0.11952370405197,9.77212905883789,0.19524450600147,-1.09539270401001,-0.84109461307526
566,2047369441,-0.66941136121750,-0.44758772850037,11.02895545959473,0.09410995244980,-0.11325096338987,9.77898025512695,0.19988067448139,-0.90938216447830,-0.83018290996552
567,2047377774,-0.66988497972488,-0.44750377535820,11.02899169921875,0.05795953422785,-0.11040443927050,9.78643417358398,0.15433856844902,-1.06516790390015,-0.84196549654007
568,2047386107,-0.66991269588470,-0.44814732670784,11.02864170074463,0.08344506472349,-0.11416652798653,9.77721405029297,0.20712949335575,-1.15276861190796,-0.88786619901657
569,2047394440,-0.66974705457687,-0.44874599575996,11.02890396118164,0.07089189440012,-0.11903078109026,9.79532527923584,0.23028479516506,-1.14695429801941,-0.81655621528625
570,2047402773,-0.67001742124557,-0.44913163781166,11.02878379821777,0.07609903812408,-0.11776408553123,9.77468204498291,0.17851839959621,-1.12085342407227,-0.85341507196426
571,2047411106,-0.67019009590149,-0.44967398047447,11.02944183349609,0.05949019640684,-0.12422342598438,9.77903747558594,0.19076199829578,-1.14300954341888,-0.76753050088882
572,2047419439,-0.67056971788406,-0.44994720816612,11.03003406524658,0.05363921821117,-0.10393825918436,9.81307792663574,0.16427689790726,-1.10781562328339,-0.77844220399857
573,2047427772,-0.67069387435913,-0.45025300979614,11.03004932403564,0.07425366342068,-0.12262118607759,9.79648399353027,0.19731925427914,-1.11168336868286,-0.84537220001221
574,2047436105,-0.67094892263412,-0.44998502731323,11.02983474731445,0.07445394247770,-0.13931591808796,9.77906608581543,0.17854404449463,-1.04372894763947,-0.82931214570999
575,2047444438,-0.67104065418243,-0.44970697164536,11.02928161621094,0.08121337741613,-0.11640536785126,9.81201267242432,0.19993190467358,-1.04021966457367,-0.91299372911453
576,2047452771,-0.67148339748383,-0.44895634055138,11.02958297729492,0.07843807339668,-0.10715673863888,9.77202129364014,0.15787334740162,-0.98683959245682,-0.80444067716599
577,2047461104,-0.67110478878021,-0.44877624511719,11.02960205078125,0.09395258873701,-0.09531878679991,9.79557514190674,0.25684672594070,-1.05269372463226,-0.84427076578140
578,2047469437,-0.67138141393661,-0.44894856214523,11.02933502197266,0.07655687630177,-0.09754332154989,9.78653430938721,0.17636680603027,-1.09649419784546,-0.87539207935333
579,2047477770,-0.67147594690323,-0.44839632511139,11.02989768981934,0.09405976533890,-0.11583975702524,9.77444458007812,0.19995751976967,-1.00968742370605,-0.77849340438843
580,2047486103,-0.67157107591629,-0.44798913598061,11.03040695190430,0.07504762709141,-0.10571902245283,9.81004524230957,0.19880487024784,-1.02733564376831,-0.79048085212708
581,2047494436,-0.67170006036758,-0.44822156429291,11.02970218658447,0.06282342225313,-0.11935949325562,9.76175689697266,0.19478344917297,-1.10156571865082,-0.93184584379196
582,2047502769,-0.67181354761124,-0.44836711883545,11.02998256683350,0.08641342818737,-0.12043926119804,9.75764465332031,0.19816450774670,-1.09277999401093,-0.84140199422836
583,2047511102,-0.67197030782700,-0.44812962412834,11.03009986877441,0.08085573464632,-0.10837987810373,9.78812885284424,0.19206835329533,-1.04705870151520,-0.83246266841888
584,2047519435,-0.67248725891113,-0.44805869460106,11.02985382080078,0.07458274066448,-0.12024675309658,9.78154182434082,0.14765326678753,-1.06626939773560,-0.85208320617676
585,2047527768,-0.67235648632050,-0.44782781600952,11.02972221374512,0.07826647907495,-0.11508239805698,9.77594757080078,0.22695493698120,-1.04874920845032,-0.86158603429794
586,2047536101,-0.67157846689224,-0.44808709621429,11.02934932708740,0.06416815519333,-0.10589783638716,9.78976726531982,0.30315726995468,-1.10448586940765,-0.89129859209061
587,2047544434,-0.67161917686462,-0.44869261980057,11.03004837036133,0.08174978196621,-0.10659852623940,9.80152702331543,0.20736004412174,-1.15007913112640,-0.76286882162094
588,2047552767,-0.67114710807800,-0.44943580031395,11.03022384643555,0.06892479211092,-0.11183469742537,9.76762199401855,0.26655453443527,-1.16503787040710,-0.81645369529724
589,2047561100,-0.67087942361832,-0.44979164004326,11.03061676025391,0.09003283083439,-0.12048964202404,9.79048919677734,0.24337367713451,-1.11719059944153,-0.80026555061340
590,2047569433,-0.67153358459473,-0.44912463426590,11.03062438964844,0.07642813026905,-0.11296484619379,9.79877948760986,0.13202856481075,-0.99536925554276,-0.85208320617676
591,2047577766,-0.67114740610123,-0.45005130767822,11.03040409088135,0.07418929040432,-0.11453132331371,9.77420234680176,0.25674426555634,-1.18686115741730,-0.87421381473541
592,2047586099,-0.67095983028412,-0.45029574632645,11.03079986572266,0.06235841661692,-0.11790001392365,9.80226421356201,0.23343534767628,-1.10412716865540,-0.81422525644302
593,2047594432,-0.67120444774628,-0.45089450478554,11.03139591217041,0.07393178343773,-0.12784992158413,9.79877948760986,0.18143843114376,-1.14808118343353,-0.77621382474899
594,2047602765,-0.67120152711868,-0.45034825801849,11.03130054473877,0.08316610753536,-0.11559709161520,9.77930927276611,0.21217550337315,-1.01025104522705,-0.87311238050461
595,2047611098,-0.67051434516907,-0.45059093832970,11.03160762786865,0.09325161576271,-0.12729914486408,9.76836585998535,0.29270669817924,-1.10481870174408,-0.81007575988770
596,2047619431,-0.67069983482361,-0.45069131255150,11.03136825561523,0.08520466834307,-0.12413758784533,9.78747081756592,0.18855917453766,-1.08714485168457,-0.86189335584641
597,2047627764,-0.67101943492889,-0.44962874054909,11.03200531005859,0.08069121837616,-0.09544038027525,9.78332996368408,0.17252469062805,-0.94836705923080,-0.76914423704147
598,2047636097,-0.67078775167465,-0.44926467537880,11.03242588043213,0.09066228568554,-0.11817211657763,9.79023933410645,0.23907047510147,-1.03294527530670,-0.79227393865585
599,2047644430,-0.67091917991638,-0.44867599010468,11.03237915039062,0.07805182039738,-0.11566862463951,9.78194904327393,0.19404064118862,-1.00361692905426,-0.85200631618500
600,2047652763,-0.67123740911484,-0.44805219769478,11.03275394439697,0.07296604663134,-0.11154087632895,9.79125404357910,0.17280645668507,-1.00159347057343,-0.81435340642929
601,2047661096,-0.67162990570068,-0.44846829771996,11.03237724304199,0.06753714382648,-0.13307149708271,9.75795173645020,0.16373899579048,-1.12482345104218,-0.89278411865234
602,2047669429,-0.67165911197662,-0.44850805401802,11.03227519989014,0.06501212716103,-0.11513900011778,9.79959583282471,0.20720636844635,-1.08015239238739,-0.86716997623444
603,2047677762,-0.67144882678986,-0.44895383715630,11.03262996673584,0.08930324763060,-0.13192702829838,9.80750656127930,0.23502339422703,-1.12869107723236,-0.80554205179214
604,2047686095,-0.67151629924774,-0.44810572266579,11.03246879577637,0.09425301104784,-0.10177779942751,9.78598308563232,0.20285192131996,-0.97244435548782,-0.86993634700775
605,2047694428,-0.67171007394791,-0.44821536540985,11.03260326385498,0.08024774491787,-0.09677081555128,9.79806423187256,0.18732972443104,-1.08957839012146,-0.83033668994904
606,2047702761,-0.67184662818909,-0.44812679290771,11.03312301635742,0.06518385559320,-0.11076177656651,9.80488777160645,0.19498836994171,-1.06493735313416,-0.78904652595520
607,2047711094,-0.67241060733795,-0.44770717620850,11.03379535675049,0.08074844628572,-0.11691322177649,9.78534698486328,0.14422093331814,-1.02610611915588,-0.76543015241623
608,2047719427,-0.67179059982300,-0.44766122102737,11.03416538238525,0.07854536920786,-0.11124816536903,9.77798652648926,0.28422835469246,-1.07008588314056,-0.81063926219940
609,2047727760,-0.67221432924271,-0.44727930426598,11.03414916992188,0.08551223576069,-0.10162759572268,9.77797889709473,0.15961509943008,-1.02953851222992,-0.84836894273758
610,2047736093,-0.67210304737091,-0.44694054126740,11.03405094146729,0.07429657876492,-0.11799329519272,9.80759906768799,0.22488015890121,-1.03371357917786,-0.86138111352921
611,2047744426,-0.67169606685638,-0.44694751501083,11.03364944458008,0.09318715333939,-0.10605487972498,9.80887985229492,0.25966432690620,-1.07610511779785,-0.89524310827255
612,2047752759,-0.67010045051575,-0.44763737916946,11.03283786773682,0.08502584695816,-0.11087621748447,9.79160499572754,0.21699097752571,-1.06158185005188,-0.86706745624542
613,2047761092,-0.67086201906204,-0.44716477394104,11.03200435638428,0.07107064872980,-0.10506810992956,9.77921676635742,0.11840181052685,-1.01675713062286,-0.94647169113159
614,2047769425,-0.67013162374496,-0.44679510593414,11.03217411041260,0.09094115346670,-0.11100468039513,9.80470275878906,0.29857233166695,-1.03110098838806,-0.84398895502090
615,2047777758,-0.67043513059616,-0.44644433259964,11.03194904327393,0.07594167441130,-0.12964497506618,9.79057598114014,0.17365172505379,-1.03414916992188,-0.87285637855530
616,2047786091,-0.67018640041351,-0.44581231474876,11.03215026855469,0.05903248488903,-0.10508269816637,9.76443862915039,0.24035118520260,-0.99885261058807,-0.83166861534119
617,2047794424,-0.67075586318970,-0.44548028707504,11.03164291381836,0.07554832845926,-0.12527489662170,9.77769279479980,0.14232549071312,-1.03512251377106,-0.90692329406738
618,2047802757,-0.67050671577454,-0.44492024183273,11.03133678436279,0.08610592037439,-0.12492439895868,9.77641963958740,0.23950590193272,-1.00771522521973,-0.89042758941650
619,2047811090,-0.67081665992737,-0.44529470801353,11.03115749359131,0.07810189574957,-0.11500340700150,9.77592658996582,0.17247343063354,-1.12005925178528,-0.86873227357864
620,2047819423,-0.67097872495651,-0.44549870491028,11.03177547454834,0.05645023658872,-0.12003185600042,9.75175666809082,0.19309289753437,-1.10056674480438,-0.80259639024734
621,2047827756,-0.67102104425430,-0.44607013463974,11.03139781951904,0.08147088438272,-0.11858697980642,9.77414512634277,0.20392774045467,-1.14257407188416,-0.89345014095306
622,2047836089,-0.67100924253464,-0.44536560773849,11.03162097930908,0.07372435182333,-0.11312220990658,9.78953075408936,0.21238045394421,-0.99211627244949,-0.83166867494583
623,2047844422,-0.67111462354660,-0.44564211368561,11.03085422515869,0.06581331044436,-0.11713495850563,9.81749916076660,0.19683259725571,-1.10633003711700,-0.93947887420654
624,2047852755,-0.67140948772430,-0.44621887803078,11.03075313568115,0.07041979581118,-0.11426700651646,9.80236339569092,0.17631560564041,-1.14403426647186,-0.87318933010101
625,2047861088,-0.67082303762436,-0.44569864869118,11.03032302856445,0.08552654087543,-0.12119061499834,9.79206275939941,0.27979707717896,-1.01296615600586,-0.89706170558929
626,2047869421,-0.67101109027863,-0.44566762447357,11.03013515472412,0.06393926590681,-0.10835126787424,9.77407360076904,0.18786758184433,-1.07072615623474,-0.87892681360245
627,2047877754,-0.67124801874161,-0.44530948996544,11.03014469146729,0.08018337190151,-0.12398737668991,9.78226375579834,0.18131035566330,-1.03261220455170,-0.84314376115799
628,2047886087,-0.67134416103363,-0.44532456994057,11.03051090240479,0.06756575405598,-0.11143413931131,9.78066158294678,0.19980381429195,-1.07777011394501,-0.80315989255905
629,2047894420,-0.67140883207321,-0.44531524181366,11.02982425689697,0.07496179640293,-0.12621191143990,9.79164791107178,0.20187857747078,-1.07251918315887,-0.92920768260956
630,2047902753,-0.67144894599915,-0.44561028480530,11.03015327453613,0.09652761369944,-0.12632635235786,9.81547451019287,0.20641233026981,-1.11076128482819,-0.80533719062805
631,2047911086,-0.67154967784882,-0.44571909308434,11.03092479705811,0.07785869389772,-0.13021750748158,9.78149127960205,0.19908663630486,-1.08909165859222,-0.75387805700302
632,2047919419,-0.67199575901031,-0.44531512260437,11.03119087219238,0.06625683605671,-0.12149133533239,9.77566146850586,0.15689997375011,-1.02828335762024,-0.84114581346512
633,2047927752,-0.67188787460327,-0.44582602381706,11.03148841857910,0.07883863151073,-0.12955228984356,9.79039669036865,0.22418858110905,-1.13586330413818,-0.81158709526062
634,2047936085,-0.67203062772751,-0.44574728608131,11.03136444091797,0.08404590189457,-0.12692719697952,9.80809307098389,0.19345150887966,-1.06542408466339,-0.87375277280807
635,2047944418,-0.67208868265152,-0.44570007920265,11.03129959106445,0.05647175759077,-0.13147671520710,9.78223514556885,0.20305682718754,-1.06931746006012,-0.85405540466309
636,2047952751,-0.67179095745087,-0.44510570168495,11.03108119964600,0.09578371793032,-0.11327957361937,9.77679920196533,0.24642175436020,-1.00448787212372,-0.90233832597733
637,2047961084,-0.67110246419907,-0.44578370451927,11.03126335144043,0.06401088088751,-0.11895925551653,9.77407360076904,0.29347509145737,-1.15586793422699,-0.82593095302582
638,2047969417,-0.67057907581329,-0.44560909271240,11.03162860870361,0.08927462995052,-0.12679845094681,9.80898666381836,0.27362406253815,-1.05543446540833,-0.79788339138031
639,2047977750,-0.67031896114349,-0.44536060094833,11.03135585784912,0.08483994752169,-0.10840880125761,9.78739261627197,0.24088905751705,-1.04562425613403,-0.87902927398682
640,2047986083,-0.67039465904236,-0.44631755352020,11.03111648559570,0.06706505268812,-0.12225639075041,9.78803634643555,0.20195543766022,-1.18801379203796,-0.89245116710663
641,2047994416,-0.66999232769012,-0.44642987847328,11.03067684173584,0.08172829449177,-0.11140520125628,9.76868820190430,0.25707727670670,-1.08891236782074,-0.89931577444077
642,2048002749,-0.67050796747208,-0.44638684391975,11.03133583068848,0.08641349524260,-0.11938810348511,9.77140617370605,0.14993290603161,-1.07059812545776,-0.74785876274109
643,2048011082,-0.67018294334412,-0.44660171866417,11.03142356872559,0.06190070137382,-0.11084760725498,9.77390956878662,0.24980282783508,-1.10138654708862,-0.83686828613281
644,2048019415,-0.66978567838669,-0.44695857167244,11.03132057189941,0.06788755208254,-0.10935949534178,9.79443836212158,0.25807622075081,-1.11765146255493,-0.85274904966354
645,2048027748,-0.66926300525665,-0.44742023944855,11.03121566772461,0.07157135009766,-0.13241343200207,9.78287220001221,0.27354720234871,-1.13163685798645,-0.85966491699219
646,2048036081,-0.66923701763153,-0.44730874896049,11.03182125091553,0.07845953106880,-0.11505348235369,9.79320716857910,0.21378920972347,-1.06265771389008,-0.78702294826508
647,2048044414,-0.66836863756180,-0.44741839170456,11.03156566619873,0.08271547406912,-0.11996033042669,9.79616928100586,0.31442752480507,-1.08837437629700,-0.87654459476471
648,2048052747,-0.66813653707504,-0.44741770625114,11.03054523468018,0.08146364986897,-0.12983089685440,9.80093288421631,0.23694446682930,-1.07328760623932,-0.96096920967102
649,2048061080,-0.66717547178268,-0.44743636250496,11.03017044067383,0.08613463491201,-0.12928795814514,9.76104831695557,0.32672238349915,-1.07715547084808,-0.89175951480865
650,2048069413,-0.66718274354935,-0.44700330495834,11.03030395507812,0.07423935830593,-0.10664173215628,9.79895877838135,0.20869196951389,-1.02172613143921,-0.85046941041946
651,2048077746,-0.66771584749222,-0.44726383686066,11.03013420104980,0.08338779211044,-0.09773612767458,9.79682064056396,0.14724342525005,-1.10689353942871,-0.86786139011383
652,2048086079,-0.66774988174438,-0.44787189364433,11.03025627136230,0.07818057388067,-0.11357999593019,9.78610515594482,0.20590002834797,-1.14843988418579,-0.83561319112778
653,2048094412,-0.66739910840988,-0.44892871379852,11.02975940704346,0.07528366893530,-0.10158467292786,9.77923774719238,0.25272285938263,-1.20243453979492,-0.90715372562408
654,2048102745,-0.66789019107819,-0.44887802004814,11.03049087524414,0.08967523276806,-0.10890946537256,9.78900909423828,0.15226380527020,-1.06990659236908,-0.76071721315384
655,2048111078,-0.66808772087097,-0.44966754317284,11.03137111663818,0.07560554891825,-0.10356601327658,9.79436683654785,0.18802128732204,-1.17121100425720,-0.74183946847916
656,2048119411,-0.66841405630112,-0.44852215051651,11.03089809417725,0.08664953708649,-0.11498194932938,9.78089714050293,0.17044992744923,-0.93766021728516,-0.89283531904221
657,2048127744,-0.66803926229477,-0.44910442829132,11.03076553344727,0.08112754672766,-0.11260720342398,9.76951789855957,0.25477197766304,-1.14470016956329,-0.86289232969284
658,2048136077,-0.66784954071045,-0.44907677173615,11.03057098388672,0.07704334706068,-0.12031829357147,9.81040287017822,0.23361462354660,-1.07177639007568,-0.87260013818741
659,2048144410,-0.66680032014847,-0.44819322228432,11.03003406524658,0.08643495291471,-0.11548265069723,9.80647659301758,0.33553364872932,-0.96752649545670,-0.91020178794861
660,2048152743,-0.66677671670914,-0.44805231690407,11.02994728088379,0.07518353313208,-0.11895892769098,9.79539680480957,0.21340499818325,-1.05861055850983,-0.90162104368210
661,2048161076,-0.66749191284180,-0.44792386889458,11.02979660034180,0.07614921033382,-0.12304351478815,9.79609012603760,0.12470290064812,-1.05991697311401,-0.86478775739670
662,2048169409,-0.66775596141815,-0.44756403565407,11.02975463867188,0.07330227643251,-0.11984559893608,9.74882507324219,0.17826226353645,-1.03192067146301,-0.82060319185257
663,2048177742,-0.66783958673477,-0.44805461168289,11.02969741821289,0.06785902380943,-0.12844359874725,9.78382301330566,0.20080283284187,-1.13309705257416,-0.85461902618408
664,2048186075,-0.66801172494888,-0.44798299670219,11.02949523925781,0.07519068568945,-0.11550410836935,9.78153419494629,0.19094130396843,-1.06706333160400,-0.87577623128891
665,2048194408,-0.66801714897156,-0.44797471165657,11.02935695648193,0.08446792513132,-0.10297948122025,9.78797149658203,0.20825652778149,-1.07372307777405,-0.86337900161743
666,2048202741,-0.66774255037308,-0.44845470786095,11.02891826629639,0.06481190770864,-0.12868680059910,9.81397914886475,0.24337367713451,-1.13235414028168,-0.90920287370682
667,2048211074,-0.66840410232544,-0.44814631342888,11.02956676483154,0.09311570972204,-0.13337905704975,9.79831504821777,0.13207980990410,-1.03950250148773,-0.76863199472427
668,2048219407,-0.66823583841324,-0.44828820228577,11.03018856048584,0.08916025608778,-0.11885192990303,9.78332233428955,0.23120689392090,-1.09237015247345,-0.78597283363342
669,2048227740,-0.66820645332336,-0.44850939512253,11.03061676025391,0.07505477964878,-0.12777122855186,9.80882930755615,0.21394288539886,-1.10266709327698,-0.79547566175461
670,2048236073,-0.66874933242798,-0.44806629419327,11.03114795684814,0.07577721774578,-0.11972428858280,9.80399417877197,0.14673113822937,-1.02287864685059,-0.79288858175278
671,2048244406,-0.66790300607681,-0.44851127266884,11.03159713745117,0.09424585849047,-0.12767109274864,9.78504657745361,0.31181487441063,-1.12915229797363,-0.79268366098404
672,2048252739,-0.66824215650558,-0.44778999686241,11.03149223327637,0.07760834693909,-0.11958122998476,9.78042507171631,0.17068046331406,-0.98878633975983,-0.84419405460358
673,2048261072,-0.66773438453674,-0.44761800765991,11.03100585937500,0.08506867289543,-0.10325096547604,9.77589130401611,0.27060160040855,-1.05353915691376,-0.90510463714600
674,2048269405,-0.66779106855392,-0.44704806804657,11.03190898895264,0.07893162220716,-0.11147705465555,9.77805042266846,0.20441439747810,-1.00812506675720,-0.75902652740479
675,2048277738,-0.66790431737900,-0.44651412963867,11.03244781494141,0.08843059837818,-0.11614070832729,9.78668403625488,0.19808769226074,-1.01148045063019,-0.78151595592499
676,2048286071,-0.66779083013535,-0.44576412439346,11.03260993957520,0.06393211334944,-0.10425268858671,9.81557464599609,0.22357383370399,-0.98422694206238,-0.82467591762543
677,2048294404,-0.66809415817261,-0.44604268670082,11.03324794769287,0.06715804338455,-0.13707707822323,9.79058933258057,0.17421519756317,-1.10981357097626,-0.77060419321060
678,2048302737,-0.66758102178574,-0.44590201973915,11.03323364257812,0.06887481361628,-0.11790061742067,9.80909442901611,0.27354723215103,-1.05807268619537,-0.84222161769867
679,2048311070,-0.66705679893494,-0.44657033681870,11.03333091735840,0.07618492841721,-0.10844425112009,9.76970386505127,0.27254825830460,-1.15584218502045,-0.83599740266800
680,2048319403,-0.66620790958405,-0.44696801900864,11.03330135345459,0.07127817720175,-0.13777123391628,9.79833602905273,0.31314679980278,-1.12349152565002,-0.84813851118088
681,2048327736,-0.66564035415649,-0.44707679748535,11.03334617614746,0.06836687028408,-0.12295021861792,9.77006816864014,0.27905428409576,-1.08809280395508,-0.84170943498611
682,2048336069,-0.66625195741653,-0.44650197029114,11.03389453887939,0.06884611397982,-0.10559742152691,9.77029705047607,0.13704895973206,-1.00768959522247,-0.78187447786331
683,2048344402,-0.66587185859680,-0.44685199856758,11.03463745117188,0.07580582797527,-0.10830119252205,9.80422973632812,0.25743585824966,-1.11818933486938,-0.75805330276489
684,2048352735,-0.66653335094452,-0.44657918810844,11.03524494171143,0.08629904687405,-0.11914490163326,9.81238460540771,0.13038927316666,-1.04265308380127,-0.78013277053833
685,2048361068,-0.66701042652130,-0.44714316725731,11.03534698486328,0.06519816070795,-0.11664856225252,9.78551864624023,0.15382628142834,-1.14326572418213,-0.83484476804733
686,2048369401,-0.66648942232132,-0.44703000783920,11.03519821166992,0.08403168618679,-0.11338718235493,9.77466773986816,0.27306053042412,-1.06173563003540,-0.86609417200089
687,2048377734,-0.66609382629395,-0.44636666774750,11.03575611114502,0.07881002128124,-0.12305035442114,9.79733467102051,0.25876781344414,-0.99654734134674,-0.77900570631027
