sep=,
DeviceTag:,Xsens DOT
FirmwareVersion:,3.0.0
AppVersion:,2023.6.0
StartTime: ,2025-03-06_12:39:29_000 PST
© Movella Technologies B. V. 2005-2025

PacketCounter,SampleTimeFine,Euler_X,Euler_Y,Euler_Z,Acc_X,Acc_Y,Acc_Z,Gyr_X,Gyr_Y,Gyr_Z
0,1793179609,-0.64120376110077,-0.42512762546539,11.29684925079346,0.00000000000000,0.00000000000000,0.00000000000000,0.00000000000000,0.00000000000000,0.00000000000000
1,1793187942,-0.64146095514297,-0.42473423480988,11.29707908630371,0.07256559282541,-0.12074714154005,9.77561855316162,0.17734013497829,-1.02718198299408,-0.82014214992523
2,1793196275,-0.64107131958008,-0.42533284425735,11.29742336273193,0.07848814874887,-0.12655524909496,9.78114032745361,0.25679546594620,-1.14116525650024,-0.83771353960037
3,1793204608,-0.64148473739624,-0.42607340216637,11.29664993286133,0.07563415914774,-0.10203530639410,9.77908039093018,0.15733543038368,-1.16237390041351,-0.94216835498810
4,1793212941,-0.64216816425323,-0.42549699544907,11.29624843597412,0.08290149271488,-0.11671323329210,9.81705474853516,0.12575307488441,-1.00067126750946,-0.87124258279800
5,1793221274,-0.64258480072021,-0.42475348711014,11.29617309570312,0.08323763310909,-0.12575413286686,9.78110504150391,0.15807825326920,-0.98315107822418,-0.85779511928558
6,1793229607,-0.64139151573181,-0.42385515570641,11.29607486724854,0.08190005272627,-0.11675585806370,9.80020999908447,0.35266956686974,-0.96260857582092,-0.86870676279068
7,1793237940,-0.64134407043457,-0.42424473166466,11.29549789428711,0.09164930135012,-0.11576126515865,9.80066108703613,0.21281586587429,-1.11903476715088,-0.91844969987869
8,1793246273,-0.64162957668304,-0.42369738221169,11.29570960998535,0.07285170257092,-0.11249991506338,9.78213500976562,0.17421522736549,-1.00581991672516,-0.80579823255539
9,1793254606,-0.64183580875397,-0.42389416694641,11.29469585418701,0.08185707032681,-0.12601128220558,9.78338718414307,0.18312895298004,-1.09498274326324,-0.97111237049103
10,1793262939,-0.64248085021973,-0.42438584566116,11.29475784301758,0.08386712521315,-0.11342297494411,9.80621910095215,0.13120891153812,-1.12897300720215,-0.89701044559479
11,1793271272,-0.64234697818756,-0.42451885342598,11.29480266571045,0.07670716196299,-0.10964624583721,9.79418754577637,0.22390682995319,-1.09037244319916,-0.84306693077087
12,1793279605,-0.64144760370255,-0.42479628324509,11.29478645324707,0.09853030741215,-0.11576843261719,9.77495384216309,0.31616929173470,-1.10335874557495,-0.89987927675247
13,1793287938,-0.64073938131332,-0.42526328563690,11.29417419433594,0.07200767099857,-0.12027505785227,9.79651927947998,0.29214313626289,-1.12789726257324,-0.92311137914658
14,1793296271,-0.64067864418030,-0.42459186911583,11.29402637481689,0.06646421551704,-0.11705627292395,9.78473186492920,0.21678610146046,-0.99001586437225,-0.86665767431259
15,1793304604,-0.64095664024353,-0.42487442493439,11.29359436035156,0.08049093931913,-0.10602658987045,9.76196384429932,0.17418959736824,-1.10720086097717,-0.90049397945404
16,1793312937,-0.64064794778824,-0.42519259452820,11.29355812072754,0.06494781374931,-0.09235750883818,9.78265762329102,0.24598628282547,-1.10901951789856,-0.84534651041031
17,1793321270,-0.64098322391510,-0.42482843995094,11.29397583007812,0.08335208147764,-0.11168448626995,9.81302070617676,0.16817025840282,-1.03025567531586,-0.79826760292053
18,1793329603,-0.64185655117035,-0.42548057436943,11.29333400726318,0.07486165314913,-0.11711350083351,9.76506805419922,0.10372485220432,-1.14651882648468,-0.93950456380844
19,1793337936,-0.64199978113174,-0.42568427324295,11.29272174835205,0.08339492976665,-0.12592546641827,9.75873851776123,0.18930199742317,-1.09667348861694,-0.92211246490479
20,1793346269,-0.64162832498550,-0.42631360888481,11.29231929779053,0.07120662927628,-0.11893066763878,9.77667045593262,0.25244110822678,-1.14603209495544,-0.89493584632874
21,1793354602,-0.64136117696762,-0.42635044455528,11.29202079772949,0.08587703108788,-0.11796468496323,9.78737831115723,0.23986451327801,-1.07766759395599,-0.88466441631317
22,1793362935,-0.64059227705002,-0.42690250277519,11.29123020172119,0.06199368834496,-0.10207106918097,9.78802204132080,0.30149233341217,-1.13604247570038,-0.86471092700958
23,1793371268,-0.64016145467758,-0.42708033323288,11.29111194610596,0.07785877585411,-0.12191337347031,9.79249954223633,0.26045835018158,-1.09523904323578,-0.86294364929199
24,1793379601,-0.64115744829178,-0.42720291018486,11.29241752624512,0.07778716832399,-0.12076144665480,9.79224205017090,0.08950893580914,-1.08448100090027,-0.82915830612183
25,1793387934,-0.64126622676849,-0.42765671014786,11.29263496398926,0.08612732589245,-0.11667686700821,9.77280139923096,0.19437362253666,-1.12794852256775,-0.82311344146729
26,1793396267,-0.64135390520096,-0.42839330434799,11.29160499572754,0.06938264518976,-0.11491080373526,9.77721405029297,0.19708873331547,-1.15776348114014,-0.96271109580994
27,1793404600,-0.64110875129700,-0.42823904752731,11.29201889038086,0.07710056751966,-0.10337317734957,9.78642654418945,0.23796905577183,-1.05671525001526,-0.79931777715683
28,1793412933,-0.64036148786545,-0.42872580885887,11.29241466522217,0.09455343335867,-0.10675618052483,9.77724266052246,0.29885411262512,-1.12812769412994,-0.84785676002502
29,1793421266,-0.64023792743683,-0.42870864272118,11.29214763641357,0.08147095143795,-0.10534023493528,9.79697036743164,0.22254927456379,-1.07031643390656,-0.88069432973862
30,1793429599,-0.64030385017395,-0.42854312062263,11.29284191131592,0.07110647112131,-0.11793635040522,9.79435253143311,0.20067472755909,-1.05236065387726,-0.77047616243362
31,1793437932,-0.64124876260757,-0.42851248383522,11.29287433624268,0.08737197518349,-0.12546086311340,9.76581192016602,0.09550267457962,-1.06988096237183,-0.84493672847748
32,1793446265,-0.64100986719131,-0.42846325039864,11.29373359680176,0.07991864532232,-0.12536758184433,9.78524684906006,0.23817396163940,-1.06411778926849,-0.81110042333603
33,1793454598,-0.64050173759460,-0.42778852581978,11.29316997528076,0.08348082751036,-0.10914523154497,9.78089046478271,0.26862928271294,-0.99206495285034,-0.91550391912460
34,1793462931,-0.64061576128006,-0.42776209115982,11.29297733306885,0.10056897252798,-0.11440972238779,9.79533958435059,0.19355395436287,-1.06670475006104,-0.88069421052933
35,1793471264,-0.63995218276978,-0.42751246690750,11.29306125640869,0.08097733557224,-0.10988912731409,9.77162742614746,0.28801926970482,-1.04288351535797,-0.83884054422379
36,1793479597,-0.64008307456970,-0.42751631140709,11.29314422607422,0.09174236655235,-0.12581135332584,9.82340717315674,0.19452731311321,-1.07123851776123,-0.83361530303955
37,1793487930,-0.63924837112427,-0.42796832323074,11.29232501983643,0.07590597122908,-0.11133400350809,9.79232788085938,0.30625659227371,-1.12659084796906,-0.94708633422852
38,1793496263,-0.63992702960968,-0.42859902977943,11.29178619384766,0.08741489052773,-0.10946711152792,9.78516101837158,0.12772537767887,-1.14595520496368,-0.88574022054672
39,1793504596,-0.63972377777100,-0.42997285723686,11.29149150848389,0.06367468088865,-0.10418152809143,9.82186889648438,0.23143738508224,-1.23709070682526,-0.88615006208420
40,1793512929,-0.63896918296814,-0.42980834841728,11.29168319702148,0.07525496929884,-0.11196315288544,9.81222724914551,0.30049338936806,-1.05151557922363,-0.83968579769135
41,1793521262,-0.63836866617203,-0.43037185072899,11.29160308837891,0.07823788374662,-0.11144877970219,9.77397346496582,0.27972024679184,-1.14119112491608,-0.85922956466675
42,1793529595,-0.63911652565002,-0.43023249506950,11.29138183593750,0.08233633637428,-0.10269305855036,9.77014064788818,0.11783827841282,-1.05243766307831,-0.87198531627655
43,1793537928,-0.63904833793640,-0.43046221137047,11.29196548461914,0.08983255177736,-0.11546834558249,9.77111244201660,0.21745203435421,-1.10174500942230,-0.77915936708450
44,1793546261,-0.63933056592941,-0.42990913987160,11.29241180419922,0.07044119387865,-0.12646226584911,9.78019618988037,0.17444574832916,-1.00356554985046,-0.82562357187271
45,1793554594,-0.63911175727844,-0.43029353022575,11.29194164276123,0.07014077901840,-0.11435250192881,9.81712627410889,0.23389638960361,-1.12005925178528,-0.90541177988052
46,1793562927,-0.63911271095276,-0.43050977587700,11.29250526428223,0.09183534979820,-0.11263582110405,9.78141975402832,0.20851266384125,-1.09672462940216,-0.80331367254257
47,1793571260,-0.63924419879913,-0.43028172850609,11.29282093048096,0.08565529435873,-0.12468835711479,9.80896568298340,0.19227324426174,-1.04575240612030,-0.81117719411850
48,1793579593,-0.63920563459396,-0.43007504940033,11.29272174835205,0.07188607007265,-0.11335109919310,9.79526805877686,0.21348182857037,-1.04506087303162,-0.86950087547302
49,1793587926,-0.63939052820206,-0.42992797493935,11.29277515411377,0.07409629970789,-0.10486067831516,9.80300712585449,0.18671494722366,-1.05597233772278,-0.84153008460999
50,1793596259,-0.64001607894897,-0.42958116531372,11.29282093048096,0.06730829179287,-0.11634843796492,9.80792808532715,0.13435946404934,-1.02969217300415,-0.83822572231293
51,1793604592,-0.64075964689255,-0.42852845788002,11.29256439208984,0.09525440633297,-0.11196345090866,9.79374408721924,0.11737722903490,-0.94642037153244,-0.87813276052475
52,1793612925,-0.64111024141312,-0.42875805497169,11.29379749298096,0.06851703673601,-0.12551063299179,9.78784370422363,0.16722252964973,-1.09841525554657,-0.83430683612823
53,1793621258,-0.64085370302200,-0.42909002304077,11.29433155059814,0.07421074807644,-0.10564033687115,9.80958747863770,0.23996695876122,-1.11291289329529,-0.78589594364166
54,1793629591,-0.64119124412537,-0.42952343821526,11.29481029510498,0.08423187583685,-0.12192020565271,9.78137683868408,0.16717129945755,-1.12326097488403,-0.82913267612457
55,1793637924,-0.64058685302734,-0.42960000038147,11.29428672790527,0.07735799998045,-0.11881587654352,9.77869415283203,0.28051427006721,-1.08220148086548,-0.91168749332428
56,1793646257,-0.64004933834076,-0.43058526515961,11.29401302337646,0.09327298402786,-0.11004614830017,9.77719974517822,0.27236899733543,-1.18903839588165,-0.85992115736008
57,1793654590,-0.64041924476624,-0.43028077483177,11.29408168792725,0.08250088989735,-0.12558245658875,9.78347301483154,0.16499409079552,-1.03614699840546,-0.84030055999756
58,1793662923,-0.64032942056656,-0.43066966533661,11.29390811920166,0.08834476023912,-0.11251422017813,9.80975246429443,0.21944995224476,-1.11780524253845,-0.84378409385681
59,1793671256,-0.63990628719330,-0.43131080269814,11.29410839080811,0.07335947453976,-0.11309328675270,9.77978992462158,0.25797376036644,-1.14979732036591,-0.82605904340744
60,1793679589,-0.64019083976746,-0.43185320496559,11.29401016235352,0.07927495986223,-0.09290827810764,9.77234268188477,0.17600820958614,-1.13711833953857,-0.81601828336716
61,1793687922,-0.64080202579498,-0.43113046884537,11.29357624053955,0.07455408573151,-0.12493155151606,9.78187084197998,0.13287384808064,-0.98573827743530,-0.90003305673599
62,1793696255,-0.64158576726913,-0.43186485767365,11.29326248168945,0.07960394769907,-0.10182038694620,9.77466106414795,0.11550740152597,-1.15825009346008,-0.85589969158173
63,1793704588,-0.64088195562363,-0.43181365728378,11.29239177703857,0.07735799998045,-0.11697759479284,9.79464530944824,0.29204073548317,-1.06639754772186,-0.95256787538528
64,1793712921,-0.64025819301605,-0.43165463209152,11.29255199432373,0.07711479812860,-0.10379490256310,9.80642604827881,0.28386974334717,-1.05061912536621,-0.82823634147644
65,1793721254,-0.63997280597687,-0.43095925450325,11.29257965087891,0.07824494689703,-0.10099098831415,9.80264186859131,0.24181117117405,-0.99080967903137,-0.84452682733536
66,1793729587,-0.64013439416885,-0.43118837475777,11.29225921630859,0.08770821988583,-0.11923819780350,9.78474617004395,0.18917393684387,-1.09800541400909,-0.81102353334427
67,1793737920,-0.63925611972809,-0.43056687712669,11.29200172424316,0.07264427095652,-0.11659849435091,9.79503154754639,0.31281384825706,-0.99805873632431,-0.87887573242188
68,1793746253,-0.63893383741379,-0.43118023872375,11.29141139984131,0.08085573464632,-0.09997528791428,9.77170658111572,0.24724140763283,-1.14295840263367,-0.91137999296188
69,1793754586,-0.63925683498383,-0.43086794018745,11.29099082946777,0.07990446686745,-0.09770100563765,9.78204250335693,0.16832393407822,-1.03645431995392,-0.89862412214279
70,1793762919,-0.65114241838455,-0.42537084221840,11.29358673095703,0.08353090286255,-0.10323698073626,9.80566120147705,0.09081526100636,-1.09675025939941,-0.81553161144257
71,1793771252,-0.65066182613373,-0.42543599009514,11.29330253601074,0.08022628724575,-0.13013167679310,9.79353713989258,0.26578611135483,-1.08153545856476,-0.88271772861481
72,1793779585,-0.65096294879913,-0.42584550380707,11.29414081573486,0.08549077808857,-0.12585426867008,9.79471015930176,0.17403592169285,-1.12018728256226,-0.75431358814240
73,1793787918,-0.65166997909546,-0.42579147219658,11.29385566711426,0.08464674651623,-0.11068309098482,9.81856441497803,0.12285866588354,-1.06657683849335,-0.88379359245300
74,1793796251,-0.65254938602448,-0.42532509565353,11.29418373107910,0.08022624999285,-0.11910170316696,9.80309391021729,0.10359677672386,-1.01527142524719,-0.83264201879501
75,1793804584,-0.65283638238907,-0.42602238059044,11.29384899139404,0.07417497783899,-0.12489578872919,9.76374530792236,0.17503486573696,-1.15745592117310,-0.89032512903214
76,1793812917,-0.65312105417252,-0.42655000090599,11.29456615447998,0.07922489196062,-0.11489611864090,9.77218532562256,0.17562398314476,-1.13427507877350,-0.80756551027298
77,1793821250,-0.65334242582321,-0.42595681548119,11.29448127746582,0.08210748434067,-0.10285072773695,9.81762027740479,0.18271914124489,-1.00231063365936,-0.85889643430710
78,1793829583,-0.65295255184174,-0.42591741681099,11.29452991485596,0.06792347878218,-0.10730011761189,9.79676246643066,0.25589901208878,-1.06667912006378,-0.87705683708191
79,1793837916,-0.65299910306931,-0.42511957883835,11.29494762420654,0.07436811178923,-0.09455343335867,9.80315685272217,0.20300562679768,-0.97872000932693,-0.79826772212982
80,1793846249,-0.65328711271286,-0.42549785971642,11.29522609710693,0.09573365002871,-0.12063269317150,9.79061794281006,0.17493240535259,-1.11596095561981,-0.85510557889938
81,1793854582,-0.65313702821732,-0.42573863267899,11.29453277587891,0.06893909722567,-0.10569755733013,9.76561164855957,0.22610965371132,-1.10064363479614,-0.93317782878876
82,1793862915,-0.65383893251419,-0.42552459239960,11.29453849792480,0.08412454277277,-0.10513934493065,9.75629234313965,0.12600922584534,-1.04659759998322,-0.84153008460999
83,1793871248,-0.65409576892853,-0.42559209465981,11.29486560821533,0.10049028694630,-0.11794322729111,9.76692104339600,0.17854404449463,-1.08112573623657,-0.81048566102982
84,1793879581,-0.65417677164078,-0.42514273524284,11.29517269134521,0.08372396230698,-0.14756999909878,9.78373050689697,0.19888170063496,-1.01703882217407,-0.90305536985397
85,1793887914,-0.65400236845016,-0.42554903030396,11.29641056060791,0.07002639025450,-0.10419572889805,9.78855133056641,0.23051531612873,-1.12377333641052,-0.70165079832077
86,1793896247,-0.65422952175140,-0.42563849687576,11.29663753509521,0.08053386211395,-0.10126995295286,9.79189872741699,0.18346193432808,-1.08261120319366,-0.84952169656754
87,1793904580,-0.65461671352386,-0.42499387264252,11.29697036743164,0.05253763124347,-0.10011118650436,9.78764247894287,0.16192038357258,-0.99675226211548,-0.80820602178574
88,1793912913,-0.65415942668915,-0.42539104819298,11.29579734802246,0.08306586742401,-0.10807191580534,9.81480979919434,0.26227697730064,-1.11624288558960,-1.02515852451324
89,1793921246,-0.65401637554169,-0.42596557736397,11.29610633850098,0.06088500097394,-0.11372304707766,9.78961658477783,0.22728791832924,-1.14334237575531,-0.81332880258560
90,1793929579,-0.65406239032745,-0.42587226629257,11.29662036895752,0.08378119021654,-0.10435254126787,9.78413867950439,0.20362034440041,-1.06032681465149,-0.79860055446625
91,1793937912,-0.65441870689392,-0.42571693658829,11.29751110076904,0.08003316074610,-0.11230678856373,9.77948093414307,0.16809341311455,-1.05266809463501,-0.79063457250595
92,1793946245,-0.65426641702652,-0.42527282238007,11.29708957672119,0.07531235367060,-0.11310821771622,9.77683448791504,0.22646823525429,-1.02072715759277,-0.89918768405914
93,1793954578,-0.65437108278275,-0.42477396130562,11.29742717742920,0.08209311962128,-0.11153400689363,9.80187797546387,0.19690941274166,-1.01399064064026,-0.80797535181046
94,1793962911,-0.65467625856400,-0.42409551143646,11.29786205291748,0.06639984250069,-0.12644796073437,9.78617668151855,0.17267836630344,-0.98881185054779,-0.80833393335342
95,1793971244,-0.65491968393326,-0.42459595203400,11.29813671112061,0.08478979766369,-0.11714211106300,9.79711341857910,0.18046508729458,-1.13476169109344,-0.81627434492111
96,1793979577,-0.65450000762939,-0.42315566539764,11.29853153228760,0.09247910976410,-0.12196312844753,9.79499626159668,0.25856289267540,-0.89813756942749,-0.80841082334518
97,1793987910,-0.65539520978928,-0.42335817217827,11.29812812805176,0.08212182670832,-0.10328023135662,9.79360866546631,0.10226482897997,-1.09659671783447,-0.89834243059158
98,1793996243,-0.65562272071838,-0.42374640703201,11.29902267456055,0.09045485407114,-0.10676333308220,9.76127052307129,0.18261668086052,-1.11972641944885,-0.75754100084305
99,1794004576,-0.65601813793182,-0.42411407828331,11.29831790924072,0.08401013910770,-0.10714958608150,9.80344295501709,0.16112634539604,-1.11555111408234,-0.93468898534775
100,1794012909,-0.65545904636383,-0.42399728298187,11.29935646057129,0.08285138010979,-0.10334427654743,9.80599021911621,0.27710756659508,-1.05789339542389,-0.77485626935959
101,1794021242,-0.65556108951569,-0.42382320761681,11.29980659484863,0.09225021302700,-0.13642618060112,9.79821491241455,0.19632029533386,-1.05387210845947,-0.79504019021988
102,1794029575,-0.65559947490692,-0.42334255576134,11.30006027221680,0.08433208614588,-0.10606978833675,9.79067516326904,0.20464491844177,-1.01337599754333,-0.82749342918396
103,1794037908,-0.65594011545181,-0.42291548848152,11.30047321319580,0.08051954954863,-0.10905939340591,9.81847190856934,0.16811902821064,-1.02374970912933,-0.79939454793930
104,1794046241,-0.65553361177444,-0.42255145311356,11.30138015747070,0.09006845206022,-0.12470927834511,9.79423618316650,0.26020222902298,-1.02756631374359,-0.76486670970917
105,1794054574,-0.65481758117676,-0.42252287268639,11.30055904388428,0.09632733464241,-0.11729947477579,9.81319999694824,0.29296281933784,-1.06852340698242,-0.94798278808594
106,1794062907,-0.65524476766586,-0.42295202612877,11.30041790008545,0.08850932866335,-0.11429560184479,9.77060508728027,0.15825755894184,-1.12205719947815,-0.86417305469513
107,1794071240,-0.65519654750824,-0.42344400286674,11.30032348632812,0.09333029389381,-0.11046135425568,9.77428150177002,0.21471132338047,-1.13278949260712,-0.86097121238708
108,1794079573,-0.65529710054398,-0.42381814122200,11.29959392547607,0.07138537615538,-0.11117663979530,9.79489612579346,0.19708873331547,-1.11547434329987,-0.90769171714783
109,1794087906,-0.65557533502579,-0.42408883571625,11.29889583587646,0.07714340835810,-0.12310042977333,9.78229236602783,0.17459940910339,-1.10440886020660,-0.93371570110321
110,1794096239,-0.65574550628662,-0.42495754361153,11.29950714111328,0.07056285440922,-0.10679225623608,9.77732849121094,0.18912269175053,-1.17582142353058,-0.78379553556442
111,1794104572,-0.65504562854767,-0.42522630095482,11.29904079437256,0.08270832151175,-0.11000356823206,9.79346561431885,0.29311650991440,-1.10597145557404,-0.90551435947418
112,1794112905,-0.65562671422958,-0.42531993985176,11.29676151275635,0.08275834470987,-0.11032508313656,9.77186393737793,0.13791984319687,-1.08030593395233,-1.01701319217682
113,1794121238,-0.65468573570251,-0.42552518844604,11.29634284973145,0.07233670353889,-0.10240725427866,9.76653480529785,0.32037004828453,-1.09659671783447,-0.90021234750748
114,1794129571,-0.65457552671432,-0.42570948600769,11.29595470428467,0.08304450660944,-0.10549727827311,9.80761337280273,0.22267735004425,-1.09239578247070,-0.88845521211624
115,1794137904,-0.65390622615814,-0.42575320601463,11.29619026184082,0.08079145103693,-0.11257174611092,9.79540348052979,0.28976097702980,-1.07940936088562,-0.82101297378540
116,1794146237,-0.65450316667557,-0.42540597915649,11.29595947265625,0.09465361386538,-0.11022561788559,9.81648254394531,0.13771493732929,-1.02882134914398,-0.86427551507950
117,1794154570,-0.65423363447189,-0.42473852634430,11.29631042480469,0.08300888538361,-0.10089854896069,9.76338195800781,0.24150380492210,-0.99419093132019,-0.80656659603119
118,1794162903,-0.65446013212204,-0.42490479350090,11.29650783538818,0.07414636760950,-0.10501804202795,9.77948856353760,0.18284721672535,-1.09080779552460,-0.84227281808853
119,1794171236,-0.65412950515747,-0.42530116438866,11.29641532897949,0.06546997278929,-0.11343693733215,9.78052520751953,0.24757440388203,-1.12128865718842,-0.86130422353745
120,1794179569,-0.65381258726120,-0.42516267299652,11.29599380493164,0.08176405727863,-0.11291445046663,9.76205730438232,0.24747192859650,-1.05448675155640,-0.93845432996750
121,1794187902,-0.65358096361160,-0.42500510811806,11.29589939117432,0.08318047970533,-0.10052637010813,9.77405261993408,0.23599675297737,-1.05464041233063,-0.86048460006714
122,1794196235,-0.65290385484695,-0.42483717203140,11.29449748992920,0.09257198870182,-0.10943100601435,9.77441787719727,0.28924876451492,-1.04890286922455,-0.96662992238998
123,1794204568,-0.65317338705063,-0.42535805702209,11.29405879974365,0.08672101050615,-0.10727799683809,9.77457523345947,0.17698155343533,-1.13570952415466,-0.90290170907974
124,1794212901,-0.65357559919357,-0.42562493681908,11.29364204406738,0.08217185735703,-0.11262151598930,9.80191230773926,0.16043476760387,-1.10310268402100,-0.89091432094574
125,1794221234,-0.65416640043259,-0.42646062374115,11.29348564147949,0.07513350248337,-0.10774362087250,9.77566146850586,0.13832966983318,-1.17382347583771,-0.86911654472351
126,1794229567,-0.65480065345764,-0.42721018195152,11.29335498809814,0.08298013359308,-0.09177812933922,9.78395175933838,0.13312998414040,-1.15873658657074,-0.88625246286392
127,1794237900,-0.65411144495010,-0.42714169621468,11.29308509826660,0.07381734251976,-0.12347953021526,9.81661891937256,0.29127228260040,-1.06575703620911,-0.88143706321716
128,1794246233,-0.65401512384415,-0.42727670073509,11.29304790496826,0.09003991633654,-0.12021751701832,9.79184246063232,0.21991100907326,-1.08637654781342,-0.86658072471619
129,1794254566,-0.65428268909454,-0.42739456892014,11.29310321807861,0.07891016453505,-0.10489644110203,9.80184078216553,0.17667420208454,-1.08778536319733,-0.84299004077911
130,1794262899,-0.65418028831482,-0.42765149474144,11.29334831237793,0.08216463774443,-0.11915175616741,9.78453922271729,0.22155034542084,-1.10261595249176,-0.83930164575577
131,1794271232,-0.65443581342697,-0.42833548784256,11.29272365570068,0.07710049301386,-0.11159150302410,9.79872989654541,0.17813418805599,-1.15402364730835,-0.92567282915115
132,1794279565,-0.65447372198105,-0.42800766229630,11.29194068908691,0.08151387423277,-0.11487498134375,9.79616165161133,0.20428633689880,-1.03148519992828,-0.91022753715515
133,1794287898,-0.65459358692169,-0.42814052104950,11.29191493988037,0.06745852530003,-0.09838766604662,9.77001094818115,0.19437360763550,-1.08975744247437,-0.85233914852142
134,1794296231,-0.65396583080292,-0.42888310551643,11.29218959808350,0.06589914113283,-0.10684917122126,9.76309394836426,0.28550904989243,-1.16058099269867,-0.81332880258560
135,1794304564,-0.65416455268860,-0.42928060889244,11.29188442230225,0.07624209672213,-0.11794289946556,9.78056240081787,0.18481950461864,-1.12154483795166,-0.88617563247681
136,1794312897,-0.65392136573792,-0.42919805645943,11.29293537139893,0.08742920309305,-0.13186265528202,9.76605510711670,0.23917289078236,-1.05953276157379,-0.83533138036728
137,1794321230,-0.65330469608307,-0.42961007356644,11.29289245605469,0.09408134222031,-0.10164905339479,9.78508949279785,0.28176939487457,-1.12374782562256,-0.85482388734818
138,1794329563,-0.65302580595016,-0.42985841631889,11.29380989074707,0.07434664666653,-0.11922358721495,9.79229927062988,0.24373222887516,-1.10095107555389,-0.79644900560379
139,1794337896,-0.65325272083282,-0.42995825409889,11.29413318634033,0.08917449414730,-0.10314399749041,9.79258537292480,0.18161772191525,-1.08724737167358,-0.81033188104630
140,1794346229,-0.65252506732941,-0.42999342083931,11.29448890686035,0.09203562885523,-0.11327957361937,9.77701377868652,0.29729160666466,-1.07474768161774,-0.82354885339737
141,1794354562,-0.65223693847656,-0.42954513430595,11.29392910003662,0.09157793223858,-0.10951749980450,9.75715732574463,0.24281015992165,-1.01970267295837,-0.91632366180420
142,1794362895,-0.65250957012177,-0.42997461557388,11.29394912719727,0.06707930564880,-0.12325749546289,9.79845142364502,0.17675103247166,-1.12231338024139,-0.80216103792191
143,1794371228,-0.65322268009186,-0.43031910061836,11.29404640197754,0.08323758840561,-0.13678351044655,9.77828025817871,0.12380638718605,-1.11452662944794,-0.83832824230194
144,1794379561,-0.65323120355606,-0.43084955215454,11.29364681243896,0.07159280776978,-0.10455310344696,9.79021072387695,0.20748811960220,-1.13360917568207,-0.85776960849762
145,1794387894,-0.65293520689011,-0.43030598759651,11.29336929321289,0.07149266451597,-0.12857234477997,9.76451778411865,0.24403962492943,-1.00863730907440,-0.88169318437576
146,1794396227,-0.65288800001144,-0.43063327670097,11.29349231719971,0.06999056786299,-0.14683355391026,9.80020332336426,0.21468567848206,-1.11088931560516,-0.84258019924164
147,1794404560,-0.65317785739899,-0.43112298846245,11.29425430297852,0.06680040061474,-0.11519653350115,9.77518272399902,0.17506049573421,-1.13248217105865,-0.75884735584259
148,1794412893,-0.65282613039017,-0.43067443370819,11.29425716400146,0.07808043062687,-0.11515361815691,9.76234340667725,0.25121161341667,-1.01814019680023,-0.85144275426865
149,1794421226,-0.65247744321823,-0.43015179038048,11.29419326782227,0.08624882251024,-0.10762824118137,9.79882144927979,0.25049439072609,-1.01081454753876,-0.85659122467041
150,1794429559,-0.65235358476639,-0.43079832196236,11.29384422302246,0.08220046758652,-0.11505348235369,9.81411552429199,0.22531561553478,-1.14754319190979,-0.87662154436111
151,1794437892,-0.65195369720459,-0.43066591024399,11.29417228698730,0.08597002178431,-0.13582533597946,9.78553295135498,0.25633445382118,-1.05868756771088,-0.80946111679077
152,1794446225,-0.65230923891068,-0.43113398551941,11.29419517517090,0.08554089814425,-0.11393795907497,9.78239250183105,0.16747866570950,-1.12615537643433,-0.83676576614380
153,1794454558,-0.65286779403687,-0.43120634555817,11.29395771026611,0.09141338616610,-0.11839418113232,9.81174087524414,0.14173637330532,-1.08225262165070,-0.87779980897903
154,1794462891,-0.65305078029633,-0.43034175038338,11.29356384277344,0.08578404784203,-0.10765028744936,9.81033897399902,0.18717600405216,-0.96732151508331,-0.85034132003784
155,1794471224,-0.65307176113129,-0.43076458573341,11.29394149780273,0.06316675245762,-0.11099066585302,9.77908802032471,0.20720632374287,-1.12497723102570,-0.80456870794296
156,1794479557,-0.65320408344269,-0.43080091476440,11.29374980926514,0.06901063024998,-0.10471046715975,9.78320121765137,0.19291360676289,-1.07572102546692,-0.87493103742599
157,1794487890,-0.65332698822021,-0.43052375316620,11.29317665100098,0.07704333961010,-0.13116915524006,9.79578971862793,0.19296483695507,-1.03860592842102,-0.91814219951630
158,1794496223,-0.65369760990143,-0.43122830986977,11.29313850402832,0.07097760587931,-0.13001689314842,9.77863121032715,0.16537828743458,-1.15622651576996,-0.86537694931030
159,1794504556,-0.65313988924026,-0.43113085627556,11.29359149932861,0.07510484755039,-0.11790031194687,9.78574752807617,0.27546828985214,-1.06188941001892,-0.79480969905853
160,1794512889,-0.65311807394028,-0.43119424581528,11.29294586181641,0.07397469878197,-0.11908768117428,9.78508186340332,0.21212430298328,-1.07971692085266,-0.83005487918854
161,1794521222,-0.65223801136017,-0.43182930350304,11.29279613494873,0.08286558836699,-0.13424421846867,9.76735782623291,0.31414574384689,-1.14956676959991,-0.86765652894974
162,1794529555,-0.65245646238327,-0.43163529038429,11.29250717163086,0.07077737897635,-0.12273563444614,9.75559043884277,0.18407671153545,-1.04677700996399,-0.86302042007446
163,1794537888,-0.65273249149323,-0.43149533867836,11.29263496398926,0.08019052445889,-0.12341514974833,9.80191230773926,0.17557278275490,-1.05797040462494,-0.83302623033524
164,1794546221,-0.65254086256027,-0.43106231093407,11.29197216033936,0.07342401146889,-0.10431738942862,9.77483177185059,0.23148861527443,-1.01652646064758,-0.94170719385147
165,1794554554,-0.65215188264847,-0.43084794282913,11.29207611083984,0.08974672108889,-0.11781447380781,9.78378772735596,0.25502812862396,-1.04795515537262,-0.83727806806564
166,1794562887,-0.65130227804184,-0.43083465099335,11.29128551483154,0.08070552349091,-0.09586955606937,9.78443145751953,0.31158432364464,-1.06798541545868,-0.93883842229843
167,1794571220,-0.65156888961792,-0.43119981884956,11.29116153717041,0.06225124746561,-0.11434567719698,9.77864456176758,0.17682787775993,-1.11798453330994,-0.86432671546936
168,1794579553,-0.65224725008011,-0.43131235241890,11.29181480407715,0.07423939555883,-0.11829400807619,9.77734947204590,0.12844257056713,-1.08619725704193,-0.78581905364990
169,1794587886,-0.65171259641647,-0.43097549676895,11.29150104522705,0.07531952112913,-0.11858014017344,9.79573249816895,0.27290686964989,-1.03286838531494,-0.88630372285843
170,1794596219,-0.65167766809464,-0.43058288097382,11.29140567779541,0.07938940078020,-0.11412361264229,9.80592536926270,0.21350744366646,-1.02387785911560,-0.82047522068024
171,1794604552,-0.65149992704391,-0.43079760670662,11.29148292541504,0.07187885046005,-0.11807167530060,9.78131294250488,0.23128373920918,-1.09987521171570,-0.84007006883621
172,1794612885,-0.65127658843994,-0.43149712681770,11.29162120819092,0.07639958709478,-0.11511818319559,9.78345870971680,0.23602236807346,-1.15479218959808,-0.83166855573654
173,1794621218,-0.65142834186554,-0.43167966604233,11.29101943969727,0.06668589264154,-0.12246348708868,9.78186416625977,0.19068516790867,-1.09429132938385,-0.92224067449570
174,1794629551,-0.65147238969803,-0.43099233508110,11.29036712646484,0.08958935737610,-0.10520401597023,9.80216979980469,0.20379966497421,-0.98858129978180,-0.88679039478302
175,1794637884,-0.65134769678116,-0.43142300844193,11.29045295715332,0.08851650357246,-0.09748641401529,9.78406620025635,0.22298470139503,-1.12605297565460,-0.83960896730423
176,1794646217,-0.65131229162216,-0.43133750557899,11.29059982299805,0.07669993489981,-0.12066131085157,9.75775814056396,0.21391727030277,-1.06130015850067,-0.83735495805740
177,1794654550,-0.65116864442825,-0.43230140209198,11.29059219360352,0.07418929040432,-0.09968917071819,9.80048179626465,0.22613526880741,-1.18919205665588,-0.85210865736008
178,1794662883,-0.65156030654907,-0.43261861801147,11.29038810729980,0.08654940128326,-0.11631237715483,9.78316497802734,0.16212528944016,-1.10812294483185,-0.85000836849213
179,1794671216,-0.65119010210037,-0.43279439210892,11.29016590118408,0.06732971221209,-0.09793672710657,9.77235031127930,0.25346562266350,-1.09562325477600,-0.87608367204666
180,1794679549,-0.65155905485153,-0.43252569437027,11.29022312164307,0.07446824759245,-0.10061904042959,9.79810714721680,0.16496847569942,-1.03722286224365,-0.84713959693909
181,1794687882,-0.65206861495972,-0.43316170573235,11.29064655303955,0.06491208821535,-0.11623401194811,9.76385974884033,0.14870345592499,-1.15194904804230,-0.79903602600098
182,1794696215,-0.65199255943298,-0.43336170911789,11.29071998596191,0.07984010130167,-0.11549010872841,9.80594730377197,0.21914258599281,-1.09462416172028,-0.82203757762909
183,1794704548,-0.65195530653000,-0.43230542540550,11.29149627685547,0.09334447979927,-0.12874352931976,9.79054546356201,0.21314887702465,-0.94757306575775,-0.75515896081924
184,1794712881,-0.65159958600998,-0.43200901150703,11.29106426239014,0.08534056693316,-0.13145494461060,9.78988170623779,0.25144213438034,-1.03386723995209,-0.91545271873474
185,1794721214,-0.65180605649948,-0.43200817704201,11.29112625122070,0.07804472744465,-0.12497477978468,9.78508186340332,0.18492196500301,-1.07372307777405,-0.84181183576584
186,1794729547,-0.65199446678162,-0.43188068270683,11.29173278808594,0.09009005874395,-0.14128296077251,9.80347919464111,0.18635635077953,-1.05571627616882,-0.89913648366928
187,1794737880,-0.65134555101395,-0.43233516812325,11.29181671142578,0.08301580697298,-0.11477420479059,9.80504608154297,0.28676417469978,-1.12861442565918,-0.83996754884720
188,1794746213,-0.65172845125198,-0.43329340219498,11.29159164428711,0.07474715262651,-0.11271414905787,9.82599735260010,0.16250950098038,-1.18527305126190,-0.87452113628387
189,1794754546,-0.65173846483231,-0.43343830108643,11.29205513000488,0.08780121058226,-0.09025487303734,9.78159904479980,0.20905056595802,-1.09201157093048,-0.79429739713669
190,1794762879,-0.65140056610107,-0.43360412120819,11.29206371307373,0.07772994786501,-0.10576193779707,9.78566837310791,0.25023826956749,-1.09011614322662,-0.85613018274307
191,1794771212,-0.65036183595657,-0.43364888429642,11.29201030731201,0.08575543761253,-0.11455278098583,9.78173446655273,0.33374065160751,-1.07933247089386,-0.85574579238892
192,1794779545,-0.65036761760712,-0.43406939506531,11.29198646545410,0.07513346523046,-0.11814350634813,9.80031013488770,0.20725758373737,-1.12146806716919,-0.85290277004242
193,1794787878,-0.64940762519836,-0.43422695994377,11.29268360137939,0.10954587906599,-0.12351557612419,9.74182891845703,0.32487812638283,-1.09365081787109,-0.76566064357758
194,1794796211,-0.64901202917099,-0.43459749221802,11.29278945922852,0.07775848358870,-0.11940211057663,9.79730701446533,0.25692358613014,-1.11549985408783,-0.79959952831268
195,1794804544,-0.64892345666885,-0.43401157855988,11.29320144653320,0.07777272909880,-0.12325724959373,9.77801418304443,0.21955239772797,-1.00418043136597,-0.79906165599823
196,1794812877,-0.64844000339508,-0.43329229950905,11.29288673400879,0.08014044910669,-0.10854439437389,9.79042530059814,0.26752787828445,-0.98294621706009,-0.88883966207504
197,1794821210,-0.64766079187393,-0.43342635035515,11.29302120208740,0.08644220232964,-0.11463177204132,9.77596187591553,0.30333656072617,-1.09124326705933,-0.83282113075256
198,1794829543,-0.64816820621490,-0.43274781107903,11.29251384735107,0.08250804245472,-0.13522449135780,9.79370117187500,0.14808869361877,-0.98899126052856,-0.88399851322174
199,1794837876,-0.64685231447220,-0.43229198455811,11.29250526428223,0.07597760856152,-0.12126244604588,9.77674198150635,0.36614269018173,-1.01780724525452,-0.85005956888199
200,1794846209,-0.64660972356796,-0.43229752779007,11.29242229461670,0.07102058082819,-0.11175601929426,9.79651260375977,0.23889115452766,-1.07103359699249,-0.86524891853333
201,1794854542,-0.64695435762405,-0.43220427632332,11.29254531860352,0.08675683289766,-0.13090418279171,9.80724906921387,0.16804218292236,-1.06373357772827,-0.83387142419815
202,1794862875,-0.64725375175476,-0.43111792206764,11.29311084747314,0.07117793709040,-0.12792859971523,9.80858612060547,0.17311380803585,-0.94178414344788,-0.77623939514160
203,1794871208,-0.64789658784866,-0.43146497011185,11.29352855682373,0.09256498515606,-0.12548977136612,9.76730728149414,0.13233594596386,-1.11506450176239,-0.80011177062988
204,1794879541,-0.64812999963760,-0.43205067515373,11.29386138916016,0.09848749637604,-0.11505348235369,9.78642654418945,0.18233494460583,-1.14244604110718,-0.81053680181503
205,1794887874,-0.64788073301315,-0.43122309446335,11.29453754425049,0.08898136764765,-0.11884448677301,9.78006744384766,0.23924979567528,-0.97526192665100,-0.76712077856064
206,1794896207,-0.64752030372620,-0.43100830912590,11.29616928100586,0.08363827317953,-0.10556195676327,9.81743431091309,0.25300458073616,-1.04457402229309,-0.82844120264053
207,1794904540,-0.64698362350464,-0.43094784021378,11.29705047607422,0.07365997880697,-0.11950254440308,9.77544021606445,0.27354720234871,-1.06734514236450,-0.74350428581238
208,1794912873,-0.64685791730881,-0.43088904023170,11.29681205749512,0.08183567970991,-0.12207041680813,9.77622699737549,0.22444474697113,-1.06470692157745,-0.87762051820755
209,1794921206,-0.64754515886307,-0.43147000670433,11.29647922515869,0.06862441450357,-0.10657055675983,9.80455207824707,0.12623976171017,-1.14339387416840,-0.89045333862305
210,1794929539,-0.64783996343613,-0.43140149116516,11.29603195190430,0.08453951030970,-0.12874433398247,9.77000427246094,0.17388223111629,-1.06209433078766,-0.88369107246399
211,1794937872,-0.64761185646057,-0.43146696686745,11.29573726654053,0.08674968034029,-0.11280032992363,9.80631160736084,0.23691885173321,-1.08058786392212,-0.88494616746902
212,1794946205,-0.64792162179947,-0.43037617206573,11.29578971862793,0.06987611949444,-0.11545404046774,9.78033924102783,0.17068044841290,-0.93958133459091,-0.88407534360886
213,1794954538,-0.64784443378448,-0.43025135993958,11.29602050781250,0.07879571616650,-0.10376629233360,9.79352283477783,0.21924503147602,-1.05919981002808,-0.82160216569901
214,1794962871,-0.64848339557648,-0.43084946274757,11.29633426666260,0.08657085895538,-0.11168448626995,9.77775764465332,0.13213102519512,-1.14303529262543,-0.81517302989960
215,1794971204,-0.64866954088211,-0.43094673752785,11.29580020904541,0.08091296255589,-0.09604122489691,9.79549694061279,0.18604899942875,-1.08519840240479,-0.91309630870819
216,1794979537,-0.64796161651611,-0.43124142289162,11.29601955413818,0.08921025693417,-0.12473842501640,9.78267192840576,0.29601091146469,-1.10556149482727,-0.78520429134369
217,1794987870,-0.64842885732651,-0.43154120445251,11.29577636718750,0.07207919657230,-0.12793575227261,9.79096126556396,0.15072697401047,-1.10996735095978,-0.87879884243011
218,1794996203,-0.64826184511185,-0.43086606264114,11.29640769958496,0.08113469928503,-0.09965340793133,9.79945182800293,0.23010547459126,-0.98863255977631,-0.88942873477936
219,1795004536,-0.64826011657715,-0.43112552165985,11.29576396942139,0.08257241547108,-0.11080469191074,9.80736351013184,0.20802600681782,-1.10533106327057,-0.92669737339020
220,1795012869,-0.64858508110046,-0.43211436271667,11.29533100128174,0.08741483837366,-0.11679843813181,9.77280139923096,0.17019379138947,-1.18944835662842,-0.85436278581619
221,1795021202,-0.64893025159836,-0.43123596906662,11.29527187347412,0.05827421322465,-0.13159085810184,9.75526905059814,0.16768358647823,-0.96826940774918,-0.85518240928650
222,1795029535,-0.64923787117004,-0.43102812767029,11.29489612579346,0.07642807066441,-0.10462433844805,9.76516151428223,0.17339557409286,-1.04593169689178,-0.86153489351273
223,1795037868,-0.64864110946655,-0.43035832047462,11.29436206817627,0.10241440683603,-0.11518222838640,9.79047489166260,0.28002762794495,-0.99211615324020,-0.91342914104462
224,1795046201,-0.64919620752335,-0.43019279837608,11.29434013366699,0.07814481109381,-0.11591897159815,9.81641101837158,0.14194126427174,-1.05069589614868,-0.87644213438034
225,1795054534,-0.64856284856796,-0.43036234378815,11.29448413848877,0.08418171852827,-0.09526125341654,9.80368709564209,0.28627747297287,-1.09421443939209,-0.83284682035446
226,1795062867,-0.64861047267914,-0.43120405077934,11.29444503784180,0.09499690681696,-0.11247845739126,9.77805805206299,0.20287753641605,-1.17203044891357,-0.85907578468323
227,1795071200,-0.64860635995865,-0.43115949630737,11.29446411132812,0.08010475337505,-0.13273562490940,9.77287197113037,0.20912744104862,-1.06870269775391,-0.84675544500351
228,1795079533,-0.64819967746735,-0.43111976981163,11.29424953460693,0.07132814824581,-0.10509672015905,9.81000995635986,0.25884464383125,-1.06483495235443,-0.88630372285843
229,1795087866,-0.64783161878586,-0.43079710006714,11.29435729980469,0.08657085895538,-0.11722794175148,9.80026054382324,0.25238984823227,-1.03453338146210,-0.83622789382935
230,1795096199,-0.64709079265594,-0.43166407942772,11.29358959197998,0.09320869296789,-0.10698506981134,9.75865936279297,0.29895654320717,-1.17518103122711,-0.87157553434372
231,1795104532,-0.64769911766052,-0.43227458000183,11.29407882690430,0.09196405857801,-0.12257796525955,9.77478218078613,0.13566578924656,-1.14828610420227,-0.79076266288757
232,1795112865,-0.64868748188019,-0.43186494708061,11.29469776153564,0.06823812425137,-0.12252105027437,9.80224132537842,0.09166053682566,-1.02287876605988,-0.78387242555618
233,1795121198,-0.64851433038712,-0.43182530999184,11.29485607147217,0.08235067874193,-0.12767109274864,9.79447364807129,0.23059213161469,-1.06847202777863,-0.83105379343033
234,1795129531,-0.64900541305542,-0.43172931671143,11.29531860351562,0.09170659631491,-0.10645575821400,9.77177047729492,0.15024030208588,-1.06078791618347,-0.78845739364624
235,1795137864,-0.64945393800735,-0.43179064989090,11.29571247100830,0.09714271128178,-0.10621942579746,9.75523376464844,0.15584981441498,-1.08066463470459,-0.80213540792465
236,1795146197,-0.64978879690170,-0.43249213695526,11.29486274719238,0.07742237299681,-0.09994667768478,9.77089118957520,0.16799095273018,-1.15402364730835,-0.89826560020447
237,1795154530,-0.65034049749374,-0.43261581659317,11.29463100433350,0.06364599615335,-0.11558993905783,9.79158401489258,0.14245358109474,-1.08824646472931,-0.87728750705719
238,1795162863,-0.65011936426163,-0.43276610970497,11.29402732849121,0.07260135561228,-0.11258574575186,9.79047489166260,0.23530519008636,-1.08883559703827,-0.92720961570740
239,1795171196,-0.65004956722260,-0.43302240967751,11.29430484771729,0.07466845959425,-0.12207727134228,9.76562690734863,0.21786189079285,-1.10481882095337,-0.81622326374054
240,1795179529,-0.65022289752960,-0.43332579731941,11.29470729827881,0.09204999357462,-0.11132715642452,9.77340888977051,0.18922515213490,-1.10694479942322,-0.80508095026016
241,1795187862,-0.64992213249207,-0.43331214785576,11.29463863372803,0.07858828455210,-0.11267873644829,9.79317855834961,0.24411645531654,-1.07159709930420,-0.85799998044968
242,1795196195,-0.64937180280685,-0.43297958374023,11.29458713531494,0.08541916310787,-0.11349386721849,9.79521846771240,0.27615985274315,-1.03145956993103,-0.85349190235138
243,1795204528,-0.64917820692062,-0.43309700489044,11.29438114166260,0.07279448211193,-0.11986018717289,9.78682041168213,0.23146302998066,-1.08806717395782,-0.87390643358231
244,1795212861,-0.65019011497498,-0.43335989117622,11.29417896270752,0.07810189574957,-0.12260688096285,9.79500293731689,0.08874051272869,-1.10207808017731,-0.85958808660507
245,1795221194,-0.65022540092468,-0.43267443776131,11.29387474060059,0.08378840237856,-0.11511785537004,9.82292747497559,0.20395332574844,-0.99175745248795,-0.88469004631042
246,1795229527,-0.65111064910889,-0.43237116932869,11.29363822937012,0.07657118141651,-0.10510387271643,9.75923919677734,0.10218799114227,-1.03286826610565,-0.89759957790375
247,1795237860,-0.65059852600098,-0.43266412615776,11.29360580444336,0.09918847680092,-0.11787170171738,9.78892326354980,0.27139562368393,-1.10968542098999,-0.85297960042953
248,1795246193,-0.65080022811890,-0.43231216073036,11.29309940338135,0.07458269596100,-0.11749975383282,9.77141284942627,0.18435846269131,-1.02751505374908,-0.91568320989609
249,1795254526,-0.65108728408813,-0.43277359008789,11.29292964935303,0.07500471174717,-0.11385180056095,9.79407310485840,0.17347240447998,-1.12838387489319,-0.87006431818008
250,1795262859,-0.65202528238297,-0.43260660767555,11.29287052154541,0.08010468631983,-0.11961699277163,9.81110382080078,0.09691146016121,-1.05046534538269,-0.86883479356766
251,1795271192,-0.65155512094498,-0.43252015113831,11.29313850402832,0.08365964889526,-0.11225672066212,9.76736450195312,0.26647767424583,-1.06329798698425,-0.81760632991791
252,1795279525,-0.65167450904846,-0.43226283788681,11.29316997528076,0.06790915131569,-0.11733555793762,9.77446746826172,0.19475783407688,-1.04021966457367,-0.89332199096680
253,1795287858,-0.65205025672913,-0.43298166990280,11.29388999938965,0.07310205698013,-0.13968786597252,9.79620456695557,0.16430251300335,-1.16014564037323,-0.76391893625259
254,1795296191,-0.65168577432632,-0.43406492471695,11.29414367675781,0.07538381218910,-0.10959585756063,9.76410293579102,0.25359374284744,-1.20066738128662,-0.89496147632599
255,1795304524,-0.65101689100266,-0.43371731042862,11.29384326934814,0.09158509969711,-0.10904540121555,9.76119136810303,0.28878769278526,-1.03215110301971,-0.88445949554443
256,1795312857,-0.65145933628082,-0.43385025858879,11.29431056976318,0.07826640456915,-0.11865851283073,9.76420974731445,0.15497893095016,-1.08686316013336,-0.84798479080200
257,1795321190,-0.65079885721207,-0.43384367227554,11.29408931732178,0.08594141155481,-0.12533211708069,9.77232170104980,0.28855714201927,-1.07172524929047,-0.87621176242828
258,1795329523,-0.65019911527634,-0.43332859873772,11.29479217529297,0.09220014512539,-0.12621906399727,9.81516647338867,0.28284516930580,-1.00937998294830,-0.81425082683563
259,1795337856,-0.65059500932693,-0.43347445130348,11.29457378387451,0.10150599479675,-0.12402314692736,9.78759956359863,0.16020423173904,-1.09201157093048,-0.87587869167328
260,1795346189,-0.65090900659561,-0.43331915140152,11.29464435577393,0.06825248152018,-0.12312935292721,9.77807235717773,0.17196117341518,-1.05100321769714,-0.86670887470245
261,1795354522,-0.65159040689468,-0.43370321393013,11.29504489898682,0.08438213169575,-0.10635592788458,9.80214118957520,0.12754607200623,-1.12013614177704,-0.80152064561844
262,1795362855,-0.65188395977020,-0.43295660614967,11.29452800750732,0.08473978936672,-0.10898102074862,9.76594829559326,0.17454819381237,-0.98084592819214,-0.90902358293533
263,1795371188,-0.65222871303558,-0.43338888883591,11.29465484619141,0.07097765803337,-0.11022531241179,9.76993274688721,0.16632603108883,-1.12564325332642,-0.83443486690521
264,1795379521,-0.65187978744507,-0.43420103192329,11.29444503784180,0.07987571507692,-0.11275706440210,9.78397369384766,0.25105789303780,-1.16795790195465,-0.88845533132553
265,1795387854,-0.65224784612656,-0.43423572182655,11.29409599304199,0.07875995337963,-0.12209187448025,9.78898048400879,0.16535270214081,-1.07869231700897,-0.89078629016876
266,1795396187,-0.65263223648071,-0.43427410721779,11.29394626617432,0.09395264089108,-0.10709983855486,9.77835845947266,0.16312423348427,-1.07500386238098,-0.86509513854980
267,1795404520,-0.65199333429337,-0.43498027324677,11.29320144653320,0.06534837186337,-0.12327925115824,9.80460166931152,0.28466379642487,-1.15712308883667,-0.93973499536514
268,1795412853,-0.65193486213684,-0.43626618385315,11.29349613189697,0.07897453755140,-0.10738562792540,9.79379463195801,0.21617132425308,-1.22471904754639,-0.83310294151306
269,1795421186,-0.65170669555664,-0.43642100691795,11.29339122772217,0.08609876781702,-0.11588320881128,9.78305816650391,0.23727746307850,-1.09242141246796,-0.86173969507217
270,1795429519,-0.65154606103897,-0.43654680252075,11.29381370544434,0.07864550501108,-0.09997528791428,9.78076171875000,0.22872230410576,-1.08693993091583,-0.80825710296631
271,1795437852,-0.65144717693329,-0.43752694129944,11.29412555694580,0.08115622401237,-0.11933835595846,9.78523254394531,0.22073066234589,-1.19267559051514,-0.81297022104263
272,1795446185,-0.65161591768265,-0.43824988603592,11.29396343231201,0.07994017004967,-0.11285040527582,9.78150558471680,0.18871288001537,-1.15794265270233,-0.85272347927094
273,1795454518,-0.65146464109421,-0.43853831291199,11.29398632049561,0.07132099568844,-0.12437362968922,9.79168415069580,0.22733913362026,-1.10817432403564,-0.84660166501999
274,1795462851,-0.65217077732086,-0.43875977396965,11.29368877410889,0.07960402965546,-0.12253569811583,9.79159832000732,0.12431868910789,-1.09644293785095,-0.90815263986588
275,1795471184,-0.65189015865326,-0.43886882066727,11.29360389709473,0.09150631725788,-0.11379458010197,9.76782226562500,0.24191361665726,-1.08737540245056,-0.85938304662704
276,1795479517,-0.65204554796219,-0.44010850787163,11.29313850402832,0.09120590239763,-0.12196312844753,9.78764247894287,0.19019849598408,-1.21757268905640,-0.93579047918320
277,1795487850,-0.65156519412994,-0.43986475467682,11.29367542266846,0.07457554340363,-0.13440191745758,9.81359291076660,0.26739978790283,-1.04534256458282,-0.78423094749451
278,1795496183,-0.65180855989456,-0.44025111198425,11.29428958892822,0.07303052395582,-0.12403029948473,9.78919506072998,0.18154086172581,-1.11877834796906,-0.79247879981995
279,1795504516,-0.65191495418549,-0.43997162580490,11.29399967193604,0.07988294959068,-0.12167701125145,9.80476665496826,0.19588486850262,-1.03945112228394,-0.88453632593155
280,1795512849,-0.65163528919220,-0.44005516171455,11.29401302337646,0.06438989192247,-0.11955261975527,9.80228424072266,0.24224664270878,-1.08056223392487,-0.84918868541718
281,1795521182,-0.65107393264771,-0.44001278281212,11.29386806488037,0.07675000280142,-0.11108364909887,9.77193546295166,0.27626234292984,-1.06921505928040,-0.86650401353836
282,1795529515,-0.65097278356552,-0.43944665789604,11.29333686828613,0.07984726130962,-0.13272847235203,9.78017520904541,0.22211383283138,-1.00200319290161,-0.91353160142899
283,1795537848,-0.65064358711243,-0.43958854675293,11.29316234588623,0.07869558036327,-0.10505380481482,9.78424549102783,0.24660104513168,-1.09052610397339,-0.87098640203476
284,1795546181,-0.65103840827942,-0.43997272849083,11.29301929473877,0.07780153304338,-0.11778619885445,9.79157638549805,0.16217651963234,-1.11537182331085,-0.87513589859009
285,1795554514,-0.65110063552856,-0.44008365273476,11.29367446899414,0.07951815426350,-0.12711317837238,9.78915214538574,0.20272387564182,-1.08819508552551,-0.77106535434723
286,1795562847,-0.65101939439774,-0.44002255797386,11.29393863677979,0.07888870686293,-0.10799362510443,9.79229927062988,0.21873275935650,-1.06450212001801,-0.83248829841614
287,1795571180,-0.65046977996826,-0.43970558047295,11.29403018951416,0.07832363247871,-0.13064667582512,9.77478885650635,0.27518650889397,-1.03647994995117,-0.83776473999023
288,1795579513,-0.65079998970032,-0.43926888704300,11.29491329193115,0.06622102111578,-0.11414507031441,9.77979564666748,0.17070607841015,-1.01926732063293,-0.80830848217010
289,1795587846,-0.65083903074265,-0.43962663412094,11.29505729675293,0.08725038170815,-0.11216372996569,9.77250003814697,0.20487545430660,-1.11621713638306,-0.83277004957199
290,1795596179,-0.65105873346329,-0.44011205434799,11.29565620422363,0.07381728291512,-0.11416622251272,9.77250099182129,0.18279598653316,-1.13045859336853,-0.81076735258102
291,1795604512,-0.65144145488739,-0.43911221623421,11.29529476165771,0.07480443269014,-0.11387325823307,9.79746341705322,0.16312424838543,-0.95310562849045,-0.89086306095123
292,1795612845,-0.65183305740356,-0.43962872028351,11.29548072814941,0.07750825583935,-0.12114802002907,9.77304363250732,0.16215091943741,-1.13309705257416,-0.83274441957474
293,1795621178,-0.65119093656540,-0.43957725167274,11.29470634460449,0.08537633717060,-0.10761452466249,9.78742122650146,0.28494557738304,-1.06621813774109,-0.94234776496887
294,1795629511,-0.65110099315643,-0.43941327929497,11.29432964324951,0.08288714289665,-0.10591214895248,9.77375221252441,0.22078189253807,-1.05187427997589,-0.88353747129440
295,1795637844,-0.65072566270828,-0.43892180919647,11.29461383819580,0.09880945086479,-0.09443211555481,9.79704856872559,0.25449019670486,-1.01532256603241,-0.81463509798050
296,1795646177,-0.65024739503860,-0.43884375691414,11.29312705993652,0.07395315915346,-0.14530253410339,9.77911758422852,0.26545313000679,-1.06055736541748,-0.92239421606064
297,1795654510,-0.64907997846603,-0.43810224533081,11.29334068298340,0.09313716739416,-0.13330037891865,9.79242801666260,0.34977516531944,-0.98466241359711,-0.82301104068756
298,1795662843,-0.64898711442947,-0.43792304396629,11.29293632507324,0.08325193822384,-0.09404557943344,9.79249954223633,0.21988539397717,-1.04857003688812,-0.87413698434830
299,1795671176,-0.64909601211548,-0.43825665116310,11.29242897033691,0.08983255177736,-0.12350814044476,9.81225585937500,0.19565433263779,-1.11345076560974,-0.91056036949158
300,1795679509,-0.65012454986572,-0.43807113170624,11.29220771789551,0.06447575241327,-0.10669927299023,9.77438163757324,0.08579487353563,-1.04892849922180,-0.87475180625916
301,1795687842,-0.64925318956375,-0.43723961710930,11.29235076904297,0.07637090235949,-0.09968917071819,9.79919433593750,0.31319802999496,-0.97385305166245,-0.83113068342209
302,1795696175,-0.64910441637039,-0.43680533766747,11.29226207733154,0.08757225424051,-0.11993887275457,9.77325153350830,0.22721107304096,-1.01780712604523,-0.85105854272842
303,1795704508,-0.64931499958038,-0.43611887097359,11.29156780242920,0.09951750189066,-0.11230678856373,9.77965259552002,0.18384620547295,-0.99080985784531,-0.93189716339111
304,1795712841,-0.64946562051773,-0.43649089336395,11.29176902770996,0.07677867263556,-0.11364468932152,9.81265640258789,0.19191464781761,-1.11608898639679,-0.83571559190750
305,1795721174,-0.65026235580444,-0.43564805388451,11.29252815246582,0.08014044910669,-0.11251422017813,9.78005313873291,0.11343263834715,-0.97364830970764,-0.75697749853134
306,1795729507,-0.65013533830643,-0.43558105826378,11.29279708862305,0.06725824624300,-0.12772859632969,9.79584693908691,0.22549493610859,-1.06375932693481,-0.79375958442688
307,1795737840,-0.64989262819290,-0.43491801619530,11.29219436645508,0.08139927685261,-0.10918784141541,9.80779266357422,0.23673953115940,-0.99357599020004,-0.92070353031158
308,1795746173,-0.65025770664215,-0.43565383553505,11.29258823394775,0.07049126923084,-0.11835093796253,9.81006717681885,0.16673587262630,-1.16017115116119,-0.79916417598724
309,1795754506,-0.64994519948959,-0.43593332171440,11.29199981689453,0.07865973562002,-0.11950935423374,9.81880855560303,0.24524348974228,-1.10661172866821,-0.92039626836777
310,1795762839,-0.65029197931290,-0.43121734261513,11.29323196411133,0.08702863752842,-0.12161979079247,9.80109024047852,0.18940444290638,-1.00095295906067,-0.83077210187912
311,1795771172,-0.64988213777542,-0.43065384030342,11.29364871978760,0.09853033721447,-0.11202040314674,9.78128433227539,0.25751268863678,-1.00712597370148,-0.79847246408463
312,1795779505,-0.64999169111252,-0.42949309945107,11.29353523254395,0.07614201307297,-0.09858763217926,9.79496765136719,0.19716559350491,-0.93153858184814,-0.87172919511795
313,1795787838,-0.64968693256378,-0.43026378750801,11.29415416717529,0.07467567920685,-0.11380173265934,9.77692031860352,0.24693402647972,-1.16708695888519,-0.77703344821930
314,1795796171,-0.64946192502975,-0.42993596196175,11.29372882843018,0.08050532639027,-0.11544005572796,9.78654098510742,0.23612481355667,-1.03156208992004,-0.90774279832840
315,1795804504,-0.64913260936737,-0.43020588159561,11.29363155364990,0.06875320523977,-0.14021036028862,9.79085445404053,0.24652418494225,-1.10694491863251,-0.86197018623352
316,1795812837,-0.64954692125320,-0.43098706007004,11.29406929016113,0.07177162915468,-0.10569755733013,9.80289936065674,0.16166426241398,-1.16575515270233,-0.77137267589569
317,1795821170,-0.64982855319977,-0.43070161342621,11.29437160491943,0.08979672938585,-0.11620480567217,9.79359436035156,0.17577768862247,-1.03975868225098,-0.81322628259659
318,1795829503,-0.64974027872086,-0.43062430620193,11.29515266418457,0.08115615695715,-0.11855836957693,9.78383731842041,0.21970610320568,-1.06258082389832,-0.76747930049896
319,1795837836,-0.64847928285599,-0.43115213513374,11.29590892791748,0.06712943315506,-0.11898754537106,9.77611923217773,0.36155769228935,-1.13896238803864,-0.75964134931564
320,1795846169,-0.64875382184982,-0.43117529153824,11.29642391204834,0.08556231111288,-0.11144844442606,9.81767749786377,0.17652049660683,-1.07410728931427,-0.78835493326187
321,1795854502,-0.64843773841858,-0.43084940314293,11.29631519317627,0.08185713738203,-0.12174853682518,9.78533935546875,0.24698527157307,-1.03478956222534,-0.86230325698853
322,1795862835,-0.64828002452850,-0.43130654096603,11.29613208770752,0.07393893599510,-0.12383002042770,9.78890895843506,0.22772334516048,-1.12687253952026,-0.88661104440689
323,1795871168,-0.64849978685379,-0.43123337626457,11.29654026031494,0.08252229541540,-0.10843681544065,9.78377342224121,0.18310335278511,-1.06547534465790,-0.80062419176102
324,1795879501,-0.64890611171722,-0.43175002932549,11.29738521575928,0.09640602022409,-0.11552556604147,9.78873729705811,0.16209968924522,-1.13473629951477,-0.74660378694534
325,1795887834,-0.64889824390411,-0.43150162696838,11.29724311828613,0.08406735956669,-0.11889455467463,9.75325870513916,0.20981900393963,-1.04380559921265,-0.86614531278610
326,1795896167,-0.64845037460327,-0.43195793032646,11.29691314697266,0.10209252685308,-0.11545404046774,9.76137065887451,0.26189273595810,-1.12510514259338,-0.88525348901749
327,1795904500,-0.64848977327347,-0.43221014738083,11.29725646972656,0.08931040018797,-0.12939493358135,9.80367183685303,0.20464491844177,-1.10466516017914,-0.80851340293884
328,1795912833,-0.64819639921188,-0.43215343356133,11.29764842987061,0.07637083530426,-0.11862245947123,9.75393199920654,0.24516662955284,-1.06434834003448,-0.81952732801437
329,1795921166,-0.64844250679016,-0.43307143449783,11.29827976226807,0.06966153532267,-0.10929544270039,9.79457378387451,0.18072123825550,-1.18534994125366,-0.77498430013657
330,1795929499,-0.64821887016296,-0.43326079845428,11.29826259613037,0.07062001526356,-0.10153460502625,9.79399490356445,0.23617604374886,-1.09303629398346,-0.85349190235138
331,1795937832,-0.64765280485153,-0.43253302574158,11.29801273345947,0.07627782970667,-0.11011772602797,9.79489612579346,0.27708196640015,-0.98694205284119,-0.87884998321533
332,1795946165,-0.64765495061874,-0.43255138397217,11.29790115356445,0.07355268299580,-0.11212796717882,9.78607654571533,0.20897375047207,-1.07433784008026,-0.84711408615112
333,1795954498,-0.64787298440933,-0.43337202072144,11.29774475097656,0.09682088345289,-0.11230678856373,9.78662014007568,0.18230929970741,-1.17136454582214,-0.86975693702698
334,1795962831,-0.64741045236588,-0.43283846974373,11.29800510406494,0.08471111953259,-0.10699937492609,9.80620479583740,0.26509451866150,-1.00768959522247,-0.80600309371948
335,1795971164,-0.64706605672836,-0.43321758508682,11.29854011535645,0.08861657232046,-0.11883018165827,9.78934478759766,0.25100669264793,-1.12146806716919,-0.78584480285645
336,1795979497,-0.64720255136490,-0.43224787712097,11.29839515686035,0.09072665870190,-0.12293591350317,9.76518249511719,0.19319537281990,-0.95415586233139,-0.84634548425674
337,1795987830,-0.64692670106888,-0.43218398094177,11.29847812652588,0.07045550644398,-0.11522514373064,9.77336597442627,0.24296383559704,-1.06701231002808,-0.83968591690063
338,1795996163,-0.64732223749161,-0.43213245272636,11.29927921295166,0.06754429638386,-0.11105503886938,9.79421615600586,0.16143371164799,-1.06455314159393,-0.77475374937057
339,1796004496,-0.64720332622528,-0.43162256479263,11.29952526092529,0.06773027032614,-0.10501088947058,9.77228546142578,0.22372755408287,-1.01352977752686,-0.81881028413773
340,1796012829,-0.64733862876892,-0.43175640702248,11.29988574981689,0.06757296621799,-0.11278633028269,9.77373790740967,0.19424554705620,-1.08765721321106,-0.81724780797958
341,1796021162,-0.64658653736115,-0.43253564834595,11.30053806304932,0.08229336887598,-0.11197030544281,9.80471038818359,0.29962250590324,-1.16839325428009,-0.77278143167496
342,1796029495,-0.64630848169327,-0.43262165784836,11.30140399932861,0.06592067331076,-0.10739307105541,9.78275775909424,0.24309188127518,-1.08125364780426,-0.79201775789261
343,1796037828,-0.64579367637634,-0.43294870853424,11.30180072784424,0.08230061084032,-0.11489611864090,9.80116176605225,0.27188226580620,-1.11401414871216,-0.80280137062073
344,1796046161,-0.64640796184540,-0.43329361081123,11.30303382873535,0.06883180886507,-0.12419481575489,9.77016162872314,0.13674159348011,-1.11403977870941,-0.72203963994980
345,1796054494,-0.64665275812149,-0.43374383449554,11.30340576171875,0.08687843382359,-0.10391650348902,9.77091979980469,0.17908193171024,-1.12823021411896,-0.80577260255814
346,1796062827,-0.64749056100845,-0.43475145101547,11.30377292633057,0.07255844026804,-0.12495301663876,9.80037498474121,0.10915506631136,-1.19364905357361,-0.78310406208038
347,1796071160,-0.64766740798950,-0.43460360169411,11.30397987365723,0.07157129049301,-0.11396595835686,9.79330825805664,0.18855917453766,-1.05727875232697,-0.82498329877853
348,1796079493,-0.64750611782074,-0.43460446596146,11.30405330657959,0.10350164026022,-0.10858730971813,9.79043197631836,0.22769770026207,-1.07029080390930,-0.88069421052933
349,1796087826,-0.64722537994385,-0.43483647704124,11.30495738983154,0.08721461147070,-0.10677048563957,9.77480316162109,0.24467997252941,-1.10346114635468,-0.74127596616745
350,1796096159,-0.64699232578278,-0.43518823385239,11.30552673339844,0.07722932100296,-0.11905936896801,9.77692794799805,0.23789221048355,-1.11252880096436,-0.79419499635696
351,1796104492,-0.64617276191711,-0.43528750538826,11.30671024322510,0.07846668362617,-0.12305035442114,9.80269908905029,0.30810081958771,-1.08837437629700,-0.70738822221756
352,1796112825,-0.64604389667511,-0.43538734316826,11.30726623535156,0.06458301842213,-0.10511102527380,9.77084827423096,0.22464965283871,-1.08304679393768,-0.82554680109024
353,1796121158,-0.64583909511566,-0.43587157130241,11.30744743347168,0.09318723529577,-0.10596221685410,9.79571819305420,0.23443426191807,-1.13212358951569,-0.82864612340927
354,1796129491,-0.64564895629883,-0.43588438630104,11.30883693695068,0.06116396188736,-0.12620475888252,9.80557537078857,0.23271812498569,-1.07569539546967,-0.68167167901993
355,1796137824,-0.64575362205505,-0.43582955002785,11.30919170379639,0.07695034146309,-0.11227846890688,9.75916004180908,0.19629468023777,-1.06724274158478,-0.80725818872452
356,1796146157,-0.64580023288727,-0.43571439385414,11.30957984924316,0.08313749730587,-0.11003218591213,9.80217742919922,0.20572073757648,-1.05909752845764,-0.80308312177658
357,1796154490,-0.64553457498550,-0.43555763363838,11.30974483489990,0.09041909128428,-0.10320121794939,9.79190540313721,0.24119645357132,-1.05471730232239,-0.83023411035538
358,1796162823,-0.64606732130051,-0.43520677089691,11.30947399139404,0.09041193127632,-0.12709887325764,9.80469512939453,0.14521990716457,-1.02930808067322,-0.86445492506027
359,1796171156,-0.64626967906952,-0.43493014574051,11.30955028533936,0.07716492563486,-0.11652725934982,9.79584693908691,0.18417915701866,-1.04029655456543,-0.84012132883072
360,1796179489,-0.64548313617706,-0.43507426977158,11.31021785736084,0.08702863752842,-0.11173456162214,9.79098320007324,0.30407941341400,-1.09037244319916,-0.74273598194122
361,1796187822,-0.64556950330734,-0.43568041920662,11.31114101409912,0.08019052445889,-0.10774327069521,9.79016780853271,0.20016242563725,-1.14797866344452,-0.73973900079727
362,1796196155,-0.64555615186691,-0.43585106730461,11.31066226959229,0.07671424001455,-0.12399452924728,9.79147624969482,0.21181690692902,-1.09106397628784,-0.84737008810043
363,1796204488,-0.64549022912979,-0.43614655733109,11.31076908111572,0.06531976163387,-0.12616184353828,9.81169795989990,0.21709343791008,-1.10989034175873,-0.83674019575119
364,1796212821,-0.64605712890625,-0.43645915389061,11.31046962738037,0.09669933468103,-0.11433853209019,9.82255554199219,0.14002020657063,-1.10814869403839,-0.89239990711212
365,1796221154,-0.64606887102127,-0.43690147995949,11.30987071990967,0.08764385432005,-0.12037555128336,9.80186271667480,0.20784671604633,-1.12738490104675,-0.92167705297470
366,1796229487,-0.64531040191650,-0.43665310740471,11.31047534942627,0.08349505066872,-0.11852233111858,9.80646991729736,0.29998114705086,-1.04111623764038,-0.79360586404800
367,1796237820,-0.64545273780823,-0.43682405352592,11.31009769439697,0.08526188880205,-0.09799394756556,9.78773593902588,0.19155605137348,-1.09129440784454,-0.90341407060623
368,1796246153,-0.64555275440216,-0.43693959712982,11.30975055694580,0.06545560061932,-0.11644081026316,9.78253650665283,0.19824136793613,-1.08704257011414,-0.89152902364731
369,1796254486,-0.64529705047607,-0.43694475293159,11.30988025665283,0.08239360153675,-0.13284975290298,9.77754974365234,0.23886553943157,-1.07479894161224,-0.83384579420090
370,1796262819,-0.64564234018326,-0.43667367100716,11.31179809570312,0.08694995939732,-0.12322917580605,9.76585483551025,0.16911797225475,-1.03983545303345,-0.66853147745132
371,1796271152,-0.64556801319122,-0.43714344501495,11.31116008758545,0.09576233476400,-0.12739248573780,9.77428150177002,0.21822045743465,-1.12966454029083,-0.92690235376358
372,1796279485,-0.64611357450485,-0.43705311417580,11.31178092956543,0.06141426786780,-0.11718475818634,9.77687072753906,0.14424654841423,-1.06247842311859,-0.75792521238327
373,1796287818,-0.64598697423935,-0.43688824772835,11.31151866912842,0.08376701921225,-0.11682054400444,9.76799392700195,0.22347138822079,-1.05379521846771,-0.88123208284378
374,1796296151,-0.64555066823959,-0.43700715899467,11.31198692321777,0.09332305938005,-0.11553242802620,9.79291534423828,0.26258432865143,-1.08601784706116,-0.79918968677521
375,1796304484,-0.64556699991226,-0.43740871548653,11.31171798706055,0.06331703066826,-0.12450987100601,9.79000282287598,0.20682214200497,-1.12121188640594,-0.88258963823318
376,1796312817,-0.64530801773071,-0.43717285990715,11.31221580505371,0.09102708101273,-0.11226387321949,9.79900169372559,0.24076099693775,-1.04395937919617,-0.76135754585266
377,1796321150,-0.64566850662231,-0.43750527501106,11.31220722198486,0.09289397299290,-0.12006761878729,9.77968883514404,0.16655656695366,-1.11437296867371,-0.85123783349991
378,1796329483,-0.64564979076385,-0.43644505739212,11.31145763397217,0.07154988497496,-0.10305100679398,9.80204868316650,0.21081794798374,-0.94439679384232,-0.86291795969009
379,1796337816,-0.64540386199951,-0.43611258268356,11.31130218505859,0.06053443625569,-0.10832950472832,9.78122711181641,0.23866063356400,-1.03340625762939,-0.86839938163757
380,1796346149,-0.64496636390686,-0.43643012642860,11.31091594696045,0.06287357211113,-0.11143447458744,9.79936599731445,0.26245623826981,-1.10955750942230,-0.89078623056412
381,1796354482,-0.64530986547470,-0.43673217296600,11.31091594696045,0.08155671507120,-0.10243586450815,9.78301525115967,0.16778604686260,-1.11073553562164,-0.84977781772614
382,1796362815,-0.64523637294769,-0.43648639321327,11.31017398834229,0.07592742890120,-0.09992521256208,9.82830619812012,0.21665799617767,-1.04050147533417,-0.93023216724396
383,1796371148,-0.64538812637329,-0.43645808100700,11.30999469757080,0.07851675897837,-0.12295021861792,9.79683399200439,0.19017288088799,-1.06993222236633,-0.87178045511246
384,1796379481,-0.64519792795181,-0.43636113405228,11.30906105041504,0.07664263993502,-0.11872258782387,9.76521873474121,0.23394761979580,-1.05953276157379,-0.84409147500992
385,1796387814,-0.64504176378250,-0.43671408295631,11.30810165405273,0.09018304198980,-0.10765028744936,9.74838066101074,0.22631455957890,-1.11590969562531,-0.96488821506500
386,1796396147,-0.64568936824799,-0.43637308478355,11.30892086029053,0.07112786918879,-0.11151997745037,9.78053283691406,0.13274577260017,-1.03163897991180,-0.76240766048431
387,1796404480,-0.64616447687149,-0.43721753358841,11.30949783325195,0.08697141706944,-0.12595440447330,9.77428150177002,0.15167468786240,-1.17635929584503,-0.78213065862656
388,1796412813,-0.64583337306976,-0.43683436512947,11.30907726287842,0.07212934643030,-0.11576190590858,9.80467319488525,0.24859896302223,-1.02531218528748,-0.85364556312561
389,1796421146,-0.64590823650360,-0.43712472915649,11.30863952636719,0.08319471776485,-0.10086939483881,9.78793621063232,0.20113578438759,-1.10899388790131,-0.90221017599106
390,1796429479,-0.64629817008972,-0.43701711297035,11.31026363372803,0.09189248085022,-0.12543888390064,9.79264831542969,0.16286809742451,-1.05925107002258,-0.73054355382919
391,1796437812,-0.64639830589294,-0.43741768598557,11.31015491485596,0.07918918877840,-0.11282212287188,9.78680610656738,0.19739609956741,-1.12169849872589,-0.86350703239441
392,1796446145,-0.64636111259460,-0.43809986114502,11.31027793884277,0.08983249217272,-0.12607568502426,9.77861690521240,0.21401973068714,-1.15276873111725,-0.84022372961044
393,1796454478,-0.64560037851334,-0.43823042511940,11.30982208251953,0.09815846383572,-0.12227784842253,9.80886554718018,0.29949447512627,-1.08852827548981,-0.90438747406006
394,1796462811,-0.64639109373093,-0.43836393952370,11.30993461608887,0.07166437804699,-0.11260037869215,9.78760719299316,0.11409859359264,-1.08768284320831,-0.88389593362808
395,1796471144,-0.64705568552017,-0.43856987357140,11.31035423278809,0.08092011511326,-0.11286471039057,9.78861522674561,0.13005627691746,-1.09826159477234,-0.79962515830994
396,1796479477,-0.64703613519669,-0.43906378746033,11.31031322479248,0.07776571065187,-0.10106967389584,9.80636882781982,0.21289269626141,-1.13104772567749,-0.82334399223328
397,1796487810,-0.64724713563919,-0.43926164507866,11.30985355377197,0.09405988454819,-0.09564781934023,9.79975986480713,0.18243739008904,-1.09721124172211,-0.90538632869720
398,1796496143,-0.64765650033951,-0.43895137310028,11.30978870391846,0.09052637964487,-0.09542607516050,9.81218433380127,0.16005054116249,-1.03299641609192,-0.88586831092834
399,1796504476,-0.64751183986664,-0.43919399380684,11.31009197235107,0.06605657190084,-0.10654905438423,9.78233528137207,0.22582788765430,-1.10394787788391,-0.81322628259659
400,1796512809,-0.64774715900421,-0.43908020853996,11.31085872650146,0.07886009663343,-0.10476053506136,9.79717731475830,0.18251420557499,-1.05814957618713,-0.76212584972382
401,1796521142,-0.64768332242966,-0.43934935331345,11.31098079681396,0.08188581466675,-0.12350845336914,9.78074741363525,0.21752887964249,-1.10763633251190,-0.83489596843719
402,1796529475,-0.64760214090347,-0.43943935632706,11.31074142456055,0.07433949410915,-0.11369443684816,9.77135562896729,0.21898888051510,-1.08245742321014,-0.83789277076721
403,1796537808,-0.64713358879089,-0.43942487239838,11.31100559234619,0.08896706253290,-0.12143381685019,9.78800773620605,0.26478713750839,-1.07159709930420,-0.81822109222412
404,1796546141,-0.64710259437561,-0.43971586227417,11.31191635131836,0.08059108257294,-0.10192085802555,9.76514720916748,0.21419903635979,-1.10617637634277,-0.77452325820923
405,1796554474,-0.64805757999420,-0.43974849581718,11.31171226501465,0.07578437030315,-0.10166335850954,9.81422996520996,0.09432441741228,-1.07846176624298,-0.87370151281357
406,1796562807,-0.64824485778809,-0.43992087244987,11.31193542480469,0.09219299256802,-0.10862307250500,9.77071189880371,0.18640758097172,-1.09167861938477,-0.88615006208420
407,1796571140,-0.64833122491837,-0.44006621837616,11.31258678436279,0.07200767099857,-0.11385180056095,9.78816509246826,0.20111015439034,-1.08880984783173,-0.82055199146271
408,1796579473,-0.64823591709137,-0.44027203321457,11.31161212921143,0.09132749587297,-0.11744252592325,9.79407310485840,0.21878397464752,-1.09731376171112,-0.96650189161301
409,1796587806,-0.64750224351883,-0.44045469164848,11.31203651428223,0.07675009220839,-0.10953178256750,9.78747081756592,0.29706108570099,-1.09669911861420,-0.79890805482864
410,1796596139,-0.64795958995819,-0.44091281294823,11.31234645843506,0.07210780680180,-0.11141983419657,9.82448673248291,0.15559367835522,-1.12687277793884,-0.83686840534210
411,1796604472,-0.64770895242691,-0.44161215424538,11.31242847442627,0.07431803643703,-0.12463113665581,9.77702045440674,0.23891673982143,-1.15817308425903,-0.84040302038193
412,1796612805,-0.64830124378204,-0.44154644012451,11.31068515777588,0.08137079328299,-0.12318657338619,9.76602649688721,0.13832966983318,-1.06396412849426,-0.87065339088440
413,1796621138,-0.64835494756699,-0.44241604208946,11.31089019775391,0.09289397299290,-0.12782129645348,9.78785037994385,0.20175053179264,-1.17753767967224,-0.82700681686401
414,1796629471,-0.64750587940216,-0.44244363903999,11.31056308746338,0.09365932643414,-0.10856585204601,9.82010936737061,0.31135380268097,-1.07595145702362,-0.82810813188553
415,1796637804,-0.64708566665649,-0.44252768158913,11.31060886383057,0.09453912824392,-0.13077542185783,9.78850841522217,0.26007413864136,-1.08455801010132,-0.84414273500443
416,1796646137,-0.64717102050781,-0.44211560487747,11.31059265136719,0.08051961660385,-0.11784338206053,9.77600479125977,0.19916346669197,-1.02208471298218,-0.84903502464294
417,1796654470,-0.64730703830719,-0.44309890270233,11.31124591827393,0.08722891658545,-0.11634098738432,9.78998184204102,0.19281114637852,-1.19275248050690,-0.77270460128784
418,1796662803,-0.64761704206467,-0.44327133893967,11.31143856048584,0.09105569124222,-0.10585492104292,9.79140472412109,0.17221727967262,-1.09201157093048,-0.85359436273575
419,1796671136,-0.64802086353302,-0.44348061084747,11.31052684783936,0.08563383668661,-0.10245016962290,9.77241420745850,0.16079334914684,-1.09695518016815,-0.95986783504486
420,1796679469,-0.64709538221359,-0.44317883253098,11.31008815765381,0.08490403741598,-0.11572518944740,9.75741386413574,0.31988334655762,-1.03473830223083,-0.92603141069412
421,1796687802,-0.64671313762665,-0.44282999634743,11.31010246276855,0.09598407894373,-0.13313616812229,9.79083251953125,0.25351688265800,-1.03297078609467,-0.84703719615936
422,1796696135,-0.64609330892563,-0.44316440820694,11.31031894683838,0.06817374378443,-0.12512467801571,9.79830074310303,0.28566274046898,-1.11245191097260,-0.79019916057587
423,1796704468,-0.64608097076416,-0.44441655278206,11.30984020233154,0.07573430240154,-0.11864420771599,9.78138351440430,0.20997270941734,-1.22274661064148,-0.90910041332245
424,1796712801,-0.64540606737137,-0.44477361440659,11.30835533142090,0.08675683289766,-0.12145527452230,9.82036018371582,0.28889015316963,-1.11204195022583,-0.97085630893707
425,1796721134,-0.64556336402893,-0.44422730803490,11.30807876586914,0.08117761462927,-0.10984621196985,9.79568958282471,0.18896901607513,-1.00825321674347,-0.88246154785156
426,1796729467,-0.64577466249466,-0.44501429796219,11.30820178985596,0.08053386211395,-0.12190590053797,9.80714893341064,0.18448650836945,-1.16672837734222,-0.78976368904114
427,1796737800,-0.64573132991791,-0.44527733325958,11.30814361572266,0.08813732862473,-0.13195565342903,9.80412960052490,0.21517236530781,-1.10584330558777,-0.85700100660324
428,1796746133,-0.64487957954407,-0.44513919949532,11.30820560455322,0.06770166009665,-0.10177779942751,9.78749942779541,0.31081596016884,-1.05402576923370,-0.86314845085144
429,1796754466,-0.64452224969864,-0.44503891468048,11.30795574188232,0.07982564717531,-0.11037520319223,9.78261470794678,0.25236424803734,-1.06142830848694,-0.87984889745712
430,1796762799,-0.64476424455643,-0.44496676325798,11.30731964111328,0.07541242241859,-0.12682706117630,9.77071189880371,0.18008089065552,-1.06155645847321,-0.93643087148666
431,1796771132,-0.64444273710251,-0.44420707225800,11.30668926239014,0.10006827116013,-0.11425951123238,9.76858043670654,0.24719014763832,-0.98171675205231,-0.92423838376999
432,1796779465,-0.64405584335327,-0.44436505436897,11.30726242065430,0.07558417320251,-0.10845170915127,9.77234268188477,0.25618076324463,-1.09060287475586,-0.82798010110855
433,1796787798,-0.64396613836288,-0.44432267546654,11.30750560760498,0.09919562935829,-0.12504599988461,9.80485916137695,0.21924503147602,-1.06962490081787,-0.82006537914276
434,1796796131,-0.64396685361862,-0.44472166895866,11.30715847015381,0.08805872499943,-0.12097637355328,9.76156330108643,0.20951162278652,-1.11936771869659,-0.90087825059891
435,1796804464,-0.64373755455017,-0.44429129362106,11.30712699890137,0.09169944375753,-0.10895210504532,9.77101993560791,0.23676517605782,-1.02262270450592,-0.85287714004517
436,1796812797,-0.64351201057434,-0.44433680176735,11.30727863311768,0.07030536234379,-0.11835839599371,9.78267860412598,0.23679076135159,-1.07669425010681,-0.83013164997101
437,1796821130,-0.64397120475769,-0.44512927532196,11.30702304840088,0.07193613797426,-0.10815814137459,9.78249263763428,0.15259678661823,-1.16800916194916,-0.88164192438126
438,1796829463,-0.64277386665344,-0.44555363059044,11.30740261077881,0.07526221126318,-0.11998894065619,9.77474594116211,0.35423204302788,-1.12231326103210,-0.81878459453583
439,1796837796,-0.64315593242645,-0.44537729024887,11.30696010589600,0.08378124982119,-0.12817893922329,9.76810836791992,0.16225336492062,-1.05338537693024,-0.90190279483795
440,1796846129,-0.64238137006760,-0.44594496488571,11.30678558349609,0.09331598877907,-0.11653411388397,9.79932308197021,0.30162042379379,-1.13886022567749,-0.88000261783600
441,1796854462,-0.64253914356232,-0.44621586799622,11.30726051330566,0.07653541862965,-0.11300776898861,9.77362346649170,0.19096691906452,-1.10597133636475,-0.79375952482224
442,1796862795,-0.64236974716187,-0.44635406136513,11.30734729766846,0.06984043121338,-0.11793641000986,9.79953765869141,0.22915773093700,-1.08832323551178,-0.89560174942017
443,1796871128,-0.64202105998993,-0.44665122032166,11.30720520019531,0.08536202460527,-0.09887374937534,9.77192783355713,0.25180071592331,-1.10994148254395,-0.86709308624268
444,1796879461,-0.64212942123413,-0.44684842228889,11.30678844451904,0.08257957547903,-0.11149851232767,9.78434562683105,0.19598729908466,-1.09462428092957,-0.85098159313202
445,1796887794,-0.64243620634079,-0.44701597094536,11.30696678161621,0.08608446270227,-0.12146242707968,9.78210639953613,0.17293448746204,-1.09444499015808,-0.82841551303864
446,1796896127,-0.64270585775375,-0.44775229692459,11.30718326568604,0.07582728564739,-0.10409532487392,9.81797122955322,0.17744261026382,-1.15973567962646,-0.82554686069489
447,1796904460,-0.64256000518799,-0.44737303256989,11.30729675292969,0.06626393646002,-0.12192020565271,9.79214191436768,0.22634020447731,-1.02864205837250,-0.83517777919769
448,1796912793,-0.64217692613602,-0.44651088118553,11.30723094940186,0.09145624935627,-0.12003185600042,9.77696323394775,0.25600147247314,-0.96865350008011,-0.83261626958847
449,1796921126,-0.64203512668610,-0.44675731658936,11.30757427215576,0.10156314820051,-0.10765714198351,9.80307960510254,0.22680126130581,-1.10438346862793,-0.80841094255447
450,1796929459,-0.64224594831467,-0.44759708642960,11.30780220031738,0.08855929225683,-0.11204896122217,9.76388168334961,0.18359002470970,-1.17172312736511,-0.82585418224335
451,1796937792,-0.64204156398773,-0.44776552915573,11.30776214599609,0.07624930888414,-0.11411646008492,9.77757167816162,0.23315355181694,-1.09454739093781,-0.85387599468231
452,1796946125,-0.64167666435242,-0.44810378551483,11.30772399902344,0.06941834092140,-0.11183469742537,9.76882362365723,0.25379863381386,-1.11201643943787,-0.86156040430069
453,1796954458,-0.64234775304794,-0.44917860627174,11.30833816528320,0.07705757766962,-0.11253567785025,9.78654861450195,0.12939029932022,-1.20394587516785,-0.77695655822754
454,1796962791,-0.64186829328537,-0.44965714216232,11.30821990966797,0.08661377429962,-0.10423838347197,9.80421543121338,0.26578611135483,-1.12823033332825,-0.87088406085968
455,1796971124,-0.64192175865173,-0.44985711574554,11.30858039855957,0.08551945537329,-0.10355200618505,9.76579761505127,0.20351791381836,-1.09887635707855,-0.80654096603394
456,1796979457,-0.64235466718674,-0.44983488321304,11.30788230895996,0.08011899143457,-0.11718502640724,9.78172016143799,0.15851368010044,-1.06836974620819,-0.82764714956284
457,1796987790,-0.64144754409790,-0.44935014843941,11.30797386169434,0.07840221375227,-0.12072540074587,9.77825164794922,0.31734755635262,-1.01516890525818,-0.83820021152496
458,1796996123,-0.64167410135269,-0.44925522804260,11.30777740478516,0.07185745984316,-0.12093311548233,9.77583312988281,0.18282160162926,-1.06040370464325,-0.88330698013306
459,1797004456,-0.64170765876770,-0.44970270991325,11.30755233764648,0.08556946367025,-0.11473160237074,9.75308036804199,0.20469616353512,-1.12810218334198,-0.87672400474548
460,1797012789,-0.64146667718887,-0.45024698972702,11.30764484405518,0.08341652899981,-0.12229247391224,9.78454589843750,0.23809711635113,-1.13583779335022,-0.82137167453766
461,1797021122,-0.64144110679626,-0.44977259635925,11.30811786651611,0.06980459392071,-0.12545371055603,9.80847930908203,0.21186816692352,-1.01826834678650,-0.79232513904572
462,1797029455,-0.64095395803452,-0.44957992434502,11.30776977539062,0.07251552492380,-0.12413758784533,9.77328014373779,0.26914158463478,-1.04800653457642,-0.86614543199539
463,1797037788,-0.64106917381287,-0.44990754127502,11.30815410614014,0.08056962490082,-0.10555450618267,9.78403759002686,0.19570556282997,-1.11409103870392,-0.80392831563950
464,1797046121,-0.64062285423279,-0.44963824748993,11.30903339385986,0.06603504717350,-0.10296517610550,9.77436733245850,0.26430043578148,-1.04144906997681,-0.71870982646942
465,1797054454,-0.64027851819992,-0.44992494583130,11.30880355834961,0.08021913468838,-0.11336540430784,9.78393077850342,0.24939300119877,-1.10789239406586,-0.87813276052475
466,1797062787,-0.64022493362427,-0.45050594210625,11.30687332153320,0.07501894235611,-0.12313584983349,9.76748657226562,0.21591518819332,-1.14055073261261,-0.90141612291336
467,1797071120,-0.63956624269485,-0.45096933841705,11.30634307861328,0.06959725916386,-0.10822286456823,9.78136253356934,0.28773748874664,-1.12969017028809,-0.91391593217850
468,1797079453,-0.63924443721771,-0.45114493370056,11.30615806579590,0.07938940078020,-0.09939590841532,9.79646205902100,0.24688279628754,-1.09185791015625,-0.91045790910721
469,1797087786,-0.63933020830154,-0.45095592737198,11.30622768402100,0.07868848741055,-0.11317973583937,9.80244922637939,0.19931715726852,-1.05146431922913,-0.84081286191940
470,1797096119,-0.63878047466278,-0.45098507404327,11.30715084075928,0.08455383777618,-0.09973236918449,9.81497383117676,0.27708199620247,-1.07526004314423,-0.76945161819458
471,1797104452,-0.63906055688858,-0.45161610841751,11.30674839019775,0.07794453203678,-0.10850862413645,9.79584693908691,0.17403593659401,-1.14856779575348,-0.89857298135757
472,1797112785,-0.63897269964218,-0.45136445760727,11.30700016021729,0.08546932041645,-0.11795037984848,9.77184963226318,0.22001346945763,-1.04083454608917,-0.85948562622070
473,1797121118,-0.63931661844254,-0.45153462886810,11.30716896057129,0.08088430017233,-0.11185584962368,9.80324363708496,0.16752991080284,-1.09557211399078,-0.82897913455963
474,1797129451,-0.64034163951874,-0.45088022947311,11.30768489837646,0.07977565377951,-0.11574730277061,9.76566886901855,0.08745979517698,-0.99380654096603,-0.78571665287018
475,1797137784,-0.64010858535767,-0.45161643624306,11.30753326416016,0.08916734158993,-0.12555384635925,9.76420307159424,0.23689322173595,-1.16206645965576,-0.86865550279617
476,1797146117,-0.64022022485733,-0.45187330245972,11.30856895446777,0.09004714339972,-0.11908768117428,9.78055381774902,0.19655081629753,-1.10389673709869,-0.75723361968994
477,1797154450,-0.63979166746140,-0.45220339298248,11.30939292907715,0.06670019030571,-0.11415194720030,9.76878833770752,0.26104748249054,-1.11347639560699,-0.75152158737183
478,1797162783,-0.64017182588577,-0.45231151580811,11.30895233154297,0.07197196036577,-0.10952468216419,9.79465961456299,0.16348284482956,-1.08304667472839,-0.94075965881348
479,1797171116,-0.64015829563141,-0.45312973856926,11.30838680267334,0.09057644754648,-0.11978150904179,9.80081844329834,0.20943480730057,-1.17146694660187,-0.91852641105652
480,1797179449,-0.63942968845367,-0.45362108945847,11.30882358551025,0.07150696963072,-0.10713528096676,9.80095386505127,0.29798319935799,-1.13143193721771,-0.82908153533936
481,1797187782,-0.63983905315399,-0.45376446843147,11.30949401855469,0.06930384784937,-0.10350136458874,9.79033279418945,0.15982002019882,-1.09152507781982,-0.76937484741211
482,1797196115,-0.63953483104706,-0.45347911119461,11.30984687805176,0.09979646652937,-0.12007477134466,9.78936672210693,0.24675475060940,-1.03742778301239,-0.82244741916656
483,1797204448,-0.63955968618393,-0.45280063152313,11.31008625030518,0.07825925201178,-0.10350879281759,9.76210021972656,0.20720633864403,-0.99311494827271,-0.81968110799789
484,1797212781,-0.63926076889038,-0.45280808210373,11.30966949462891,0.08408874273300,-0.11338654905558,9.77986145019531,0.24514101445675,-1.07164835929871,-0.88822484016418
485,1797221114,-0.63970059156418,-0.45256823301315,11.30937671661377,0.09782227873802,-0.10538998991251,9.79007434844971,0.15564487874508,-1.04495835304260,-0.88474112749100
486,1797229447,-0.63937550783157,-0.45318621397018,11.30888175964355,0.09541892260313,-0.11862990260124,9.79595470428467,0.24701085686684,-1.14587831497192,-0.91358286142349
487,1797237780,-0.63884246349335,-0.45256721973419,11.30932331085205,0.07870988547802,-0.12488863617182,9.76801490783691,0.27390581369400,-0.99898070096970,-0.79619288444519
488,1797246113,-0.63815170526505,-0.45232480764389,11.30948162078857,0.06818804889917,-0.10010403394699,9.79423046112061,0.29188701510429,-1.04249942302704,-0.82549560070038
489,1797254446,-0.63815408945084,-0.45207351446152,11.30949211120605,0.07501186430454,-0.11810059100389,9.80855751037598,0.20969092845917,-1.04536819458008,-0.84760057926178
490,1797262779,-0.63817656040192,-0.45190790295601,11.30990791320801,0.08811587095261,-0.11307214200497,9.75930309295654,0.20569510757923,-1.05041420459747,-0.89613962173462
491,1797271112,-0.63839787244797,-0.45256683230400,11.30969333648682,0.08700717985630,-0.11066163331270,9.77889442443848,0.18338511884212,-1.15363943576813,-0.87603247165680
492,1797279445,-0.63901376724243,-0.45238995552063,11.31110095977783,0.08141365647316,-0.11033975332975,9.79638385772705,0.13564017415047,-1.05036294460297,-0.81345683336258
493,1797287778,-0.63911437988281,-0.45197111368179,11.31115818023682,0.06856714934111,-0.11375166475773,9.78373050689697,0.19685819745064,-1.02344226837158,-0.84258031845093
494,1797296111,-0.63840305805206,-0.45222586393356,11.31071472167969,0.07667838037014,-0.11026074737310,9.79144859313965,0.29414108395576,-1.10187327861786,-0.90067338943481
495,1797304444,-0.63864374160767,-0.45243921875954,11.31059360504150,0.07622075080872,-0.12234970182180,9.77797889709473,0.18074683845043,-1.09979832172394,-0.86440366506577
496,1797312777,-0.63895511627197,-0.45243003964424,11.31048011779785,0.07905327528715,-0.11560456454754,9.79591846466064,0.17249907553196,-1.06913828849792,-0.86742615699768
497,1797321110,-0.63856285810471,-0.45332068204880,11.31025505065918,0.07828070968390,-0.11676301062107,9.79283523559570,0.25574535131454,-1.18155908584595,-0.87790226936340
498,1797329443,-0.63877147436142,-0.45287954807281,11.31050300598145,0.07654263079166,-0.12036117166281,9.76441001892090,0.18522931635380,-1.01770472526550,-0.81168943643570
499,1797337776,-0.63846343755722,-0.45250564813614,11.31022262573242,0.08190720528364,-0.10433136671782,9.77057647705078,0.24416768550873,-1.02912878990173,-0.88287144899368
500,1797346109,-0.63793390989304,-0.45225206017494,11.31042671203613,0.06888902932405,-0.11528237164021,9.79774284362793,0.27336794137955,-1.04126989841461,-0.83317983150482
501,1797354442,-0.63815987110138,-0.45237815380096,11.31014728546143,0.08071983605623,-0.10594791173935,9.78684902191162,0.18246299028397,-1.08888685703278,-0.88317877054214
502,1797362775,-0.63780075311661,-0.45292389392853,11.31006526947021,0.09399558603764,-0.09846638143063,9.77461719512939,0.25256916880608,-1.13555574417114,-0.87964403629303
503,1797371108,-0.63774412870407,-0.45306128263474,11.30999469757080,0.09589094668627,-0.11905875802040,9.76442527770996,0.21506991982460,-1.09067976474762,-0.85820502042770
504,1797379441,-0.63846045732498,-0.45335525274277,11.31031322479248,0.07127092778683,-0.12137658894062,9.78330802917480,0.12416501343250,-1.10689365863800,-0.84122276306152
505,1797387774,-0.63772171735764,-0.45369884371758,11.31051921844482,0.08935331553221,-0.12386578321457,9.78626251220703,0.29729157686234,-1.11578154563904,-0.82531625032425
506,1797396107,-0.63735246658325,-0.45351484417915,11.30948925018311,0.09051922708750,-0.11854406446218,9.79199886322021,0.25351688265800,-1.04775023460388,-0.92177927494049
507,1797404440,-0.63681507110596,-0.45384061336517,11.30995368957520,0.07999739795923,-0.10978183150291,9.78625488281250,0.27403390407562,-1.11304092407227,-0.79468160867691
508,1797412773,-0.63684594631195,-0.45297101140022,11.31034469604492,0.08161393553019,-0.11694898456335,9.79852199554443,0.20556704699993,-0.96847432851791,-0.78909772634506
509,1797421106,-0.63634943962097,-0.45305553078651,11.31066989898682,0.08419611304998,-0.12611892819405,9.78447437286377,0.26909032464027,-1.08402001857758,-0.81092107295990
510,1797429439,-0.63627201318741,-0.45288312435150,11.31096267700195,0.06140715628862,-0.11679877340794,9.78784275054932,0.21827171742916,-1.05113136768341,-0.83832830190659
511,1797437772,-0.63644737005234,-0.45281171798706,11.31127071380615,0.07688596844673,-0.11923103779554,9.77081203460693,0.18861040472984,-1.06626939773560,-0.81217616796494
512,1797446105,-0.63745963573456,-0.45275264978409,11.31094264984131,0.08800140023232,-0.11450242251158,9.77242946624756,0.08930402994156,-1.06511676311493,-0.82190960645676
513,1797454438,-0.63766139745712,-0.45302334427834,11.31068420410156,0.07460415363312,-0.10491789877415,9.78483200073242,0.18328265845776,-1.10607385635376,-0.88102716207504
514,1797462771,-0.63816779851913,-0.45286026597023,11.31110954284668,0.07248690724373,-0.11420229077339,9.78331565856934,0.15041960775852,-1.05143868923187,-0.81750398874283
515,1797471104,-0.63782781362534,-0.45325145125389,11.31091690063477,0.07372443377972,-0.12257860600948,9.79412364959717,0.24911125004292,-1.12195479869843,-0.87265145778656
516,1797479437,-0.63803303241730,-0.45339921116829,11.31022453308105,0.08424612134695,-0.11919464915991,9.82435894012451,0.18510127067566,-1.08750343322754,-0.89273291826248
517,1797487770,-0.63779240846634,-0.45394754409790,11.31091308593750,0.07912474870682,-0.08348082751036,9.81177616119385,0.23827640712261,-1.14080679416656,-0.76809406280518
518,1797496103,-0.63774645328522,-0.45377573370934,11.31036281585693,0.09041902422905,-0.09599800407887,9.79833698272705,0.21535167098045,-1.05097758769989,-0.84470611810684
519,1797504436,-0.63770091533661,-0.45441722869873,11.30984497070312,0.09609837085009,-0.10994599759579,9.79854393005371,0.21401973068714,-1.14972043037415,-0.91330111026764
520,1797512769,-0.63791537284851,-0.45439204573631,11.30938148498535,0.09429592639208,-0.11135546118021,9.78218555450439,0.18302650749683,-1.06880509853363,-0.88020753860474
521,1797521102,-0.63737720251083,-0.45483747124672,11.30953025817871,0.08534056693316,-0.10730694979429,9.78400230407715,0.27418759465218,-1.12751305103302,-0.83236020803452
522,1797529435,-0.63830727338791,-0.45438602566719,11.30994033813477,0.08358103036880,-0.11541167646646,9.78396034240723,0.09814094752073,-1.01716697216034,-0.80997341871262
523,1797537768,-0.63801419734955,-0.45425561070442,11.31031227111816,0.08077698200941,-0.09419550746679,9.76745128631592,0.24514101445675,-1.05940473079681,-0.80482482910156
524,1797546101,-0.63790017366409,-0.45361432433128,11.30956268310547,0.07986149191856,-0.09850180149078,9.80336475372314,0.22183206677437,-0.99375551939011,-0.90092962980270
525,1797554434,-0.63781297206879,-0.45422923564911,11.30914783477783,0.09080534428358,-0.09593392908573,9.76535415649414,0.21868154406548,-1.14795315265656,-0.89993059635162
526,1797562767,-0.63747847080231,-0.45423913002014,11.30857372283936,0.08102025091648,-0.11556848138571,9.78672027587891,0.24964912235737,-1.07198131084442,-0.93279349803925
527,1797571100,-0.63745939731598,-0.45472934842110,11.30833244323730,0.08476840704679,-0.10782945156097,9.79696273803711,0.21045935153961,-1.13209784030914,-0.87887549400330
528,1797579433,-0.63745933771133,-0.45488440990448,11.30895900726318,0.07801605761051,-0.13133335113525,9.78152751922607,0.20997267961502,-1.08973193168640,-0.82692992687225
529,1797587766,-0.63735598325729,-0.45420795679092,11.30851554870605,0.09054776281118,-0.11680562794209,9.76207923889160,0.22106362879276,-0.99219298362732,-0.90177470445633
530,1797596099,-0.63770860433578,-0.45405828952789,11.30867767333984,0.09965340793133,-0.12903013825417,9.77859401702881,0.16817027330399,-1.05382096767426,-0.82390755414963
531,1797604432,-0.63762384653091,-0.45437085628510,11.30857563018799,0.08195019513369,-0.10976070165634,9.79424476623535,0.21847660839558,-1.11217010021210,-0.86212390661240
532,1797612765,-0.63809573650360,-0.45452368259430,11.30798721313477,0.08604149520397,-0.11157687753439,9.77460384368896,0.15249435603619,-1.08952701091766,-0.89163148403168
533,1797621098,-0.63778513669968,-0.45538717508316,11.30832195281982,0.08859518915415,-0.11727833747864,9.78323650360107,0.24747192859650,-1.17835724353790,-0.81104916334152
534,1797629431,-0.63779312372208,-0.45557907223701,11.30762290954590,0.09410995244980,-0.10265760123730,9.78131961822510,0.20697583258152,-1.09211409091949,-0.97613286972046
535,1797637764,-0.63778609037399,-0.45480895042419,11.30828380584717,0.07501186430454,-0.11419513821602,9.75534057617188,0.20938354730606,-0.98345857858658,-0.76855510473251
536,1797646097,-0.63781195878983,-0.45506262779236,11.30825042724609,0.09317293018103,-0.10875182598829,9.77091979980469,0.20692458748817,-1.10138642787933,-0.81624877452850
537,1797654430,-0.63760477304459,-0.45545735955238,11.30817222595215,0.09517572820187,-0.10430990904570,9.78845787048340,0.23504900932312,-1.12172412872314,-0.85935753583908
538,1797662763,-0.63706374168396,-0.45560750365257,11.30869197845459,0.08242212980986,-0.11676986515522,9.78015422821045,0.27403390407562,-1.08973193168640,-0.83023416996002
539,1797671096,-0.63630956411362,-0.45591530203819,11.30901622772217,0.06312375515699,-0.11641937494278,9.79613399505615,0.30041652917862,-1.11137592792511,-0.81079298257828
540,1797679429,-0.63605058193207,-0.45614656805992,11.30927753448486,0.08436055481434,-0.10959555208683,9.80560398101807,0.24032557010651,-1.09967041015625,-0.82767283916473
541,1797687762,-0.63559913635254,-0.45625567436218,11.30937957763672,0.07127816230059,-0.12073314934969,9.78038215637207,0.26273801922798,-1.08645319938660,-0.83755987882614
542,1797696095,-0.63521307706833,-0.45640990138054,11.30945587158203,0.06879604607821,-0.09824429452419,9.76534748077393,0.25643691420555,-1.09044921398163,-0.87920856475830
543,1797704428,-0.63525778055191,-0.45586928725243,11.30961513519287,0.08613447099924,-0.10964564979076,9.78414535522461,0.20392774045467,-1.00861167907715,-0.83033668994904
544,1797712761,-0.63450086116791,-0.45602163672447,11.30975246429443,0.08124208450317,-0.12140553444624,9.77815818786621,0.29944327473640,-1.08957839012146,-0.88210308551788
545,1797721094,-0.63487982749939,-0.45583230257034,11.30959987640381,0.06366030126810,-0.11107649654150,9.79807853698730,0.16312424838543,-1.05174612998962,-0.86706745624542
546,1797729427,-0.63466137647629,-0.45539054274559,11.30985546112061,0.08165685832500,-0.12558960914612,9.78909492492676,0.23622730374336,-1.01801216602325,-0.82308793067932
547,1797737760,-0.63426703214645,-0.45588684082031,11.31001377105713,0.08248650282621,-0.12734889984131,9.78616237640381,0.25666743516922,-1.13409566879272,-0.83102816343307
548,1797746093,-0.63418108224869,-0.45622196793556,11.30974197387695,0.07126384228468,-0.13845790922642,9.79262828826904,0.21978293359280,-1.11142718791962,-0.86386561393738
549,1797754426,-0.63410460948944,-0.45697209239006,11.31062316894531,0.08862366527319,-0.11990281939507,9.75315189361572,0.21988542377949,-1.16596007347107,-0.74406796693802
550,1797762759,-0.65216112136841,-0.41597506403923,11.30445003509521,0.07277302443981,-0.10839418321848,9.81533813476562,0.26778399944305,-1.12344038486481,-0.88650864362717
551,1797771092,-0.65229582786560,-0.41552823781967,11.30430316925049,0.08556231111288,-0.12537503242493,9.78188514709473,0.19222201406956,-1.02044546604156,-0.86658084392548
552,1797779425,-0.65236902236938,-0.41603684425354,11.30467319488525,0.07330948859453,-0.13819292187691,9.79200553894043,0.20282630622387,-1.13419830799103,-0.76437997817993
553,1797787758,-0.65247756242752,-0.41712695360184,11.30499839782715,0.07466131448746,-0.10551125556231,9.80997467041016,0.19849750399590,-1.20929908752441,-0.81158691644669
554,1797796091,-0.65252667665482,-0.41665366292000,11.30505943298340,0.08960366249084,-0.11080469191074,9.78589725494385,0.20482425391674,-1.01737189292908,-0.82923525571823
555,1797804424,-0.65243971347809,-0.41656395792961,11.30549812316895,0.07068439573050,-0.11547549813986,9.79620456695557,0.22101242840290,-1.06588506698608,-0.79644900560379
556,1797812757,-0.65246039628983,-0.41640859842300,11.30611991882324,0.07579861581326,-0.10711354017258,9.78961753845215,0.20838460326195,-1.05615174770355,-0.80641293525696
557,1797821090,-0.65213239192963,-0.41590338945389,11.30636215209961,0.09950327128172,-0.11395937949419,9.79910182952881,0.25064808130264,-1.01634705066681,-0.82016772031784
558,1797829423,-0.65224373340607,-0.41632705926895,11.30661773681641,0.09476807713509,-0.10957469791174,9.79755687713623,0.19780594110489,-1.12441360950470,-0.77987658977509
559,1797837756,-0.65248447656631,-0.41640734672546,11.30687522888184,0.08318035304546,-0.09820108115673,9.79470348358154,0.18205317854881,-1.08829760551453,-0.81796497106552
560,1797846089,-0.65267401933670,-0.41623345017433,11.30629825592041,0.06462600082159,-0.11403094977140,9.79465293884277,0.18684303760529,-1.05210471153259,-0.90561693906784
561,1797854422,-0.65228003263474,-0.41712331771851,11.30641841888428,0.08844498544931,-0.11307962983847,9.78928089141846,0.25797376036644,-1.18383872509003,-0.83638161420822
562,1797862755,-0.65222436189651,-0.41720294952393,11.30536746978760,0.07097772508860,-0.11185645312071,9.78596878051758,0.21873275935650,-1.08384084701538,-0.81432783603668
563,1797871088,-0.65271717309952,-0.41713064908981,11.30558490753174,0.08936041593552,-0.09178499132395,9.79782867431641,0.15121363103390,-1.06803667545319,-0.82298535108566
564,1797879421,-0.65217381715775,-0.41700059175491,11.30560588836670,0.07016947865486,-0.11726401001215,9.77963161468506,0.27605742216110,-1.05789327621460,-0.83914786577225
565,1797887754,-0.65215271711349,-0.41689425706863,11.30605983734131,0.08207172155380,-0.11149851232767,9.77347278594971,0.21266217529774,-1.06524479389191,-0.79424613714218
566,1797896087,-0.65135723352432,-0.41746026277542,11.30620861053467,0.07200767099857,-0.11487466096878,9.80849361419678,0.30761414766312,-1.14147269725800,-0.83302611112595
567,1797904420,-0.65126800537109,-0.41718629002571,11.30574893951416,0.07525499165058,-0.11350814998150,9.78910923004150,0.22044891119003,-1.04413855075836,-0.90372157096863
568,1797912753,-0.65102982521057,-0.41667729616165,11.30617904663086,0.08752926439047,-0.11975263059139,9.79609107971191,0.24027433991432,-1.01304304599762,-0.80600315332413
569,1797921086,-0.65114170312881,-0.41720700263977,11.30602264404297,0.06622810661793,-0.11598302423954,9.80317974090576,0.19703751802444,-1.14029443264008,-0.86855304241180
570,1797929419,-0.65094769001007,-0.41752296686172,11.30597686767578,0.07770848274231,-0.11525376141071,9.77545452117920,0.23407568037510,-1.11237502098083,-0.83709877729416
571,1797937752,-0.65078812837601,-0.41796669363976,11.30575942993164,0.08428195118904,-0.12236368656158,9.77516078948975,0.22926020622253,-1.12986946105957,-0.87585312128067
572,1797946085,-0.65075629949570,-0.41812270879745,11.30511188507080,0.08131352066994,-0.11901615560055,9.80380821228027,0.21396850049496,-1.09108948707581,-0.93141037225723
573,1797954418,-0.65097010135651,-0.41850370168686,11.30488681793213,0.08458236604929,-0.10918814688921,9.77359485626221,0.18469145894051,-1.12295377254486,-0.87646788358688
574,1797962751,-0.65080553293228,-0.41920840740204,11.30497741699219,0.08446785062551,-0.11215625703335,9.78089809417725,0.23005424439907,-1.15883910655975,-0.83635592460632
575,1797971084,-0.65109372138977,-0.41937357187271,11.30436134338379,0.08295872807503,-0.09207888692617,9.79714202880859,0.17626436054707,-1.09654533863068,-0.92282962799072
576,1797979417,-0.65024602413177,-0.41988942027092,11.30452728271484,0.08624888211489,-0.12905842065811,9.78927421569824,0.31227594614029,-1.13468480110168,-0.85700100660324
577,1797987750,-0.64976137876511,-0.41927406191826,11.30346965789795,0.08413889259100,-0.09174951910973,9.79554653167725,0.26734858751297,-1.00195193290710,-0.97505700588226
578,1797996083,-0.65007662773132,-0.41933035850525,11.30256748199463,0.08739343285561,-0.10546866804361,9.77321529388428,0.17293450236320,-1.07897400856018,-0.96639943122864
579,1798004416,-0.64988744258881,-0.41937413811684,11.30271530151367,0.09029756486416,-0.11084076017141,9.77927398681641,0.23330725729465,-1.08220148086548,-0.83184784650803
580,1798012749,-0.65020960569382,-0.41940778493881,11.30347442626953,0.08591274917126,-0.11326497793198,9.79405975341797,0.17185869812965,-1.07789826393127,-0.81343126296997
581,1798021082,-0.65029931068420,-0.41900154948235,11.30326175689697,0.08957498520613,-0.10402349382639,9.78478240966797,0.20029053092003,-1.02841150760651,-0.87429076433182
582,1798029415,-0.64905422925949,-0.41917610168457,11.30354595184326,0.08177140355110,-0.11548294126987,9.76546859741211,0.35981595516205,-1.09449625015259,-0.77903133630753
583,1798037748,-0.64881813526154,-0.41946551203728,11.30293464660645,0.10281496495008,-0.12609031796455,9.76235771179199,0.23871187865734,-1.11240065097809,-0.92247116565704
584,1798046081,-0.64936208724976,-0.41937863826752,11.30308341979980,0.07024806737900,-0.11748544871807,9.79371547698975,0.14542481303215,-1.06206870079041,-0.85472142696381
585,1798054414,-0.64919048547745,-0.42012697458267,11.30306529998779,0.07602041214705,-0.12837922573090,9.78244972229004,0.23048970103264,-1.16780424118042,-0.85172450542450
586,1798062747,-0.64902138710022,-0.41971701383591,11.30365467071533,0.06763727962971,-0.12532496452332,9.77119827270508,0.23210336267948,-1.02318608760834,-0.84565395116806
587,1798071080,-0.64866471290588,-0.41916865110397,11.30356216430664,0.09328737854958,-0.09975355118513,9.79352951049805,0.25249233841896,-1.01242828369141,-0.85884541273117
588,1798079413,-0.64895677566528,-0.41948598623276,11.30318927764893,0.07676436752081,-0.11406670510769,9.76908111572266,0.17664857208729,-1.11078679561615,-0.84503918886185
589,1798087746,-0.64883214235306,-0.41858583688736,11.30238246917725,0.10415254533291,-0.11282179504633,9.77186393737793,0.22398367524147,-0.96883267164230,-0.94426876306534
590,1798096079,-0.64930218458176,-0.41858044266701,11.30145835876465,0.08746496587992,-0.12154110521078,9.78468894958496,0.15449224412441,-1.07251906394958,-0.89032512903214
591,1798104412,-0.64989173412323,-0.41805571317673,11.30150985717773,0.08270832151175,-0.11779301613569,9.74905300140381,0.13978968560696,-1.01429808139801,-0.84168374538422
592,1798112745,-0.64930284023285,-0.41919493675232,11.30121421813965,0.09010436385870,-0.09590531885624,9.75728607177734,0.28166690468788,-1.21027255058289,-0.86919337511063
593,1798121078,-0.64975482225418,-0.41941919922829,11.30110645294189,0.06687192618847,-0.09234320372343,9.79956626892090,0.15474839508533,-1.10358929634094,-0.86232876777649
594,1798129411,-0.65026724338531,-0.41911694407463,11.30132293701172,0.09285821020603,-0.10080501437187,9.79588317871094,0.14975361526012,-1.03686428070068,-0.84001880884171
595,1798137744,-0.64984148740768,-0.41888901591301,11.30132484436035,0.07853113859892,-0.11616963148117,9.76240062713623,0.26227697730064,-1.05125951766968,-0.84847152233124
596,1798146077,-0.64951109886169,-0.41934144496918,11.30084323883057,0.07876710593700,-0.11251422017813,9.77179241180420,0.24941863119602,-1.12684702873230,-0.91191810369492
597,1798154410,-0.64913910627365,-0.41924935579300,11.30081367492676,0.08071991056204,-0.11889486759901,9.78810024261475,0.25602707266808,-1.06565463542938,-0.85292845964432
598,1798162743,-0.64972919225693,-0.41996607184410,11.30070209503174,0.09853041172028,-0.11455993354321,9.80460929870605,0.14009705185890,-1.16068339347839,-0.83113062381744
599,1798171076,-0.65002548694611,-0.41981169581413,11.30057334899902,0.08262964338064,-0.12255681306124,9.78224277496338,0.17424084246159,-1.05886685848236,-0.86455726623535
600,1798179409,-0.65033477544785,-0.42015162110329,11.29966259002686,0.07330233603716,-0.14356471598148,9.79318618774414,0.17360045015812,-1.11375808715820,-0.88627809286118
601,1798187742,-0.65067589282990,-0.42017951607704,11.29917049407959,0.07926065474749,-0.12223493307829,9.79070377349854,0.16891306638718,-1.07981932163239,-0.90830630064011
602,1798196075,-0.65154117345810,-0.42013749480247,11.29865550994873,0.07916051149368,-0.10132002085447,9.78755664825439,0.10613257437944,-1.06714022159576,-0.91739940643311
603,1798204408,-0.65157598257065,-0.42041489481926,11.29893493652344,0.08303020149469,-0.11112656444311,9.78275775909424,0.20630984008312,-1.11188828945160,-0.81560844182968
604,1798212741,-0.65168815851212,-0.42075067758560,11.29848098754883,0.08314464986324,-0.11562570929527,9.80956649780273,0.19795958697796,-1.11265671253204,-0.86373746395111
605,1798221074,-0.65241527557373,-0.42135450243950,11.29895019531250,0.07997594028711,-0.09123451262712,9.78160572052002,0.12370394170284,-1.15005362033844,-0.79396444559097
606,1798229407,-0.65296882390976,-0.42119422554970,11.29893684387207,0.10535417497158,-0.11041098833084,9.78579807281494,0.14429779350758,-1.05574190616608,-0.84665286540985
607,1798237740,-0.65298134088516,-0.42099022865295,11.29908180236816,0.06717950105667,-0.12157686799765,9.78444576263428,0.20930670201778,-1.05271935462952,-0.83133560419083
608,1798246073,-0.65319734811783,-0.42183163762093,11.29887485504150,0.07503332197666,-0.10729264467955,9.76828670501709,0.18346194922924,-1.17287576198578,-0.87820959091187
609,1798254406,-0.65267866849899,-0.42171707749367,11.29881381988525,0.08730044960976,-0.10814383625984,9.81504535675049,0.27316296100616,-1.06465566158295,-0.85559213161469
610,1798262739,-0.65283924341202,-0.42258170247078,11.29906463623047,0.08535487204790,-0.10146307945251,9.78134059906006,0.19265748560429,-1.17715358734131,-0.79770416021347
611,1798271072,-0.65301895141602,-0.42212703824043,11.29916095733643,0.07981857657433,-0.11754266917706,9.79712772369385,0.18845671415329,-1.02400588989258,-0.83653521537781
612,1798279405,-0.65341222286224,-0.42221036553383,11.30061340332031,0.07893877476454,-0.11014662683010,9.78327274322510,0.16512215137482,-1.08466029167175,-0.70244467258453
613,1798287738,-0.65312945842743,-0.42203789949417,11.30116367340088,0.09237181395292,-0.11528237164021,9.77993202209473,0.24516665935516,-1.05720198154449,-0.78279668092728
614,1798296071,-0.65260148048401,-0.42218780517578,11.30099105834961,0.07302328944206,-0.10887311398983,9.77326583862305,0.27352160215378,-1.09183228015900,-0.84211915731430
615,1798304404,-0.65273153781891,-0.42219036817551,11.30137920379639,0.07461845874786,-0.11239261925220,9.78068256378174,0.19501397013664,-1.07723212242126,-0.80282694101334
616,1798312737,-0.65354567766190,-0.42212960124016,11.30202388763428,0.08516178280115,-0.12417363375425,9.78286457061768,0.11458526551723,-1.06739640235901,-0.78389799594879
617,1798321070,-0.65392512083054,-0.42238891124725,11.30229282379150,0.08894560486078,-0.10984621196985,9.80425834655762,0.16512216627598,-1.10960865020752,-0.81668424606323
618,1798329403,-0.65497767925262,-0.42287343740463,11.30182933807373,0.09594108164310,-0.11334394663572,9.78736400604248,0.08348958939314,-1.13020241260529,-0.82534188032150
619,1798337736,-0.65514945983887,-0.42333447933197,11.30221843719482,0.09938875585794,-0.11514646559954,9.77684211730957,0.19127428531647,-1.13432633876801,-0.80180239677429
620,1798346069,-0.65388989448547,-0.42420271039009,11.30254745483398,0.09383814781904,-0.13307864964008,9.81469440460205,0.36160898208618,-1.17656433582306,-0.88007950782776
621,1798354402,-0.65341579914093,-0.42398226261139,11.30246257781982,0.08782976120710,-0.12765678763390,9.81053924560547,0.26734858751297,-1.05054223537445,-0.85887092351913
622,1798362735,-0.65347480773926,-0.42359805107117,11.30260276794434,0.08639203757048,-0.12149103730917,9.79779243469238,0.20426069200039,-1.02815532684326,-0.80866694450378
623,1798371068,-0.65289080142975,-0.42331153154373,11.30258369445801,0.08808735013008,-0.11884479224682,9.80982398986816,0.27959215641022,-1.04319083690643,-0.85098171234131
624,1798379401,-0.65284979343414,-0.42314472794533,11.30208110809326,0.08466827124357,-0.10578370094299,9.77408123016357,0.21724714338779,-1.05366718769073,-0.86030536890030
625,1798387734,-0.65287888050079,-0.42334991693497,11.30196189880371,0.07484728097916,-0.12137626856565,9.79739952087402,0.20577196776867,-1.10200130939484,-0.86404496431351
626,1798396067,-0.65383332967758,-0.42435544729233,11.30116558074951,0.09488245844841,-0.12280716001987,9.77151298522949,0.09724444150925,-1.19410991668701,-0.85451656579971
627,1798404400,-0.65355843305588,-0.42439764738083,11.30126476287842,0.08412451297045,-0.11659103631973,9.79058361053467,0.24242590367794,-1.08243191242218,-0.83750861883163
628,1798412733,-0.65316700935364,-0.42477214336395,11.30167484283447,0.08868094533682,-0.10589068382978,9.80769252777100,0.25846043229103,-1.11826622486115,-0.79393887519836
629,1798421066,-0.65273278951645,-0.42513346672058,11.30198001861572,0.08205741643906,-0.10586922615767,9.81208419799805,0.26245623826981,-1.12200582027435,-0.81281650066376
630,1798429399,-0.65348142385483,-0.42585417628288,11.30206108093262,0.08699287474155,-0.12573982775211,9.78924465179443,0.12147550284863,-1.16001749038696,-0.85436278581619
631,1798437732,-0.65400409698486,-0.42542847990990,11.30207061767578,0.07811620086432,-0.11333679407835,9.78039646148682,0.14778134226799,-1.02528667449951,-0.84754949808121
632,1798446065,-0.65395516157150,-0.42552763223648,11.30179691314697,0.06531976163387,-0.11653411388397,9.80217742919922,0.21627378463745,-1.08499336242676,-0.86496716737747
633,1798454398,-0.65425038337708,-0.42558246850967,11.30159759521484,0.07661415636539,-0.10014727711678,9.77215671539307,0.17582890391350,-1.08514702320099,-0.87270265817642
634,1798462731,-0.65422523021698,-0.42542281746864,11.30186080932617,0.09238611906767,-0.11986018717289,9.76741409301758,0.21286709606647,-1.05302679538727,-0.85052061080933
635,1798471064,-0.65395140647888,-0.42544072866440,11.30184268951416,0.07589166611433,-0.11597619205713,9.79876518249512,0.24319435656071,-1.08020353317261,-0.85100734233856
636,1798479397,-0.65330475568771,-0.42524611949921,11.30152988433838,0.06897486746311,-0.11832232773304,9.79111862182617,0.28781431913376,-1.04782712459564,-0.94255256652832
637,1798487730,-0.65306413173676,-0.42536821961403,11.30110073089600,0.06659288704395,-0.11661247164011,9.76339530944824,0.23922415077686,-1.09121775627136,-0.90090388059616
638,1798496063,-0.65282094478607,-0.42581614851952,11.30107116699219,0.08328054845333,-0.13644048571587,9.77702045440674,0.23960834741592,-1.12689816951752,-0.84017252922058
639,1798504396,-0.65273880958557,-0.42625188827515,11.30091571807861,0.07735091447830,-0.11355171352625,9.78528976440430,0.22057697176933,-1.13079166412354,-0.86729794740677
640,1798512729,-0.65272039175034,-0.42653235793114,11.30137062072754,0.08304450660944,-0.11239261925220,9.78837203979492,0.21460887789726,-1.10599708557129,-0.82398432493210
641,1798521062,-0.65385121107101,-0.42676928639412,11.30187225341797,0.06827385723591,-0.11202753335238,9.80120468139648,0.07426846772432,-1.10738015174866,-0.78866225481033
642,1798529395,-0.65423280000687,-0.42696964740753,11.30288219451904,0.08011899143457,-0.11374451220036,9.81636810302734,0.16668464243412,-1.09757006168365,-0.78507632017136
643,1798537728,-0.65460091829300,-0.42726147174835,11.30256271362305,0.09031179547310,-0.11075462400913,9.78476715087891,0.16527584195137,-1.11281037330627,-0.88709777593613
644,1798546061,-0.65409982204437,-0.42756369709969,11.30263614654541,0.07928219437599,-0.11014693975449,9.76659202575684,0.27042227983475,-1.10886573791504,-0.82165336608887
645,1798554394,-0.65500807762146,-0.42757105827332,11.30265235900879,0.07493314892054,-0.11410899460316,9.77340221405029,0.10318694263697,-1.07848727703094,-0.84734445810318
646,1798562727,-0.65485680103302,-0.42815917730331,11.30385208129883,0.08878830820322,-0.11535418778658,9.79008197784424,0.22936266660690,-1.14518678188324,-0.75008720159531
647,1798571060,-0.65414947271347,-0.42892491817474,11.30419063568115,0.08178560435772,-0.11930941790342,9.77441024780273,0.29460212588310,-1.17072427272797,-0.80861586332321
648,1798579393,-0.65402454137802,-0.42963835597038,11.30420875549316,0.08400291204453,-0.11210618168116,9.81312847137451,0.22698052227497,-1.15855729579926,-0.84181171655655
649,1798587726,-0.65341508388519,-0.42947903275490,11.30412101745605,0.09084110707045,-0.11240692436695,9.78475284576416,0.28258904814720,-1.05886697769165,-0.85915273427963
650,1798596059,-0.65376412868500,-0.42908066511154,11.30431175231934,0.06594205647707,-0.12257827073336,9.80073928833008,0.16945098340511,-1.02487683296204,-0.84900951385498
651,1798604392,-0.65453749895096,-0.42923679947853,11.30394554138184,0.07615627348423,-0.11334361881018,9.77375221252441,0.11750531196594,-1.09536719322205,-0.89355266094208
652,1798612725,-0.65455037355423,-0.42943701148033,11.30417633056641,0.08951783180237,-0.12993854284286,9.80179119110107,0.20833337306976,-1.09838974475861,-0.85656559467316
653,1798621058,-0.65489655733109,-0.42885014414787,11.30397987365723,0.09144194424152,-0.11582598835230,9.78238582611084,0.16919481754303,-1.00622951984406,-0.87178045511246
654,1798629391,-0.65454041957855,-0.42908215522766,11.30461883544922,0.07487595826387,-0.11824364960194,9.76993942260742,0.25428530573845,-1.10125839710236,-0.79301673173904
655,1798637724,-0.65536946058273,-0.42849284410477,11.30478477478027,0.08884546160698,-0.12187729030848,9.80465221405029,0.11184455454350,-1.00850927829742,-0.82828748226166
656,1798646057,-0.65528470277786,-0.42772427201271,11.30429744720459,0.08634912222624,-0.10693500190973,9.79935169219971,0.22155031561852,-0.98023116588593,-0.83348727226257
657,1798654390,-0.65533012151718,-0.42858031392097,11.30418205261230,0.08797990530729,-0.12918001413345,9.78122043609619,0.20525966584682,-1.17979156970978,-0.86440354585648
658,1798662723,-0.65473991632462,-0.42898499965668,11.30475425720215,0.09323015809059,-0.12600448727608,9.77136993408203,0.28112900257111,-1.12364530563354,-0.76120376586914
659,1798671056,-0.65450257062912,-0.42947646975517,11.30494976043701,0.07902467995882,-0.10683517903090,9.79810714721680,0.23971082270145,-1.13632440567017,-0.82631528377533
660,1798679389,-0.65439361333847,-0.42883253097534,11.30596542358398,0.08790843933821,-0.13007445633411,9.78835105895996,0.22408615052700,-0.99805861711502,-0.76589119434357
661,1798687722,-0.65491515398026,-0.42926579713821,11.30574607849121,0.09293683618307,-0.11336507648230,9.80092620849609,0.14788375794888,-1.12876796722412,-0.87580174207687
662,1798696055,-0.65464591979980,-0.42907536029816,11.30567932128906,0.07476144284010,-0.12196283787489,9.81644058227539,0.24378342926502,-1.05033731460571,-0.82508563995361
663,1798704388,-0.65507960319519,-0.42954754829407,11.30603694915771,0.09397405385971,-0.10722111910582,9.76730728149414,0.15782210230827,-1.13501787185669,-0.80641287565231
664,1798712721,-0.65514099597931,-0.42880663275719,11.30532073974609,0.07795883715153,-0.10317976027727,9.79617595672607,0.20400457084179,-0.98204982280731,-1.00768959522247
665,1798721054,-0.65505838394165,-0.42978554964066,11.30535602569580,0.11672724783421,-0.12280716001987,9.80000972747803,0.21886081993580,-1.19551885128021,-0.84608948230743
666,1798729387,-0.65381717681885,-0.42962583899498,11.30585098266602,0.07903901487589,-0.11439570039511,9.78684139251709,0.36127594113350,-1.05410254001617,-0.78105479478836
667,1798737720,-0.65364897251129,-0.42985704541206,11.30538177490234,0.08124922215939,-0.12445981055498,9.77136993408203,0.23082266747952,-1.10540783405304,-0.90528386831284
668,1798746053,-0.65412241220474,-0.43028607964516,11.30663967132568,0.08685696870089,-0.10589783638716,9.78938770294189,0.15472277998924,-1.12595045566559,-0.75579917430878
669,1798754386,-0.65384519100189,-0.43047806620598,11.30726432800293,0.08966081589460,-0.10089056938887,9.80177783966064,0.24365539848804,-1.10008013248444,-0.77488189935684
670,1798762719,-0.65296155214310,-0.43009012937546,11.30697441101074,0.08672822266817,-0.09984653443098,9.77919483184814,0.31760370731354,-1.02828335762024,-0.85851228237152
671,1798771052,-0.65344291925430,-0.43041938543320,11.30682849884033,0.09649185091257,-0.11770003288984,9.74918174743652,0.15264803171158,-1.11611461639404,-0.86678570508957
672,1798779385,-0.65346097946167,-0.43015584349632,11.30755901336670,0.08228630572557,-0.10676333308220,9.75414562225342,0.20899935066700,-1.04249942302704,-0.75997436046600
673,1798787718,-0.65325087308884,-0.43023449182510,11.30779361724854,0.08589133620262,-0.11877295374870,9.77652740478516,0.23584304749966,-1.08783650398254,-0.82044953107834
674,1798796051,-0.65357810258865,-0.42983114719391,11.30857658386230,0.07431097328663,-0.10854490101337,9.76072788238525,0.17214046418667,-1.02641367912292,-0.72298735380173
675,1798804384,-0.65362983942032,-0.42954698204994,11.30852699279785,0.09621289372444,-0.10745000839233,9.79008197784424,0.20372281968594,-1.04244816303253,-0.85497760772705
676,1798812717,-0.65310710668564,-0.42969304323196,11.30708122253418,0.06814513355494,-0.11157004535198,9.80003833770752,0.27408510446548,-1.09067976474762,-0.95630741119385
677,1798821050,-0.65372765064240,-0.43011483550072,11.30682182312012,0.08193586766720,-0.11540430784225,9.79804325103760,0.13599878549576,-1.12400376796722,-0.89370626211166
678,1798829383,-0.65419238805771,-0.42988482117653,11.30705547332764,0.06318101286888,-0.12538903951645,9.77551174163818,0.15528628230095,-1.04969692230225,-0.82052636146545
679,1798837716,-0.65369004011154,-0.43022531270981,11.30554103851318,0.09294414520264,-0.11694222688675,9.78150558471680,0.26955142617226,-1.11573040485382,-1.03189516067505
680,1798846049,-0.65408790111542,-0.43064212799072,11.30631542205811,0.08272977918386,-0.11929511278868,9.80237770080566,0.16225336492062,-1.12441360950470,-0.81875908374786
681,1798854382,-0.65350818634033,-0.43081554770470,11.30635929107666,0.06861722469330,-0.10420976579189,9.79735660552979,0.28094971179962,-1.09764671325684,-0.84465497732162
682,1798862715,-0.65311396121979,-0.43180727958679,11.30655479431152,0.07227947562933,-0.11948108673096,9.79453849792480,0.25753831863403,-1.19359767436981,-0.83433240652084
683,1798871048,-0.65284460783005,-0.43245106935501,11.30661201477051,0.07067724317312,-0.10560457408428,9.80614757537842,0.24365536868572,-1.15512514114380,-0.84270834922791
684,1798879381,-0.65282720327377,-0.43333947658539,11.30642032623291,0.07273726165295,-0.11145559698343,9.78981685638428,0.21158637106419,-1.17915141582489,-0.87895256280899
685,1798887714,-0.65223884582520,-0.43367168307304,11.30660247802734,0.06534837186337,-0.10174203664064,9.76649856567383,0.28110340237617,-1.11818933486938,-0.82764714956284
686,1798896047,-0.65241903066635,-0.43457251787186,11.30581378936768,0.07965406030416,-0.10836557298899,9.77338695526123,0.18878972530365,-1.18079066276550,-0.96268540620804
687,1798904380,-0.65243095159531,-0.43536624312401,11.30577564239502,0.07013368606567,-0.11340866982937,9.76136302947998,0.20971657335758,-1.17226111888885,-0.85495203733444
