sep=,
DeviceTag:,Xsens DOT
FirmwareVersion:,3.0.0
AppVersion:,2023.6.0
StartTime: ,2025-03-06_12:40:59_000 PST
© Movella Technologies B. V. 2005-2025

PacketCounter,SampleTimeFine,Euler_X,Euler_Y,Euler_Z,Acc_X,Acc_Y,Acc_Z,Gyr_X,Gyr_Y,Gyr_Z
0,1882959351,-0.65859979391098,-0.43274834752083,11.18627357482910,0.00000000000000,0.00000000000000,0.00000000000000,0.00000000000000,0.00000000000000,0.00000000000000
1,1882967684,-0.65880370140076,-0.43284010887146,11.18614292144775,0.08948922157288,-0.10915953665972,9.78714942932129,0.18311615288258,-1.08992397785187,-0.86641424894333
2,1882976017,-0.65940088033676,-0.43221375346184,11.18611240386963,0.09807263314724,-0.09598399698734,9.81228446960449,0.13903406262398,-1.00291264057159,-0.86941117048264
3,1882984350,-0.65970569849014,-0.43169668316841,11.18601608276367,0.08565523475409,-0.12975943088531,9.79412364959717,0.17192274332047,-1.01692354679108,-0.86234158277512
4,1882992683,-0.65973579883575,-0.43177309632301,11.18620395660400,0.09038332104683,-0.11670578271151,9.78169155120850,0.20678371191025,-1.08802866935730,-0.80404365062714
5,1883001016,-0.65917026996613,-0.43158102035522,11.18635463714600,0.08240790665150,-0.12709172070026,9.80676937103271,0.27717161178589,-1.05724024772644,-0.83216804265976
6,1883009349,-0.65885579586029,-0.43190404772758,11.18682193756104,0.07305198162794,-0.11983872950077,9.77748584747314,0.24838121235371,-1.11735689640045,-0.84023654460907
7,1883017682,-0.65826547145844,-0.43085706233978,11.18683910369873,0.07193631678820,-0.13181313872337,9.79564094543457,0.27901583909988,-0.95291352272034,-0.84781831502914
8,1883026015,-0.65747433900833,-0.43084141612053,11.18664455413818,0.08159963041544,-0.11418798565865,9.78180599212646,0.30491185188293,-1.07540071010590,-0.86959034204483
9,1883034348,-0.65764081478119,-0.43177402019501,11.18707561492920,0.07080593705177,-0.12496700137854,9.77861690521240,0.18936604261398,-1.19299590587616,-0.80079066753387
10,1883042681,-0.65752345323563,-0.43135851621628,11.18617630004883,0.09353764355183,-0.10564000904560,9.78266525268555,0.22368910908699,-1.02706670761108,-0.95235002040863
11,1883051014,-0.65742218494415,-0.43002662062645,11.18601226806641,0.07336670905352,-0.11453847587109,9.76212120056152,0.21989819407463,-0.91966640949249,-0.86897581815720
12,1883059347,-0.65644663572311,-0.43037301301956,11.18563652038574,0.07991145551205,-0.12726305425167,9.78483963012695,0.32827201485634,-1.11917555332184,-0.90550154447556
13,1883067680,-0.65675085783005,-0.43040111660957,11.18575096130371,0.08148518949747,-0.10175634175539,9.76823711395264,0.17238381505013,-1.08277785778046,-0.83713728189468
14,1883076013,-0.65708488225937,-0.43068274855614,11.18581676483154,0.08569105714560,-0.12013915181160,9.79747772216797,0.16946376860142,-1.11330986022949,-0.86459565162659
15,1883084346,-0.65678715705872,-0.43058249354362,11.18526935577393,0.08144941926003,-0.11325096338987,9.79981708526611,0.24410365521908,-1.06630778312683,-0.91787326335907
16,1883092679,-0.65672528743744,-0.43138134479523,11.18484687805176,0.06764436513186,-0.10639818012714,9.76340961456299,0.21677327156067,-1.17288863658905,-0.90811431407928
17,1883101012,-0.65695315599442,-0.43090951442719,11.18594074249268,0.06408231705427,-0.11858697980642,9.77425289154053,0.18268072605133,-1.02509438991547,-0.71892750263214
18,1883109345,-0.65697252750397,-0.43062770366669,11.18553066253662,0.08209311217070,-0.12051794677973,9.77167129516602,0.20737285912037,-1.04415142536163,-0.87056374549866
19,1883117678,-0.65657848119736,-0.43024897575378,11.18510627746582,0.08395291864872,-0.11310075223446,9.78096866607666,0.25606548786163,-1.03242003917694,-0.90206927061081
20,1883126011,-0.65649068355560,-0.43021535873413,11.18501853942871,0.09039047360420,-0.11193484067917,9.79383754730225,0.21977013349533,-1.07412016391754,-0.84976500272751
21,1883134344,-0.65662902593613,-0.43034932017326,11.18582820892334,0.08469687402248,-0.10910259932280,9.79724216461182,0.19354115426540,-1.09607148170471,-0.75435203313828
22,1883142677,-0.65623784065247,-0.42993313074112,11.18553543090820,0.07858104258776,-0.10542543232441,9.79712772369385,0.25642412900925,-1.02824497222900,-0.93078285455704
23,1883151010,-0.65570896863937,-0.42960974574089,11.18527030944824,0.06911791861057,-0.10365899652243,9.78171348571777,0.27202317118645,-1.03948962688446,-0.88262802362442
24,1883159343,-0.65624880790710,-0.42994511127472,11.18571376800537,0.09812270104885,-0.10943134129047,9.77486801147461,0.14523270726204,-1.11979031562805,-0.84005725383759
25,1883167676,-0.65640544891357,-0.43009185791016,11.18607330322266,0.06567746400833,-0.10131317377090,9.77344417572021,0.18990392982960,-1.09686553478241,-0.80780881643295
26,1883176009,-0.65661841630936,-0.42992681264877,11.18627262115479,0.07853821665049,-0.13358649611473,9.78489589691162,0.18549829721451,-1.05834186077118,-0.82786494493484
27,1883184342,-0.65672343969345,-0.43090069293976,11.18620872497559,0.07737945765257,-0.12861527502537,9.78068256378174,0.19612818956375,-1.19714534282684,-0.85954964160919
28,1883192675,-0.65676701068878,-0.43059450387955,11.18640422821045,0.07094196230173,-0.12460281699896,9.79399490356445,0.20509317517281,-1.04097521305084,-0.82650732994080
29,1883201008,-0.65651792287827,-0.43029236793518,11.18627738952637,0.06267321109772,-0.12997430562973,9.78432369232178,0.23949308693409,-1.04289638996124,-0.86664479970932
30,1883209341,-0.65730428695679,-0.43034106492996,11.18604660034180,0.07102768868208,-0.10719218105078,9.77948951721191,0.11518720537424,-1.08500623703003,-0.88659828901291
31,1883217674,-0.65667665004730,-0.43045309185982,11.18541717529297,0.08020482957363,-0.10240725427866,9.78536796569824,0.28288361430168,-1.09125590324402,-0.92750424146652
32,1883226007,-0.65675300359726,-0.42978587746620,11.18555450439453,0.09200701862574,-0.11966706067324,9.74551963806152,0.20089243352413,-0.99807143211365,-0.85045659542084
33,1883234340,-0.65714174509048,-0.42946979403496,11.18559741973877,0.06112099066377,-0.11552527546883,9.77521133422852,0.16375179588795,-1.04217922687531,-0.84630709886551
34,1883242673,-0.65852367877960,-0.42964547872543,11.18560409545898,0.06534839421511,-0.11375911533833,9.78473854064941,0.04315998405218,-1.09993934631348,-0.79802429676056
35,1883251006,-0.65881955623627,-0.42986196279526,11.18569660186768,0.06871730834246,-0.10191339254379,9.77599811553955,0.17389503121376,-1.10608661174774,-0.84056937694550
36,1883259339,-0.65941816568375,-0.42987030744553,11.18465995788574,0.08056247234344,-0.10795070230961,9.78074741363525,0.13672876358032,-1.07719385623932,-0.96946030855179
37,1883267672,-0.65951234102249,-0.42935475707054,11.18431091308594,0.08653515577316,-0.10740740597248,9.78787136077881,0.19743451476097,-1.01753807067871,-0.89382153749466
38,1883276005,-0.65914845466614,-0.42969390749931,11.18421077728271,0.08568390458822,-0.11312936246395,9.79616165161133,0.25409319996834,-1.11843276023865,-0.86490303277969
39,1883284338,-0.65911418199539,-0.42979678511620,11.18428230285645,0.06338855624199,-0.11203528940678,9.78036117553711,0.21377639472485,-1.09222948551178,-0.84213209152222
40,1883292671,-0.65914934873581,-0.42957389354706,11.18429470062256,0.07006924599409,-0.10905939340591,9.77847290039062,0.20552861690521,-1.05152833461761,-0.84950888156891
41,1883301004,-0.65978449583054,-0.42954418063164,11.18470668792725,0.09315142780542,-0.12120464444160,9.78024768829346,0.13188768923283,-1.07609248161316,-0.80140542984009
42,1883309337,-0.66004872322083,-0.42997178435326,11.18447589874268,0.07624930888414,-0.11723509430885,9.78350830078125,0.17860804498196,-1.12821733951569,-0.86938554048538
43,1883317670,-0.66032081842422,-0.43021798133850,11.18508338928223,0.08298017829657,-0.11429557204247,9.78162002563477,0.17704558372498,-1.11077404022217,-0.77889049053192
44,1883326003,-0.66057330369949,-0.43013620376587,11.18483924865723,0.07492603361607,-0.11528237164021,9.77681350708008,0.17912033200264,-1.06779336929321,-0.88644456863403
45,1883334336,-0.66073292493820,-0.42970764636993,11.18402194976807,0.07010501623154,-0.11737815290689,9.78465270996094,0.18969903886318,-1.02739977836609,-0.94909703731537
46,1883342669,-0.66171312332153,-0.42963525652885,11.18334579467773,0.08074847608805,-0.12119810283184,9.78056144714355,0.09139158576727,-1.06828010082245,-0.91905146837234
47,1883351002,-0.66161376237869,-0.42937764525414,11.18339538574219,0.08186428993940,-0.11397340148687,9.78234291076660,0.22094838321209,-1.04945361614227,-0.84482145309448
48,1883359335,-0.66178101301193,-0.42988795042038,11.18255233764648,0.07334525138140,-0.10521832108498,9.79900169372559,0.19003202021122,-1.13828384876251,-0.89666467905045
49,1883367668,-0.66186803579330,-0.42940795421600,11.18268013000488,0.07122085988522,-0.12339369207621,9.76643466949463,0.19815170764923,-1.02266108989716,-0.83447331190109
50,1883376001,-0.66143125295639,-0.42937675118446,11.18343544006348,0.09622719883919,-0.11358714848757,9.78662681579590,0.26280206441879,-1.07481169700623,-0.77233326435089
51,1883384334,-0.66149252653122,-0.42870205640793,11.18333721160889,0.07946808636189,-0.12233507633209,9.78104019165039,0.20281355082989,-0.99858379364014,-0.86267465353012
52,1883392667,-0.66174036264420,-0.42842027544975,11.18273067474365,0.06310232728720,-0.12581104040146,9.78431701660156,0.17847998440266,-1.04384410381317,-0.91602903604507
53,1883401000,-0.66089212894440,-0.42770370841026,11.18362998962402,0.08217900991440,-0.12134082615376,9.77925968170166,0.31249365210533,-0.99433177709579,-0.74269747734070
54,1883409333,-0.66158390045166,-0.42782190442085,11.18362808227539,0.08505445718765,-0.10429560393095,9.78884410858154,0.12604764103889,-1.09284400939941,-0.84653753042221
55,1883417666,-0.66119927167892,-0.42728361487389,11.18358135223389,0.07652111351490,-0.12182006984949,9.76678466796875,0.25511777400970,-1.01369619369507,-0.85747492313385
56,1883425999,-0.66147005558014,-0.42824038863182,11.18328475952148,0.07940371334553,-0.12169131636620,9.74562740325928,0.17712242901325,-1.19297027587891,-0.88024610280991
57,1883434332,-0.66115814447403,-0.42799550294876,11.18277168273926,0.08971095830202,-0.10532560944557,9.80356502532959,0.24676753580570,-1.05006825923920,-0.91259682178497
58,1883442665,-0.66137307882309,-0.42740997672081,11.18271160125732,0.08209317922592,-0.11508924514055,9.79655551910400,0.18311616778374,-1.00777924060822,-0.84384810924530
59,1883450998,-0.66124010086060,-0.42735064029694,11.18287944793701,0.08633481711149,-0.11764280498028,9.78598308563232,0.22566142678261,-1.07260894775391,-0.83150213956833
60,1883459331,-0.66117423772812,-0.42851129174232,11.18254089355469,0.07848807424307,-0.12264228612185,9.79729938507080,0.21895046532154,-1.21763670444489,-0.88434433937073
61,1883467664,-0.66137218475342,-0.42930251359940,11.18249702453613,0.06685762107372,-0.11228533089161,9.78440284729004,0.18429440259933,-1.17391312122345,-0.85844820737839
62,1883475997,-0.66108220815659,-0.42911314964294,11.18224620819092,0.08479695022106,-0.10260038077831,9.78837966918945,0.24453911185265,-1.05616438388824,-0.86538970470428
63,1883484330,-0.66052651405334,-0.42934682965279,11.18211841583252,0.09545469284058,-0.12675553560257,9.76784324645996,0.27604457736015,-1.10621476173401,-0.86695218086243
64,1883492663,-0.66025757789612,-0.42932486534119,11.18246459960938,0.07379595190287,-0.11329418420792,9.78549671173096,0.24151660501957,-1.07593870162964,-0.84126108884811
65,1883500996,-0.65937864780426,-0.42927145957947,11.18260097503662,0.08253665268421,-0.13460220396519,9.78304386138916,0.31495261192322,-1.07365906238556,-0.83521616458893
66,1883509329,-0.65931838750839,-0.42934435606003,11.18250656127930,0.08013329654932,-0.10870175808668,9.80119037628174,0.21664521098137,-1.08656871318817,-0.85401707887650
67,1883517662,-0.65961724519730,-0.42974093556404,11.18223476409912,0.09761484712362,-0.11406638473272,9.79007434844971,0.17379257082939,-1.12703919410706,-0.88406252861023
68,1883525995,-0.65979748964310,-0.42941674590111,11.18228435516357,0.07349551469088,-0.11150597780943,9.75983238220215,0.18767549097538,-1.03846502304077,-0.85524648427963
69,1883534328,-0.66059815883636,-0.43082648515701,11.18284034729004,0.08227200061083,-0.10982475429773,9.79340839385986,0.11341983079910,-1.25029480457306,-0.78590875864029
70,1883542661,-0.66118472814560,-0.43103447556496,11.18241786956787,0.07219364494085,-0.10089800506830,9.79332160949707,0.13941827416420,-1.10165536403656,-0.90437459945679
71,1883550994,-0.66118687391281,-0.43045487999916,11.18246650695801,0.07607042044401,-0.11122642457485,9.80562591552734,0.20916585624218,-1.01041769981384,-0.84446299076080
72,1883559327,-0.66174238920212,-0.43002954125404,11.18355846405029,0.07139976322651,-0.09841647744179,9.77717971801758,0.14313234388828,-1.02832186222076,-0.73542308807373
73,1883567660,-0.66198527812958,-0.43066743016243,11.18283462524414,0.07833084464073,-0.12364441901445,9.78921604156494,0.17935088276863,-1.15511226654053,-0.93941485881805
74,1883575993,-0.66194051504135,-0.43074563145638,11.18320846557617,0.07293754070997,-0.13066098093987,9.78646945953369,0.21620975434780,-1.08751630783081,-0.81562119722366
75,1883584326,-0.66222310066223,-0.43084734678268,11.18259811401367,0.05916831642389,-0.09391682595015,9.81073951721191,0.17440731823444,-1.09094858169556,-0.92468661069870
76,1883592659,-0.66239935159683,-0.43097716569901,11.18222332000732,0.06270175427198,-0.10637675225735,9.80164813995361,0.18836706876755,-1.09404802322388,-0.90194123983383
77,1883600992,-0.66268426179886,-0.43127080798149,11.18326091766357,0.07936079055071,-0.12914457917213,9.76925945281982,0.17571367323399,-1.11520540714264,-0.72758513689041
78,1883609325,-0.66250127553940,-0.43102174997330,11.18316173553467,0.10044029355049,-0.10014011710882,9.81739902496338,0.23198810219765,-1.04842901229858,-0.86741322278976
79,1883617658,-0.66308641433716,-0.43155127763748,11.18315219879150,0.09041904658079,-0.11186297982931,9.78747177124023,0.13841933012009,-1.14327859878540,-0.85358166694641
80,1883625991,-0.66340279579163,-0.43158766627312,11.18368053436279,0.06592775136232,-0.11759273707867,9.79713439941406,0.17266553640366,-1.08229100704193,-0.80020147562027
81,1883634324,-0.66364592313766,-0.43128603696823,11.18340778350830,0.07729356735945,-0.13204832375050,9.79030418395996,0.17881298065186,-1.04233300685883,-0.88375508785248
82,1883642657,-0.66315841674805,-0.43141198158264,11.18403148651123,0.06365314871073,-0.10143446922302,9.77884483337402,0.26889824867249,-1.09402251243591,-0.80727106332779
83,1883650990,-0.66315656900406,-0.43174168467522,11.18430042266846,0.06700067967176,-0.12629058957100,9.77433109283447,0.20988303422928,-1.12084043025970,-0.81971949338913
84,1883659323,-0.66284757852554,-0.43187576532364,11.18516540527344,0.05984783545136,-0.11788600683212,9.78509616851807,0.24786892533302,-1.09563612937927,-0.75596570968628
85,1883667656,-0.66250383853912,-0.43204060196877,11.18535995483398,0.09167090803385,-0.10587669163942,9.78383064270020,0.24976438283920,-1.09868419170380,-0.82801848649979
86,1883675989,-0.66230976581573,-0.43179506063461,11.18520069122314,0.08612730354071,-0.10667003691196,9.80161285400391,0.23383232951164,-1.04842901229858,-0.89213097095490
87,1883684322,-0.66271799802780,-0.43158724904060,11.18491172790527,0.09475371241570,-0.10333712399006,9.76904487609863,0.15942300856113,-1.05429482460022,-0.88542008399963
88,1883692655,-0.66270124912262,-0.43093746900558,11.18513965606689,0.07169294357300,-0.09918847680092,9.79996013641357,0.21239325404167,-1.00073540210724,-0.83055430650711
89,1883700988,-0.66237980127335,-0.43047004938126,11.18475055694580,0.09408134222031,-0.10678479075432,9.79895114898682,0.24689559638500,-1.02268671989441,-0.89843201637268
90,1883709321,-0.66288071870804,-0.43094557523727,11.18500041961670,0.07281593978405,-0.11473875492811,9.80382919311523,0.14997135102749,-1.13549172878265,-0.82965785264969
91,1883717654,-0.66222286224365,-0.43068072199821,11.18452072143555,0.09548330307007,-0.10813667625189,9.79869365692139,0.28833943605423,-1.04655921459198,-0.90921568870544
92,1883725987,-0.66145855188370,-0.43023028969765,11.18467903137207,0.08003325760365,-0.09361670166254,9.79114723205566,0.30147954821587,-1.02417230606079,-0.83495992422104
93,1883734320,-0.66115581989288,-0.42932558059692,11.18476295471191,0.08633496612310,-0.11050482839346,9.77103519439697,0.24510262906551,-0.97033125162125,-0.84067195653915
94,1883742653,-0.66120249032974,-0.42975020408630,11.18463134765625,0.08190005272627,-0.13135480880737,9.81608963012695,0.20391491055489,-1.13029217720032,-0.86684972047806
95,1883750986,-0.66142940521240,-0.42994025349617,11.18477153778076,0.07986149191856,-0.11036836355925,9.80070400238037,0.18237335979939,-1.10129690170288,-0.83488327264786
96,1883759319,-0.66538476943970,-0.43723520636559,11.18546772003174,0.07524790614843,-0.12793575227261,9.76488208770752,0.21467290818691,-1.03088319301605,-0.88436985015869
97,1883767652,-0.66569066047668,-0.43724903464317,11.18503761291504,0.07605612277985,-0.11698441952467,9.76755142211914,0.17041149735451,-1.08026754856110,-0.90281206369400
98,1883775985,-0.66595810651779,-0.43738833069801,11.18495750427246,0.05853892117739,-0.10611274093390,9.80318546295166,0.17860804498196,-1.09497010707855,-0.84333586692810
99,1883784318,-0.66667622327805,-0.43734246492386,11.18483734130859,0.08903143554926,-0.08217900991440,9.78403759002686,0.12381921708584,-1.07227599620819,-0.86643999814987
100,1883792651,-0.66662633419037,-0.43730992078781,11.18454074859619,0.06872451305389,-0.10762882977724,9.78270053863525,0.21474973857403,-1.07358217239380,-0.87676239013672
101,1883800984,-0.66691571474075,-0.43706136941910,11.18448352813721,0.06034138426185,-0.09579802304506,9.80208396911621,0.17545750737190,-1.04906940460205,-0.85788476467133
102,1883809317,-0.66719353199005,-0.43683037161827,11.18373489379883,0.10539714246988,-0.11687029898167,9.77752876281738,0.17499645054340,-1.04881322383881,-0.93283200263977
103,1883817650,-0.66726446151733,-0.43719041347504,11.18365097045898,0.07441817969084,-0.10899502038956,9.80669784545898,0.20135350525379,-1.12201869487762,-0.86165004968643
104,1883825983,-0.66740489006042,-0.43713650107384,11.18340682983398,0.08054094761610,-0.12565366923809,9.80003929138184,0.19238851964474,-1.07076466083527,-0.89131128787994
105,1883834316,-0.66678214073181,-0.43648743629456,11.18324756622314,0.06072772666812,-0.11842276901007,9.79709148406982,0.28488153219223,-1.00058174133301,-0.87089687585831
106,1883842649,-0.66670000553131,-0.43605726957321,11.18290519714355,0.08135643601418,-0.12292160838842,9.79892253875732,0.21900168061256,-1.02629840373993,-0.88280737400055
107,1883850982,-0.66694575548172,-0.43678164482117,11.18292713165283,0.07278023660183,-0.10561206191778,9.77402400970459,0.18065719306469,-1.16581916809082,-0.84920150041580
108,1883859315,-0.66730672121048,-0.43633869290352,11.18294334411621,0.07041973620653,-0.10042591392994,9.79098320007324,0.16667182743549,-1.02460777759552,-0.87263852357864
109,1883867648,-0.66774600744247,-0.43591991066933,11.18234539031982,0.08305875211954,-0.11071138828993,9.78305816650391,0.15593944489956,-1.02816808223724,-0.92309856414795
110,1883875981,-0.66784548759460,-0.43605735898018,11.18255805969238,0.06687907874584,-0.12114054709673,9.81334972381592,0.19866400957108,-1.09348452091217,-0.84561550617218
111,1883884314,-0.66826272010803,-0.43532234430313,11.18243789672852,0.05949019640684,-0.12659101188183,9.81130409240723,0.15837281942368,-0.99015665054321,-0.86531293392181
112,1883892647,-0.66876113414764,-0.43525606393814,11.18226909637451,0.06855995208025,-0.11975973844528,9.78711414337158,0.15066291391850,-1.07030355930328,-0.86874514818192
113,1883900980,-0.66860002279282,-0.43550631403923,11.18253135681152,0.08697141706944,-0.11757127940655,9.80611896514893,0.22901685535908,-1.10849440097809,-0.82117950916290
114,1883909313,-0.66834360361099,-0.43615642189980,11.18168449401855,0.07266565412283,-0.11286434531212,9.78468894958496,0.23985169827938,-1.15516352653503,-0.94630509614944
115,1883917646,-0.66853111982346,-0.43651193380356,11.18202972412109,0.07010501623154,-0.10709951817989,9.78468894958496,0.18741934001446,-1.12260782718658,-0.81154859066010
116,1883925979,-0.66895651817322,-0.43584722280502,11.18193721771240,0.08004741370678,-0.11274997144938,9.78776454925537,0.15883386135101,-0.99661135673523,-0.87363749742508
117,1883934312,-0.66893815994263,-0.43602430820465,11.18188476562500,0.07220795005560,-0.10982475429773,9.78972434997559,0.21149672567844,-1.09947824478149,-0.85852503776550
118,1883942645,-0.66906517744064,-0.43584051728249,11.18167400360107,0.06556289643049,-0.10536823421717,9.78619098663330,0.19520609080791,-1.05662560462952,-0.84141480922699
119,1883950978,-0.66919547319412,-0.43577519059181,11.18164157867432,0.07899606227875,-0.11688491702080,9.78352260589600,0.19290077686310,-1.07030355930328,-0.85486227273941
120,1883959311,-0.66868555545807,-0.43599611520767,11.18162631988525,0.06817374378443,-0.10888772457838,9.79475307464600,0.27135720849037,-1.10365331172943,-0.86725944280624
121,1883967644,-0.66876280307770,-0.43491399288177,11.18163108825684,0.08547647297382,-0.12971681356430,9.78544712066650,0.20002155005932,-0.94986546039581,-0.84891974925995
122,1883975977,-0.66869473457336,-0.43591630458832,11.18197822570801,0.06254452466965,-0.11614818871021,9.79403018951416,0.21869432926178,-1.19837474822998,-0.80652809143066
123,1883984310,-0.66870534420013,-0.43600487709045,11.18189430236816,0.05956172198057,-0.10951717942953,9.77529716491699,0.20842301845551,-1.09012889862061,-0.86126577854156
124,1883992643,-0.66917282342911,-0.43625867366791,11.18187427520752,0.07874564826488,-0.10658451169729,9.75439643859863,0.15363417565823,-1.10775160789490,-0.84515446424484
125,1884000976,-0.66933733224869,-0.43667465448380,11.18128681182861,0.06745845824480,-0.11213511973619,9.78145599365234,0.18972465395927,-1.12785887718201,-0.92233031988144
126,1884009309,-0.66947042942047,-0.43655070662498,11.18204307556152,0.07928926497698,-0.11130538582802,9.77441024780273,0.19315694272518,-1.06354141235352,-0.79907441139221
127,1884017642,-0.66972601413727,-0.43647682666779,11.18230438232422,0.08393855392933,-0.10368016362190,9.80616950988770,0.17963261902332,-1.07076466083527,-0.81982195377350
128,1884025975,-0.67051464319229,-0.43575498461723,11.18244743347168,0.06559876352549,-0.10522576421499,9.77814388275146,0.11590441316366,-0.99072021245956,-0.84948331117630
129,1884034308,-0.67038327455521,-0.43527156114578,11.18237495422363,0.08292290568352,-0.10441005229950,9.77219963073730,0.22491858899593,-1.02074003219604,-0.85949844121933
130,1884042641,-0.67081278562546,-0.43482220172882,11.18227100372314,0.06767309457064,-0.10971776396036,9.78273582458496,0.15793736279011,-1.02263534069061,-0.88588106632233
131,1884050974,-0.67187684774399,-0.43423521518707,11.18253803253174,0.09164937585592,-0.12292160838842,9.77432441711426,0.08183749020100,-1.00954663753510,-0.81843888759613
132,1884059307,-0.67188537120819,-0.43432897329330,11.18290042877197,0.06937535852194,-0.11834348738194,9.76549816131592,0.20903778076172,-1.08959102630615,-0.82484239339828
133,1884067640,-0.67110842466354,-0.43417823314667,11.18319797515869,0.10393796116114,-0.10775757580996,9.77081966400146,0.30250409245491,-1.06069815158844,-0.81621044874191
134,1884075973,-0.67097920179367,-0.43398568034172,11.18289279937744,0.09523294866085,-0.11107649654150,9.80562496185303,0.22586633265018,-1.05470454692841,-0.90112167596817
135,1884084306,-0.67109918594360,-0.43351772427559,11.18236160278320,0.08337353914976,-0.12175568938255,9.77824401855469,0.19500117003918,-1.02120125293732,-0.91677188873291
136,1884092639,-0.67137444019318,-0.43405264616013,11.18230152130127,0.06034853681922,-0.11265012621880,9.76681327819824,0.17684066295624,-1.14268934726715,-0.86418586969376
137,1884100972,-0.67117279767990,-0.43435236811638,11.18219757080078,0.06468308717012,-0.11851513385773,9.81439495086670,0.23321761190891,-1.11418068408966,-0.86485177278519
138,1884109305,-0.67146879434586,-0.43436992168427,11.18228530883789,0.09106284379959,-0.11788600683212,9.77469635009766,0.17499646544456,-1.07978093624115,-0.83457577228546
139,1884117638,-0.67175865173340,-0.43454670906067,11.18224430084229,0.07986864447594,-0.13138341903687,9.78083324432373,0.17445854842663,-1.10011851787567,-0.85665524005890
140,1884125971,-0.67113602161407,-0.43440476059914,11.18235015869141,0.10190655291080,-0.12380855530500,9.78721332550049,0.28459978103638,-1.06159484386444,-0.81336718797684
141,1884134304,-0.67140835523605,-0.43394547700882,11.18209648132324,0.08350949734449,-0.11423835903406,9.81325721740723,0.17725050449371,-1.02240490913391,-0.87648069858551
142,1884142637,-0.67173880338669,-0.43394556641579,11.18148136138916,0.08061254024506,-0.12729914486408,9.79735660552979,0.16920764744282,-1.07668149471283,-0.92601859569550
143,1884150970,-0.67140185832977,-0.43390911817551,11.18216514587402,0.07983995974064,-0.12321459501982,9.78147792816162,0.25035354495049,-1.07629740238190,-0.76951569318771
144,1884159303,-0.67112582921982,-0.43415936827660,11.18189716339111,0.09251479059458,-0.11909450590611,9.78456020355225,0.24266925454140,-1.10647082328796,-0.89571696519852
145,1884167636,-0.67133092880249,-0.43457177281380,11.18135929107666,0.07119940221310,-0.10625547915697,9.78901576995850,0.18534462153912,-1.12829434871674,-0.91659247875214
146,1884175969,-0.67149150371552,-0.43416497111320,11.18248653411865,0.07173585891724,-0.12310758233070,9.81167602539062,0.19123588502407,-1.03052461147308,-0.72261595726013
147,1884184302,-0.67118620872498,-0.43452116847038,11.18137454986572,0.08147794753313,-0.12066093832254,9.80526065826416,0.24456469714642,-1.11968791484833,-0.98454713821411
148,1884192635,-0.67028796672821,-0.43467521667480,11.18111324310303,0.07964690774679,-0.11619793623686,9.81056785583496,0.31777015328407,-1.09507250785828,-0.90744817256927
149,1884200968,-0.67013669013977,-0.43417593836784,11.18078422546387,0.08341637998819,-0.12567514181137,9.77546882629395,0.22722388803959,-1.01899826526642,-0.88959515094757
150,1884209301,-0.67027109861374,-0.43413820862770,11.18082141876221,0.08247227966785,-0.12609747052193,9.80037498474121,0.19382290542126,-1.07345414161682,-0.85880684852600
151,1884217634,-0.66995936632156,-0.43367525935173,11.18086910247803,0.05974762141705,-0.11430929601192,9.77819442749023,0.24669072031975,-1.02184152603149,-0.84666579961777
152,1884225967,-0.66950047016144,-0.43332228064537,11.18115425109863,0.08192159235477,-0.10701397806406,9.78630542755127,0.26510730385780,-1.03615975379944,-0.83890467882156
153,1884234300,-0.66863954067230,-0.43317410349846,11.18073272705078,0.07614916563034,-0.11839385330677,9.74837398529053,0.31267300248146,-1.06021165847778,-0.90191572904587
154,1884242633,-0.66817891597748,-0.43365445733070,11.18002223968506,0.08156386762857,-0.12263549119234,9.80566787719727,0.26382663846016,-1.13472342491150,-0.94192504882812
155,1884250966,-0.66882032155991,-0.43356031179428,11.17996120452881,0.07647819817066,-0.09871638566256,9.77046203613281,0.13229753077030,-1.06610274314880,-0.85865324735641
156,1884259299,-0.66837245225906,-0.43346914649010,11.17955017089844,0.07212211191654,-0.11248560994864,9.77176380157471,0.26382660865784,-1.06687128543854,-0.90055799484253
157,1884267632,-0.66867309808731,-0.43307989835739,11.17924308776855,0.07441102713346,-0.11960984021425,9.77173519134521,0.17374135553837,-1.03231763839722,-0.88857060670853
158,1884275965,-0.66926002502441,-0.43373310565948,11.17923164367676,0.07255128771067,-0.09964625537395,9.79030323028564,0.13816317915916,-1.15588057041168,-0.87017953395844
159,1884284298,-0.66961205005646,-0.43308907747269,11.17971801757812,0.07813050597906,-0.12003900855780,9.79045391082764,0.16877217590809,-1.00152933597565,-0.79213303327560
160,1884292631,-0.66966784000397,-0.43295633792877,11.17933654785156,0.06501927971840,-0.11804305016994,9.76449680328369,0.20204508304596,-1.06128740310669,-0.90078860521317
161,1884300964,-0.66941606998444,-0.43247678875923,11.17916584014893,0.07679292559624,-0.12516759335995,9.75163555145264,0.23980045318604,-1.02066314220428,-0.87256169319153
162,1884309297,-0.66891449689865,-0.43197539448738,11.17899703979492,0.08123475313187,-0.10903049260378,9.80257892608643,0.27064001560211,-1.01758944988251,-0.86690098047256
163,1884317630,-0.66898095607758,-0.43201446533203,11.17891120910645,0.08233637362719,-0.11300776898861,9.75207138061523,0.20055945217609,-1.08275210857391,-0.86200863122940
164,1884325963,-0.66897398233414,-0.43172734975815,11.17885208129883,0.08319471776485,-0.10523977875710,9.76729965209961,0.21141989529133,-1.04366481304169,-0.85117381811142
165,1884334296,-0.66812932491302,-0.43138188123703,11.17905902862549,0.08129206299782,-0.11194914579391,9.76420974731445,0.31003469228745,-1.03805530071259,-0.82632797956467
166,1884342629,-0.66762965917587,-0.43170517683029,11.17909717559814,0.07031968235970,-0.12568293511868,9.75694942474365,0.26999965310097,-1.11692154407501,-0.85773104429245
167,1884350962,-0.66751086711884,-0.43216842412949,11.18005180358887,0.07374587655067,-0.11400229483843,9.78032493591309,0.22466245293617,-1.13490259647369,-0.73742103576660
168,1884359295,-0.66766548156738,-0.43183898925781,11.18027782440186,0.06855999678373,-0.11347985267639,9.78519630432129,0.19197869300842,-1.03884935379028,-0.81613361835480
169,1884367628,-0.66766059398651,-0.43128678202629,11.18088626861572,0.08226496726274,-0.11596957594156,9.77697181701660,0.21042093634605,-1.01262032985687,-0.77753293514252
170,1884375961,-0.66768074035645,-0.43065947294235,11.18083381652832,0.07448248565197,-0.09427419304848,9.77969646453857,0.20785950124264,-1.00316870212555,-0.83859717845917
171,1884384294,-0.66769218444824,-0.43120399117470,11.18095302581787,0.09474662691355,-0.09964658319950,9.77737140655518,0.20890970528126,-1.14420080184937,-0.83772641420364
172,1884392627,-0.66750252246857,-0.43042570352554,11.18049144744873,0.08840198814869,-0.10507526248693,9.78290081024170,0.23198813199997,-0.98377859592438,-0.87350940704346
173,1884400960,-0.66730463504791,-0.42959156632423,11.18025016784668,0.07736515253782,-0.11579737812281,9.77831554412842,0.23296147584915,-0.97845107316971,-0.87814569473267
174,1884409293,-0.66667604446411,-0.42982777953148,11.18032264709473,0.09791526943445,-0.13581818342209,9.76669883728027,0.28577801585197,-1.10593307018280,-0.84387385845184
175,1884417626,-0.66666221618652,-0.42989501357079,11.18006420135498,0.08881685137749,-0.11951684951782,9.76832962036133,0.21072830259800,-1.08644056320190,-0.88290977478027
176,1884425959,-0.66647654771805,-0.42947870492935,11.17983627319336,0.08491855114698,-0.11315082013607,9.80297088623047,0.23219303786755,-1.02860355377197,-0.86469811201096
177,1884434292,-0.66658282279968,-0.42908298969269,11.18025779724121,0.06426823884249,-0.11141955852509,9.77621269226074,0.19687099754810,-1.03119063377380,-0.80132853984833
178,1884442625,-0.66638040542603,-0.42924484610558,11.17994785308838,0.07804459333420,-0.11217055469751,9.79882335662842,0.23365306854248,-1.09666073322296,-0.89704900979996
179,1884450958,-0.66656368970871,-0.42797502875328,11.17971611022949,0.06798776984215,-0.09603407233953,9.79297161102295,0.18724004924297,-0.92619788646698,-0.87724906206131
180,1884459291,-0.66702681779861,-0.42854121327400,11.17973899841309,0.07621353864670,-0.12619760632515,9.75031948089600,0.15463313460350,-1.14604485034943,-0.85560494661331
181,1884467624,-0.66725367307663,-0.42827099561691,11.18001556396484,0.08338069170713,-0.12057547271252,9.78313636779785,0.18321861326694,-1.04614937305450,-0.81856685876846
182,1884475957,-0.66736400127411,-0.42756149172783,11.18012619018555,0.09342322498560,-0.12791401147842,9.78569793701172,0.19589766860008,-0.99325591325760,-0.83193755149841
183,1884484290,-0.66838818788528,-0.42773860692978,11.18016529083252,0.07308062165976,-0.11108396947384,9.77396678924561,0.08670417964458,-1.10060513019562,-0.84722924232483
184,1884492623,-0.66842043399811,-0.42743587493896,11.18049812316895,0.07134960591793,-0.13988099992275,9.78275012969971,0.20668126642704,-1.04010438919067,-0.79884392023087
185,1884500956,-0.66916573047638,-0.42760705947876,11.18100070953369,0.08441069722176,-0.11608348786831,9.79041099548340,0.11969532072544,-1.09986233711243,-0.79210746288300
186,1884509289,-0.66897684335709,-0.42717230319977,11.18190002441406,0.08116330951452,-0.11282179504633,9.78425216674805,0.23419094085693,-1.02709221839905,-0.74815332889557
187,1884517622,-0.66909795999527,-0.42732629179955,11.18182468414307,0.10212113708258,-0.12210617959499,9.79797172546387,0.19448889791965,-1.09824872016907,-0.86003637313843
188,1884525955,-0.66957288980484,-0.42716822028160,11.18104743957520,0.07334525138140,-0.13167668879032,9.81362915039062,0.15225100517273,-1.05654871463776,-0.95219635963440
189,1884534288,-0.66899150609970,-0.42736375331879,11.18098354339600,0.07987579703331,-0.09782943129539,9.77901649475098,0.27934888005257,-1.10265433788300,-0.85980576276779
190,1884542621,-0.66783720254898,-0.42711961269379,11.18112468719482,0.08411733061075,-0.11274997144938,9.77300834655762,0.34845602512360,-1.04819846153259,-0.83329504728317
191,1884550954,-0.66787928342819,-0.42727005481720,11.18123149871826,0.07404623180628,-0.10136293619871,9.76407432556152,0.20450404286385,-1.09643006324768,-0.84015971422195
192,1884559287,-0.66784459352493,-0.42719012498856,11.18089008331299,0.08220046758652,-0.12994569540024,9.80563926696777,0.21344344317913,-1.06692254543304,-0.91303217411041
193,1884567620,-0.66848057508469,-0.42649987339973,11.18090629577637,0.08418176323175,-0.10721367597580,9.78426742553711,0.13370630145073,-0.99691885709763,-0.84915024042130
194,1884575953,-0.66811633110046,-0.42699226737022,11.18058013916016,0.07962545007467,-0.12722761929035,9.76511859893799,0.25294056534767,-1.13623464107513,-0.88782775402069
195,1884584286,-0.66871917247772,-0.42703795433044,11.18076419830322,0.08655655384064,-0.12452384084463,9.76482486724854,0.13747160136700,-1.08498060703278,-0.82993972301483
196,1884592619,-0.66793763637543,-0.42793306708336,11.18022823333740,0.07232249528170,-0.11884485185146,9.77623367309570,0.30337500572205,-1.18426144123077,-0.90101927518845
197,1884600952,-0.66772550344467,-0.42872375249863,11.18026924133301,0.07122092694044,-0.12317229807377,9.77932357788086,0.23483130335808,-1.17447662353516,-0.84751093387604
198,1884609285,-0.66817110776901,-0.42876839637756,11.18031406402588,0.08520466834307,-0.11130538582802,9.79729175567627,0.15683597326279,-1.08195805549622,-0.84369456768036
199,1884617618,-0.66803890466690,-0.42884844541550,11.18101787567139,0.07750820368528,-0.10535422712564,9.80199146270752,0.22578945755959,-1.08938610553741,-0.76800441741943
200,1884625951,-0.66801613569260,-0.42864546179771,11.18120002746582,0.05434020981193,-0.13038229942322,9.80552482604980,0.21223953366280,-1.05370557308197,-0.80360817909241
201,1884634284,-0.66805005073547,-0.42850312590599,11.18084239959717,0.07132821530104,-0.12223526090384,9.81639003753662,0.20565669238567,-1.06177413463593,-0.89407765865326
202,1884642617,-0.66772341728210,-0.42963686585426,11.18111038208008,0.07742952555418,-0.11737100034952,9.78437423706055,0.24932895600796,-1.21453726291656,-0.80248117446899
203,1884650950,-0.66768854856491,-0.42952665686607,11.18062114715576,0.07453984767199,-0.10769353806973,9.79875850677490,0.21390447020531,-1.06466841697693,-0.91200762987137
204,1884659283,-0.66760534048080,-0.42971846461296,11.18013477325439,0.10296517610550,-0.10900217294693,9.79029655456543,0.21925784647465,-1.10060513019562,-0.91139292716980
205,1884667616,-0.66783922910690,-0.42992135882378,11.17971801757812,0.10933841764927,-0.11214976012707,9.76773643493652,0.18075966835022,-1.10098946094513,-0.90304267406464
206,1884675949,-0.66819787025452,-0.42947375774384,11.18015480041504,0.07977560907602,-0.12814290821552,9.78591918945312,0.16656936705112,-1.02471029758453,-0.80775767564774
207,1884684282,-0.66864603757858,-0.42943081259727,11.17998123168945,0.08007607609034,-0.11057580262423,9.77689933776855,0.15560647845268,-1.07388961315155,-0.87271547317505
208,1884692615,-0.66895115375519,-0.43002402782440,11.17968750000000,0.07981142401695,-0.11951684951782,9.79784297943115,0.17438170313835,-1.14817082881927,-0.87563526630402
209,1884700948,-0.66887992620468,-0.43072214722633,11.17947769165039,0.07322365045547,-0.11426666378975,9.76794338226318,0.21790030598640,-1.16264295578003,-0.87727469205856
210,1884709281,-0.66933363676071,-0.43052148818970,11.17962265014648,0.05612836033106,-0.11187762022018,9.75427436828613,0.15463313460350,-1.05391049385071,-0.83951932191849
211,1884717614,-0.67004472017288,-0.42958351969719,11.17967319488525,0.08240790665150,-0.10243586450815,9.80777072906494,0.12435711920261,-0.96628427505493,-0.84448862075806
212,1884725947,-0.67082673311234,-0.42952892184258,11.17990207672119,0.07504043728113,-0.11205614358187,9.77632713317871,0.11598125845194,-1.07091832160950,-0.81836193799973
213,1884734280,-0.67150157690048,-0.42912566661835,11.17974662780762,0.07940375059843,-0.11295084655285,9.79656982421875,0.12784063816071,-1.03016602993011,-0.86979538202286
214,1884742613,-0.67189252376556,-0.42861059308052,11.18006801605225,0.07019799947739,-0.11569008231163,9.79757118225098,0.16357247531414,-1.01651370525360,-0.80440217256546
215,1884750946,-0.67171901464462,-0.42872583866119,11.18018245697021,0.07592735439539,-0.10870144516230,9.77943897247314,0.23027196526527,-1.09269034862518,-0.83877658843994
216,1884759279,-0.67154121398926,-0.42851662635803,11.18029880523682,0.08114892989397,-0.10933090001345,9.79194259643555,0.23178319633007,-1.05214309692383,-0.86836093664169
217,1884767612,-0.67140138149261,-0.42896506190300,11.18012714385986,0.08466820418835,-0.12390869855881,9.75376701354980,0.22650666534901,-1.13321232795715,-0.87297147512436
218,1884775945,-0.67177462577820,-0.42901971936226,11.17926311492920,0.07830932736397,-0.10840848833323,9.78914451599121,0.16446900367737,-1.08316206932068,-0.94968628883362
219,1884784278,-0.67107456922531,-0.42874169349670,11.17870235443115,0.07325942069292,-0.11113372445107,9.80662631988525,0.29302683472633,-1.04412579536438,-0.91915392875671
220,1884792611,-0.67202341556549,-0.42928281426430,11.17858886718750,0.08729329705238,-0.10663457959890,9.77890872955322,0.09551547467709,-1.14210033416748,-0.81764471530914
221,1884800944,-0.67176449298859,-0.42946857213974,11.17846584320068,0.09490392357111,-0.09913840144873,9.77395915985107,0.24118360877037,-1.10086131095886,-0.86766934394836
222,1884809277,-0.67228740453720,-0.43007686734200,11.17857933044434,0.07536235451698,-0.12340799719095,9.79054641723633,0.14659026265144,-1.15185928344727,-0.82742941379547
223,1884817610,-0.67252874374390,-0.43025693297386,11.17793273925781,0.07867412269115,-0.12435217201710,9.78808593750000,0.18027296662331,-1.09950375556946,-0.92929720878601
224,1884825943,-0.67214292287827,-0.43000268936157,11.17773342132568,0.06589914113283,-0.12387293577194,9.80570411682129,0.25691074132919,-1.04648232460022,-0.89669030904770
225,1884834276,-0.67105591297150,-0.43029755353928,11.17797565460205,0.09353762120008,-0.12109017372131,9.78107738494873,0.33897876739502,-1.11407828330994,-0.82240897417068
226,1884842609,-0.67078381776810,-0.43031904101372,11.17893505096436,0.08227915316820,-0.13269239664078,9.77265071868896,0.24313029646873,-1.08021640777588,-0.77945399284363
227,1884850942,-0.67084604501724,-0.43027204275131,11.17894935607910,0.08800858259201,-0.13277822732925,9.77566909790039,0.20235246419907,-1.07424819469452,-0.84917598962784
228,1884859275,-0.67071121931076,-0.43003669381142,11.17862224578857,0.07393886893988,-0.11903730034828,9.80807209014893,0.22617368400097,-1.04824984073639,-0.89085024595261
229,1884867608,-0.67055451869965,-0.43073773384094,11.17884826660156,0.08809448778629,-0.12399485707283,9.78759956359863,0.22860704362392,-1.16330897808075,-0.82486796379089
230,1884875941,-0.67068475484848,-0.43047693371773,11.17874908447266,0.08333777636290,-0.10289364308119,9.77070522308350,0.19366921484470,-1.04581642150879,-0.86454445123672
231,1884884274,-0.67054945230484,-0.43093517422676,11.17889022827148,0.07308781892061,-0.12262865900993,9.76403141021729,0.22484174370766,-1.13423669338226,-0.83437091112137
232,1884892607,-0.67039799690247,-0.43103775382042,11.17941856384277,0.09172090888023,-0.11376596987247,9.77280044555664,0.22970846295357,-1.09110248088837,-0.80652821063995
233,1884900940,-0.67030900716782,-0.43191018700600,11.17959308624268,0.07350976765156,-0.12412328273058,9.80969524383545,0.21969328820705,-1.18193042278290,-0.83227050304413
234,1884909273,-0.67029511928558,-0.43182903528214,11.17947673797607,0.09169229120016,-0.11485319584608,9.80149078369141,0.21157357096672,-1.06917655467987,-0.86651670932770
235,1884917606,-0.67065960168839,-0.43218696117401,11.18001556396484,0.09099131822586,-0.10848716646433,9.77659893035889,0.16672307252884,-1.12250554561615,-0.78698462247849
236,1884925939,-0.67179602384567,-0.43170186877251,11.18092918395996,0.09144194424152,-0.11991026252508,9.73207950592041,0.07356407493353,-1.02061188220978,-0.74805086851120
237,1884934272,-0.67210084199905,-0.43171143531799,11.18083858489990,0.09166368097067,-0.11061871796846,9.77066230773926,0.17256310582161,-1.07993459701538,-0.86167567968369
238,1884942605,-0.67209798097610,-0.43116408586502,11.18053722381592,0.08014044910669,-0.12704163789749,9.81077480316162,0.21003672480583,-1.01021265983582,-0.90806299448013
239,1884950938,-0.67261320352554,-0.43116569519043,11.18008804321289,0.06782320886850,-0.11925186961889,9.78431701660156,0.14794780313969,-1.07878172397614,-0.90578329563141
240,1884959271,-0.67202883958817,-0.43166974186897,11.17965602874756,0.06278049945831,-0.11441687494516,9.79411602020264,0.27957937121391,-1.13830935955048,-0.89423143863678
241,1884967604,-0.67198556661606,-0.43086606264114,11.17956829071045,0.08196436613798,-0.11609035730362,9.78499698638916,0.21449361741543,-0.98185771703720,-0.86129152774811
242,1884975937,-0.67145687341690,-0.43057447671890,11.18019294738770,0.07013354450464,-0.10872294753790,9.77551174163818,0.27391862869263,-1.04322946071625,-0.77809643745422
243,1884984270,-0.67266786098480,-0.42971372604370,11.17996025085449,0.08972523361444,-0.10726375132799,9.79944515228271,0.06395874172449,-0.97486490011215,-0.87858098745346
244,1884992603,-0.67323118448257,-0.42973726987839,11.18069648742676,0.09018304198980,-0.12559677660465,9.80475234985352,0.14359340071678,-1.08177876472473,-0.76201069355011
245,1885000936,-0.67294323444366,-0.43010184168816,11.18088150024414,0.07925350219011,-0.11822934448719,9.78753566741943,0.24289980530739,-1.12232613563538,-0.82929927110672
246,1885009269,-0.67367208003998,-0.43029093742371,11.18072700500488,0.07600610703230,-0.10503234714270,9.80281352996826,0.12253849208355,-1.10034906864166,-0.87686485052109
247,1885017602,-0.67343598604202,-0.43053916096687,11.18128776550293,0.08536911010742,-0.12187699973583,9.80510330200195,0.23864783346653,-1.11003124713898,-0.78478169441223
248,1885025935,-0.67349529266357,-0.43009743094444,11.18180942535400,0.07540520280600,-0.11336512863636,9.76891708374023,0.20304405689240,-1.02391624450684,-0.81900233030319
249,1885034268,-0.67311191558838,-0.43061134219170,11.18145179748535,0.08510444313288,-0.11174137145281,9.78882312774658,0.25537392497063,-1.14020478725433,-0.89525586366653
250,1885042601,-0.67357808351517,-0.43100798130035,11.18168163299561,0.08660662174225,-0.11315082013607,9.77316570281982,0.15389029681683,-1.12493872642517,-0.83526736497879
251,1885050934,-0.67413812875748,-0.43116325139999,11.18265438079834,0.07462565600872,-0.10105564445257,9.80490970611572,0.14285057783127,-1.09837687015533,-0.73583287000656
252,1885059267,-0.67381799221039,-0.43138232827187,11.18303871154785,0.08287283778191,-0.11392332613468,9.77591228485107,0.24976441264153,-1.10495972633362,-0.76672369241714
253,1885067600,-0.67335176467896,-0.43159818649292,11.18330001831055,0.07344531267881,-0.12279255688190,9.75649261474609,0.26469749212265,-1.10536956787109,-0.82020628452301
254,1885075933,-0.67376440763474,-0.43122899532318,11.18419551849365,0.09774360060692,-0.11321520060301,9.77963161468506,0.16213810443878,-1.03418755531311,-0.71713447570801
255,1885084266,-0.67347067594528,-0.43109190464020,11.18393230438232,0.08370972424746,-0.12094026803970,9.76891613006592,0.24405242502689,-1.06279861927032,-0.88360142707825
256,1885092599,-0.67309713363647,-0.43120226264000,11.18360900878906,0.10217121243477,-0.10396657139063,9.78333663940430,0.25539955496788,-1.09010326862335,-0.85978019237518
257,1885100932,-0.67324137687683,-0.43143355846405,11.18335628509521,0.08016899973154,-0.10358714312315,9.81398010253906,0.19131271541119,-1.10718810558319,-0.88180845975876
258,1885109265,-0.67291224002838,-0.43095394968987,11.18280029296875,0.08483272045851,-0.11321520060301,9.80156230926514,0.24935457110405,-1.01840913295746,-0.85995948314667
259,1885117598,-0.67354792356491,-0.43037378787994,11.18177032470703,0.07664271444082,-0.11885879188776,9.80748462677002,0.13239997625351,-1.00818908214569,-0.97540277242661
260,1885125931,-0.67395257949829,-0.42946913838387,11.18136978149414,0.07581292837858,-0.12335048615932,9.78768634796143,0.16121600568295,-0.96889680624008,-0.90319627523422
261,1885134264,-0.67411118745804,-0.42969277501106,11.18126678466797,0.08585557341576,-0.11096920818090,9.77955245971680,0.19018568098545,-1.10485720634460,-0.86554342508316
262,1885142597,-0.67390179634094,-0.42947304248810,11.18116950988770,0.08664238452911,-0.11703481525183,9.78198528289795,0.23470322787762,-1.05073428153992,-0.84820258617401
263,1885150930,-0.67474752664566,-0.42927101254463,11.18056964874268,0.06715799868107,-0.11638358235359,9.80468177795410,0.10783592611551,-1.05457639694214,-0.92358523607254
264,1885159263,-0.67477297782898,-0.42846614122391,11.18034744262695,0.08363103866577,-0.11986018717289,9.76313686370850,0.20742405951023,-0.97975713014603,-0.91595208644867
265,1885167596,-0.67471498250961,-0.42826244235039,11.17976856231689,0.07089897990227,-0.12471696734428,9.76430320739746,0.21556942164898,-1.05337274074554,-0.92040920257568
266,1885175929,-0.67433935403824,-0.42747679352760,11.18021965026855,0.09594116359949,-0.10881647467613,9.78496742248535,0.25511777400970,-0.98342001438141,-0.82952982187271
267,1885184262,-0.67419952154160,-0.42763930559158,11.18031787872314,0.07415352016687,-0.10347302258015,9.79578971862793,0.22612245380878,-1.09845352172852,-0.83987784385681
268,1885192595,-0.67429071664810,-0.42758792638779,11.18012142181396,0.06308085471392,-0.10812921822071,9.78149890899658,0.19879205524921,-1.07096946239471,-0.85750055313110
269,1885200928,-0.67460006475449,-0.42753246426582,11.18036556243896,0.09238617867231,-0.10695675760508,9.79413032531738,0.17246064543724,-1.07219910621643,-0.82325434684753
270,1885209261,-0.67432206869125,-0.42673078179359,11.18037891387939,0.07198628038168,-0.11455306410789,9.80363655090332,0.24333523213863,-0.98106360435486,-0.83616387844086
271,1885217594,-0.67412519454956,-0.42660084366798,11.18061923980713,0.07055564224720,-0.10869459807873,9.78824329376221,0.23349936306477,-1.06443798542023,-0.82212728261948
272,1885225927,-0.67437160015106,-0.42651301622391,11.18009281158447,0.08964657783508,-0.08938192576170,9.80878639221191,0.17919717729092,-1.06592345237732,-0.93488109111786
273,1885234260,-0.67384433746338,-0.42659410834312,11.17970466613770,0.06922530382872,-0.11214976012707,9.78039646148682,0.27256107330322,-1.08749079704285,-0.89845782518387
274,1885242593,-0.67387145757675,-0.42664009332657,11.17945480346680,0.07494749128819,-0.09788665920496,9.79439544677734,0.20557983219624,-1.08231675624847,-0.86718273162842
275,1885250926,-0.67402249574661,-0.42668899893761,11.17995643615723,0.09206429868937,-0.09847348183393,9.77243614196777,0.19269587099552,-1.08621001243591,-0.79123657941818
276,1885259259,-0.67405056953430,-0.42624837160110,11.18028259277344,0.10628409683704,-0.11910913884640,9.79201984405518,0.20665565133095,-1.02386510372162,-0.83260351419449
277,1885267592,-0.67440187931061,-0.42644861340523,11.18040180206299,0.09132754802704,-0.12557561695576,9.77606201171875,0.16649255156517,-1.10357654094696,-0.83770084381104
278,1885275925,-0.67386949062347,-0.42619901895523,11.18087768554688,0.08230784535408,-0.11625543981791,9.77428817749023,0.27463582158089,-1.04789113998413,-0.78442311286926
279,1885284258,-0.67420250177383,-0.42667812108994,11.18117046356201,0.08338779211044,-0.11636213958263,9.78378105163574,0.16907955706120,-1.13628590106964,-0.81751674413681
280,1885292591,-0.67423367500305,-0.42625397443771,11.18129920959473,0.07908898591995,-0.10651298612356,9.78895854949951,0.20734722912312,-1.02737414836884,-0.83716285228729
281,1885300924,-0.67401403188705,-0.42691060900688,11.18125247955322,0.08136358857155,-0.11145559698343,9.76468181610107,0.23542040586472,-1.15754568576813,-0.85793584585190
282,1885309257,-0.67400062084198,-0.42693892121315,11.18122291564941,0.06391071528196,-0.11334425956011,9.79797172546387,0.21124058961868,-1.08057487010956,-0.84505200386047
283,1885317590,-0.67381238937378,-0.42822286486626,11.18095684051514,0.08253665268421,-0.10393080860376,9.82004547119141,0.23160390555859,-1.23280024528503,-0.88521510362625
284,1885325923,-0.67384129762650,-0.42778676748276,11.18055915832520,0.07456839084625,-0.12527489662170,9.81279182434082,0.20752651989460,-1.02453100681305,-0.89945662021637
285,1885334256,-0.67418378591537,-0.42772403359413,11.18109703063965,0.08399588614702,-0.10346616059542,9.78214263916016,0.16802938282490,-1.07237839698792,-0.78690773248672
286,1885342589,-0.67404210567474,-0.42722150683403,11.18137741088867,0.08306589722633,-0.09724977612495,9.79539680480957,0.22814598679543,-1.01735889911652,-0.80857735872269
287,1885350922,-0.67359048128128,-0.42709612846375,11.18178176879883,0.07025521993637,-0.10031147301197,9.75891685485840,0.26282766461372,-1.06387448310852,-0.80304473638535
288,1885359255,-0.67333912849426,-0.42703974246979,11.18139553070068,0.07753681391478,-0.12566114962101,9.76521873474121,0.23946750164032,-1.06948399543762,-0.91597777605057
289,1885367588,-0.67233377695084,-0.42780283093452,11.18094730377197,0.07830227911472,-0.09946063905954,9.76760768890381,0.32978326082230,-1.17086505889893,-0.90547597408295
290,1885375921,-0.67290407419205,-0.42694842815399,11.18082332611084,0.09218584001064,-0.12126214802265,9.76976776123047,0.14149302244186,-0.97430139780045,-0.87099921703339
291,1885384254,-0.67337477207184,-0.42652121186256,11.18062496185303,0.08082002401352,-0.12121238559484,9.79675579071045,0.15301945805550,-1.02686190605164,-0.87553304433823
292,1885392587,-0.67247939109802,-0.42610087990761,11.18107604980469,0.04456936568022,-0.12759241461754,9.78841495513916,0.31823128461838,-1.02844989299774,-0.78875195980072
293,1885400920,-0.67248845100403,-0.42653742432594,11.18145847320557,0.07736508548260,-0.11453817039728,9.77064132690430,0.20765459537506,-1.13090682029724,-0.80673313140869
294,1885409253,-0.67230230569839,-0.42690476775169,11.18155956268311,0.08395999670029,-0.10562571138144,9.79849433898926,0.23293584585190,-1.12201869487762,-0.85752612352371
295,1885417586,-0.67244160175323,-0.42690420150757,11.18206405639648,0.08050530403852,-0.11481057107449,9.78187751770020,0.19284956157207,-1.07901239395142,-0.79131335020065
296,1885425919,-0.67267900705338,-0.42768278717995,11.18268489837646,0.07609909772873,-0.11654842644930,9.76525402069092,0.18211722373962,-1.17258119583130,-0.76746654510498
297,1885434252,-0.67390799522400,-0.42840769886971,11.18282794952393,0.08750070631504,-0.11248528212309,9.78351593017578,0.06224259361625,-1.16489696502686,-0.83603584766388
298,1885442585,-0.67350977659225,-0.42799127101898,11.18306064605713,0.09909540414810,-0.11256400495768,9.78743553161621,0.25847321748734,-1.02842426300049,-0.83652245998383
299,1885450918,-0.67352193593979,-0.42786425352097,11.18297100067139,0.08036934584379,-0.10559026896954,9.76963233947754,0.20688617229462,-1.06410503387451,-0.86285388469696
300,1885459251,-0.67337673902512,-0.42853206396103,11.18282508850098,0.07346677780151,-0.10448125004768,9.76365947723389,0.22686527669430,-1.15664911270142,-0.85734683275223
301,1885467584,-0.67352658510208,-0.42781192064285,11.18252372741699,0.10472470521927,-0.10963848233223,9.79530429840088,0.19200430810452,-0.99171912670135,-0.88734108209610
302,1885475917,-0.67322599887848,-0.42812430858612,11.18187618255615,0.06813807040453,-0.12141271680593,9.79345130920410,0.24464155733585,-1.11479556560516,-0.94602328538895
303,1885484250,-0.67281705141068,-0.42800793051720,11.18099117279053,0.08016906678677,-0.11715641617775,9.80396556854248,0.25773042440414,-1.06310582160950,-0.95765221118927
304,1885492583,-0.67263054847717,-0.42854776978493,11.18078613281250,0.07670708745718,-0.11331533640623,9.77321529388428,0.23214183747768,-1.14171624183655,-0.90870332717896
305,1885500916,-0.67332893610001,-0.42802393436432,11.18114852905273,0.07519783824682,-0.11069024354219,9.81628227233887,0.12540730834007,-1.01559162139893,-0.80801385641098
306,1885509249,-0.67351621389389,-0.42744779586792,11.18175506591797,0.06111389026046,-0.11499625444412,9.78363037109375,0.18747058510780,-1.00854766368866,-0.78941792249680
307,1885517582,-0.67341291904449,-0.42702659964561,11.18098258972168,0.08921033889055,-0.10577657073736,9.79434490203857,0.22102522850037,-1.02801442146301,-0.94338500499725
308,1885525915,-0.67309808731079,-0.42723241448402,11.18059539794922,0.08181421458721,-0.11990310996771,9.77343750000000,0.24835561215878,-1.10101509094238,-0.90089106559753
309,1885534248,-0.67281132936478,-0.42698305845261,11.18067073822021,0.07740091532469,-0.10773611813784,9.79253482818604,0.24343767762184,-1.04876196384430,-0.84318214654922
310,1885542581,-0.67216497659683,-0.42776006460190,11.18186378479004,0.08193581551313,-0.12401599436998,9.79953765869141,0.28785276412964,-1.17104434967041,-0.75099653005600
311,1885550914,-0.67239212989807,-0.42725142836571,11.18202686309814,0.09177812933922,-0.10877328366041,9.80345726013184,0.18188670277596,-1.01817870140076,-0.83088743686676
312,1885559247,-0.67260384559631,-0.42812037467957,11.18325424194336,0.06994049996138,-0.12779983878136,9.78208541870117,0.18572880327702,-1.18349277973175,-0.75535094738007
313,1885567580,-0.67373228073120,-0.42812684178352,11.18381977081299,0.08079136162996,-0.13181973993778,9.80234146118164,0.07494725286961,-1.07988345623016,-0.78411579132080
314,1885575913,-0.67389988899231,-0.42763224244118,11.18381214141846,0.08325909078121,-0.12398737668991,9.80207729339600,0.18977588415146,-1.01805055141449,-0.88086080551147
315,1885584246,-0.67304515838623,-0.42720127105713,11.18364334106445,0.07942517101765,-0.13774229586124,9.78063297271729,0.31134101748466,-1.02711796760559,-0.87107604742050
316,1885592579,-0.67360204458237,-0.42745399475098,11.18320083618164,0.08252239972353,-0.12100498378277,9.79179096221924,0.14300426840782,-1.10629165172577,-0.91436415910721
317,1885600912,-0.67389148473740,-0.42712509632111,11.18321609497070,0.07762265205383,-0.12827908992767,9.80454444885254,0.17481712996960,-1.03915667533875,-0.85076397657394
318,1885609245,-0.67441421747208,-0.42696368694305,11.18406009674072,0.06741554290056,-0.13252787292004,9.77313709259033,0.14733308553696,-1.05839300155640,-0.77141106128693
319,1885617578,-0.67480814456940,-0.42693468928337,11.18442058563232,0.08877393603325,-0.12367980927229,9.77539730072021,0.16336759924889,-1.07657897472382,-0.80814188718796
320,1885625911,-0.67432534694672,-0.42641150951385,11.18420219421387,0.06360299140215,-0.11590436846018,9.78958892822266,0.26690033078194,-1.01351690292358,-0.88664960861206
321,1885634244,-0.67455369234085,-0.42634585499763,11.18441486358643,0.06529830396175,-0.12532496452332,9.78343677520752,0.18204037845135,-1.07150745391846,-0.82517546415329
322,1885642577,-0.67500847578049,-0.42657679319382,11.18434333801270,0.06808076053858,-0.11462430655956,9.78754997253418,0.15586261451244,-1.10590732097626,-0.85734683275223
323,1885650910,-0.67578476667404,-0.42677870392799,11.18389987945557,0.08364530652761,-0.11943068355322,9.78957462310791,0.11554580181837,-1.10170662403107,-0.90616762638092
324,1885659243,-0.67566788196564,-0.42685380578041,11.18310546875000,0.08398152887821,-0.11225672066212,9.79905128479004,0.22327929735184,-1.08626139163971,-0.90283769369125
325,1885667576,-0.67591637372971,-0.42701038718224,11.18327713012695,0.08160678297281,-0.11730662733316,9.78131961822510,0.17955577373505,-1.09740340709686,-0.83134835958481
326,1885675909,-0.67612868547440,-0.42701974511147,11.18296337127686,0.08521890640259,-0.11141951382160,9.77461051940918,0.18449933826923,-1.07773184776306,-0.88995373249054
327,1885684242,-0.67599338293076,-0.42708599567413,11.18290615081787,0.08719315379858,-0.11423805356026,9.78717041015625,0.22617368400097,-1.08743941783905,-0.85770553350449
328,1885692575,-0.67585456371307,-0.42758139967918,11.18314266204834,0.09180666506290,-0.09789348393679,9.80752849578857,0.22650666534901,-1.13710546493530,-0.84361761808395
329,1885700908,-0.67572093009949,-0.42727690935135,11.18399906158447,0.09184250235558,-0.12683421373367,9.81051731109619,0.22627615928650,-1.04412591457367,-0.74820464849472
330,1885709241,-0.67521715164185,-0.42720758914948,11.18353462219238,0.08136358857155,-0.12121923267841,9.78527545928955,0.26938492059708,-1.06784462928772,-0.90524542331696
331,1885717574,-0.67524713277817,-0.42740464210510,11.18350791931152,0.09137757122517,-0.10771466046572,9.76578330993652,0.20606651902199,-1.10137379169464,-0.85545134544373
332,1885725907,-0.67456662654877,-0.42720672488213,11.18327522277832,0.08976102620363,-0.09662060439587,9.78987407684326,0.29151558876038,-1.05488371849060,-0.87527680397034
333,1885734240,-0.67424029111862,-0.42665630578995,11.18257617950439,0.07893153280020,-0.12809994816780,9.76939678192139,0.24789457023144,-1.01000785827637,-0.93585461378098
334,1885742573,-0.67446374893188,-0.42688766121864,11.18227863311768,0.07475430518389,-0.10023961216211,9.77873802185059,0.18209157884121,-1.10583043098450,-0.89310431480408
335,1885750906,-0.67427724599838,-0.42617380619049,11.18248367309570,0.08350228518248,-0.11835093796253,9.78649806976318,0.23262847959995,-0.99248754978180,-0.82663536071777
336,1885759239,-0.66889810562134,-0.43753460049629,11.18377304077148,0.07912468910217,-0.11021070927382,9.79129123687744,0.18065719306469,-1.09348452091217,-0.81134366989136
337,1885767572,-0.66826307773590,-0.43754026293755,11.18391990661621,0.08787258714437,-0.11130508780479,9.77628421783447,0.28572675585747,-1.08062601089478,-0.83367925882339
338,1885775905,-0.66784965991974,-0.43863299489021,11.18412971496582,0.08226484805346,-0.10772896558046,9.76876640319824,0.26039430499077,-1.20836436748505,-0.85829454660416
339,1885784238,-0.66739684343338,-0.43799114227295,11.18372535705566,0.09258639812469,-0.11390902101994,9.78283596038818,0.26177749037743,-0.99878859519958,-0.89927744865417
340,1885792571,-0.66760933399200,-0.43711179494858,11.18340969085693,0.07900314778090,-0.11445263773203,9.78154850006104,0.18373091518879,-0.97191941738129,-0.85693699121475
341,1885800904,-0.66717869043350,-0.43726101517677,11.18311691284180,0.07240822911263,-0.11428096890450,9.80209159851074,0.26072728633881,-1.09509813785553,-0.88772529363632
342,1885809237,-0.66697406768799,-0.43714725971222,11.18278789520264,0.06449003517628,-0.11907337605953,9.79689884185791,0.23439584672451,-1.06433558464050,-0.81636410951614
343,1885817570,-0.66718351840973,-0.43632686138153,11.18250751495361,0.08673537522554,-0.11844392865896,9.81033134460449,0.18337231874466,-0.97870707511902,-0.88424187898636
344,1885825903,-0.66706186532974,-0.43635278940201,11.18233299255371,0.08564821630716,-0.10280815511942,9.77042579650879,0.22417579591274,-1.07832086086273,-0.92665892839432
345,1885834236,-0.66775041818619,-0.43627038598061,11.18145275115967,0.07875284552574,-0.11694218218327,9.76479625701904,0.12543290853500,-1.06774210929871,-0.95629459619522
346,1885842569,-0.66795194149017,-0.43628099560738,11.18146419525146,0.05332444608212,-0.09991806000471,9.74884605407715,0.18542143702507,-1.07832086086273,-0.84915024042130
347,1885850902,-0.66806536912918,-0.43695804476738,11.18107318878174,0.07798744738102,-0.12948791682720,9.77774333953857,0.19430957734585,-1.15731513500214,-0.90002012252808
348,1885859235,-0.66741842031479,-0.43667444586754,11.18036460876465,0.07790151238441,-0.12807132303715,9.80314350128174,0.28723803162575,-1.04256343841553,-0.96257025003433
349,1885867568,-0.66801816225052,-0.43669104576111,11.17984104156494,0.07252267748117,-0.12714178860188,9.78351593017578,0.13596035540104,-1.07911479473114,-0.91397994756699
350,1885875901,-0.66810154914856,-0.43727079033852,11.18019866943359,0.06522677838802,-0.11641252040863,9.80670547485352,0.20048260688782,-1.14640343189240,-0.82115381956100
351,1885884234,-0.66812247037888,-0.43760451674461,11.18018341064453,0.06621392816305,-0.13185583055019,9.77832984924316,0.20547740161419,-1.11812531948090,-0.85378658771515
352,1885892567,-0.66803699731827,-0.43774336576462,11.18129920959473,0.07762987166643,-0.11334423720837,9.80747795104980,0.22156311571598,-1.09412491321564,-0.78452557325363
353,1885900900,-0.66780263185501,-0.43792641162872,11.18207645416260,0.08957505226135,-0.12068992108107,9.79611206054688,0.23752079904079,-1.10096383094788,-0.75983339548111
354,1885909233,-0.66791766881943,-0.43782460689545,11.18162155151367,0.07335240393877,-0.12433786690235,9.79849338531494,0.19505238533020,-1.06487321853638,-0.86175239086151
355,1885917566,-0.66786116361618,-0.43780559301376,11.18114852905273,0.07637083530426,-0.10728516429663,9.76197147369385,0.21554380655289,-1.07412004470825,-0.90870332717896
356,1885925899,-0.66835814714432,-0.43844825029373,11.18037700653076,0.07144974917173,-0.11136261373758,9.80036067962646,0.14917731285095,-1.15357553958893,-0.86546659469604
357,1885934232,-0.66894018650055,-0.43824887275696,11.18013858795166,0.07518358528614,-0.10550474375486,9.77069759368896,0.13949511945248,-1.05421793460846,-0.88093763589859
358,1885942565,-0.66896182298660,-0.43875178694725,11.17963314056396,0.08578411489725,-0.10373088717461,9.80565357208252,0.20752651989460,-1.13633704185486,-0.91298085451126
359,1885950898,-0.66814553737640,-0.43874114751816,11.17883110046387,0.07602756470442,-0.12632635235786,9.81011676788330,0.30542415380478,-1.07609248161316,-0.94781637191772
360,1885959231,-0.66804695129395,-0.43896502256393,11.17877674102783,0.07985426485538,-0.11978116631508,9.79390239715576,0.22074347734451,-1.10255193710327,-0.92860561609268
361,1885967564,-0.66853410005569,-0.43982291221619,11.17864227294922,0.08153525739908,-0.11943817138672,9.77095508575439,0.15120083093643,-1.17993259429932,-0.87089687585831
362,1885975897,-0.66840404272079,-0.43989890813828,11.17939376831055,0.09685664623976,-0.10944564640522,9.78210639953613,0.22484174370766,-1.08644056320190,-0.75453126430511
363,1885984230,-0.66854721307755,-0.44006267189980,11.17945766448975,0.10000389814377,-0.12862242758274,9.80020332336426,0.19226042926311,-1.09789001941681,-0.84484708309174
364,1885992563,-0.66904652118683,-0.44030705094337,11.18010520935059,0.09360210597515,-0.11947393417358,9.79227733612061,0.15053486824036,-1.10846889019012,-0.76697993278503
365,1886000896,-0.66862058639526,-0.44089844822884,11.18005084991455,0.08900997787714,-0.13077542185783,9.76782894134521,0.25939536094666,-1.14776098728180,-0.86029249429703
366,1886009229,-0.66865134239197,-0.44160720705986,11.18076133728027,0.08019052445889,-0.11066878587008,9.77627658843994,0.20768021047115,-1.16394925117493,-0.75978219509125
367,1886017562,-0.66838985681534,-0.44123494625092,11.18054008483887,0.07659979164600,-0.11594758182764,9.77405929565430,0.23995415866375,-1.03234338760376,-0.87832486629486
368,1886025895,-0.66692626476288,-0.44069340825081,11.18025302886963,0.06967595964670,-0.10948887467384,9.78469562530518,0.38485386967659,-1.01172375679016,-0.87694174051285
369,1886034228,-0.66651296615601,-0.44069823622704,11.18000507354736,0.07257274538279,-0.11546119302511,9.78863716125488,0.25806340575218,-1.07788538932800,-0.88242316246033
370,1886042561,-0.66613835096359,-0.44095349311829,11.17988395690918,0.07384595274925,-0.10841564089060,9.79213428497314,0.25434935092926,-1.10695743560791,-0.86423707008362
371,1886050894,-0.66633874177933,-0.44027295708656,11.17975521087646,0.07168585062027,-0.12820069491863,9.81112575531006,0.18480670452118,-0.99625289440155,-0.86700350046158
372,1886059227,-0.66683262586594,-0.43972343206406,11.17996692657471,0.07674995809793,-0.11001759767532,9.80117607116699,0.15035557746887,-1.01164710521698,-0.81907927989960
373,1886067560,-0.66706252098083,-0.44011422991753,11.18018054962158,0.08632051199675,-0.10832265019417,9.75983238220215,0.18173299729824,-1.12563049793243,-0.82737821340561
374,1886075893,-0.66705352067947,-0.44016018509865,11.17949962615967,0.07220795005560,-0.12257827073336,9.79003906250000,0.21011357009411,-1.08152258396149,-0.90959990024567
375,1886084226,-0.66699409484863,-0.44030299782753,11.17965507507324,0.08908150345087,-0.11764280498028,9.78435993194580,0.21559500694275,-1.09366381168365,-0.83365368843079
376,1886092559,-0.66804492473602,-0.44020637869835,11.18022537231445,0.07099909335375,-0.10639826208353,9.76385307312012,0.08452696353197,-1.06707620620728,-0.77151346206665
377,1886100892,-0.66777300834656,-0.43990561366081,11.18045330047607,0.09207854419947,-0.10915238410234,9.79003143310547,0.24208013713360,-1.04161560535431,-0.82456064224243
378,1886109225,-0.66823178529739,-0.44039845466614,11.17971611022949,0.10138434171677,-0.12930160760880,9.79910182952881,0.15399278700352,-1.13492834568024,-0.90245348215103
379,1886117558,-0.66817325353622,-0.43974339962006,11.18002128601074,0.07050544768572,-0.12333591282368,9.78749847412109,0.21549254655838,-0.99973642826080,-0.81428933143616
380,1886125891,-0.66778635978699,-0.44011655449867,11.17947959899902,0.07697173953056,-0.11477451771498,9.77887344360352,0.25616797804832,-1.12191629409790,-0.86654233932495
381,1886134224,-0.66773808002472,-0.44002151489258,11.17900276184082,0.07768702507019,-0.10063334554434,9.78413105010986,0.21485219895840,-1.06579542160034,-0.90916448831558
382,1886142557,-0.66744667291641,-0.43963876366615,11.17878532409668,0.07740083336830,-0.11398025602102,9.76220798492432,0.24387313425541,-1.03031969070435,-0.86690098047256
383,1886150890,-0.66750711202621,-0.43826833367348,11.17865848541260,0.07220079749823,-0.12388008832932,9.79360103607178,0.20271106064320,-0.91357004642487,-0.86482620239258
384,1886159223,-0.66800665855408,-0.43745186924934,11.17914009094238,0.07167157530785,-0.09202185273170,9.79549789428711,0.14940784871578,-0.97960364818573,-0.78562712669373
385,1886167556,-0.66805827617645,-0.43792203068733,11.17927551269531,0.08604154735804,-0.12955228984356,9.77664852142334,0.20240367949009,-1.13413429260254,-0.83575403690338
386,1886175889,-0.66807067394257,-0.43781018257141,11.18000411987305,0.08331631124020,-0.12086158990860,9.75647068023682,0.20888407528400,-1.06448924541473,-0.75980788469315
387,1886184222,-0.66839247941971,-0.43772378563881,11.18069839477539,0.06642130017281,-0.10008257627487,9.77428817749023,0.17094938457012,-1.06820321083069,-0.76782506704330
388,1886192555,-0.66904056072235,-0.43865984678268,11.18099117279053,0.06525534391403,-0.10687745362520,9.78655624389648,0.13327085971832,-1.18997335433960,-0.82012945413589
389,1886200888,-0.66925030946732,-0.43845495581627,11.18120288848877,0.08348082751036,-0.11933802813292,9.77470302581787,0.18275757133961,-1.05296277999878,-0.82566207647324
390,1886209221,-0.66878294944763,-0.43893080949783,11.18137836456299,0.07620646804571,-0.10855902731419,9.75204277038574,0.26579889655113,-1.13398051261902,-0.84200388193130
391,1886217554,-0.66853815317154,-0.43885692954063,11.18222618103027,0.07521214336157,-0.11612640321255,9.77556896209717,0.23959554731846,-1.07094395160675,-0.75038170814514
392,1886225887,-0.66933280229568,-0.43855422735214,11.18267059326172,0.08178564161062,-0.11780761927366,9.79325008392334,0.11493107676506,-1.03961765766144,-0.83916068077087
393,1886234220,-0.66946291923523,-0.43865042924881,11.18277835845947,0.08556225150824,-0.10614788532257,9.77057647705078,0.19243973493576,-1.09018015861511,-0.83859717845917
394,1886242553,-0.66919231414795,-0.43813106417656,11.18261241912842,0.07009778916836,-0.11476708948612,9.78519725799561,0.24287416040897,-1.01530981063843,-0.81959152221680
395,1886250886,-0.66908115148544,-0.43880727887154,11.18294334411621,0.09585525095463,-0.12292876094580,9.76704978942871,0.22253645956516,-1.15867280960083,-0.81357216835022
396,1886259219,-0.66925925016403,-0.43872621655464,11.18304634094238,0.08599869161844,-0.10483237355947,9.79056072235107,0.18739375472069,-1.06661522388458,-0.84364318847656
397,1886267552,-0.66988945007324,-0.43846133351326,11.18294811248779,0.09529017657042,-0.10355886071920,9.78163433074951,0.13383437693119,-1.04673850536346,-0.86246979236603
398,1886275885,-0.66947436332703,-0.43870246410370,11.18299484252930,0.05760184302926,-0.11735669523478,9.81662559509277,0.25988203287125,-1.10539495944977,-0.84246492385864
399,1886284218,-0.66909301280975,-0.43830004334450,11.18307876586914,0.08283707499504,-0.12871541082859,9.78062534332275,0.25496411323547,-1.03016614913940,-0.84226012229919
400,1886292551,-0.66930609941483,-0.43882739543915,11.18271923065186,0.06572038680315,-0.11642718315125,9.77933120727539,0.18265511095524,-1.13813006877899,-0.92589050531387
401,1886300884,-0.66898781061172,-0.43836846947670,11.18214893341064,0.07484019547701,-0.11159150302410,9.79421615600586,0.24671633541584,-1.02245616912842,-0.91958945989609
402,1886309217,-0.66810262203217,-0.43851959705353,11.18121242523193,0.06966868788004,-0.10493935644627,9.78164863586426,0.31566983461380,-1.09322834014893,-0.92640280723572
403,1886317550,-0.66794985532761,-0.43839439749718,11.18111419677734,0.08311610668898,-0.12577590346336,9.78016090393066,0.22737756371498,-1.06343889236450,-0.86298197507858
404,1886325883,-0.66851752996445,-0.43845641613007,11.18257045745850,0.08680690079927,-0.11621224135160,9.76656341552734,0.14205653965473,-1.08510863780975,-0.70158666372299
405,1886334216,-0.66853606700897,-0.43775388598442,11.18251800537109,0.08893129974604,-0.13159085810184,9.79154109954834,0.20724475383759,-0.99389624595642,-0.85808950662613
406,1886342549,-0.66848319768906,-0.43726617097855,11.18333148956299,0.06986884772778,-0.11155520379543,9.79626083374023,0.21597920358181,-1.01966416835785,-0.76810681819916
407,1886350882,-0.66877007484436,-0.43779855966568,11.18329429626465,0.07493323832750,-0.11883766949177,9.76702117919922,0.17425365746021,-1.14151144027710,-0.85721886157990
408,1886359215,-0.66857045888901,-0.43799328804016,11.18321990966797,0.08941768854856,-0.12988847494125,9.77910900115967,0.23360183835030,-1.09906840324402,-0.88470286130905
409,1886367548,-0.66843324899673,-0.43749988079071,11.18406677246094,0.09142048656940,-0.09365217387676,9.78724956512451,0.22527723014355,-1.02033030986786,-0.74971586465836
410,1886375881,-0.66861379146576,-0.43774038553238,11.18533611297607,0.07751535624266,-0.10340149700642,9.79942321777344,0.19026255607605,-1.10782849788666,-0.68934315443039
411,1886384214,-0.66842657327652,-0.43762135505676,11.18511295318604,0.08111330866814,-0.13645510375500,9.77416706085205,0.23145021498203,-1.06231188774109,-0.87917006015778
412,1886392547,-0.66883528232574,-0.43857222795486,11.18508434295654,0.08070552349091,-0.12336508184671,9.80616188049316,0.16039635241032,-1.19069051742554,-0.87950325012207
413,1886400880,-0.66934019327164,-0.43856292963028,11.18437767028809,0.09556198120117,-0.12635497748852,9.77028274536133,0.14720501005650,-1.07529842853546,-0.93623870611191
414,1886409213,-0.66916924715042,-0.43851286172867,11.18422412872314,0.08333062380552,-0.10641999542713,9.79282093048096,0.23047688603401,-1.07135367393494,-0.85847383737564
415,1886417546,-0.66895520687103,-0.43866410851479,11.18509197235107,0.05981207266450,-0.14878629148006,9.81094646453857,0.23516426980495,-1.09755706787109,-0.74764102697372
416,1886425879,-0.66972297430038,-0.43888393044472,11.18494796752930,0.08258676528931,-0.10892382264137,9.81196212768555,0.11682653427124,-1.10268008708954,-0.86992341279984
417,1886434212,-0.67039608955383,-0.43848243355751,11.18519687652588,0.07353122532368,-0.12629058957100,9.77943134307861,0.12873715162277,-1.02990996837616,-0.82112836837769
418,1886442545,-0.67122465372086,-0.43811979889870,11.18551921844482,0.06954709440470,-0.09903826564550,9.79053211212158,0.11029490083456,-1.03405952453613,-0.81574934720993
419,1886450878,-0.67101943492889,-0.43815565109253,11.18539237976074,0.08549793064594,-0.10594075918198,9.77072620391846,0.23383232951164,-1.08131766319275,-0.86797672510147
420,1886459211,-0.67094618082047,-0.43781828880310,11.18559646606445,0.09181389212608,-0.10719250142574,9.78662014007568,0.21802836656570,-1.03592920303345,-0.81913042068481
421,1886467544,-0.67031377553940,-0.43816167116165,11.18553066253662,0.08887416124344,-0.10971778631210,9.75814437866211,0.28459975123405,-1.11935484409332,-0.86054861545563
422,1886475877,-0.66982257366180,-0.43805190920830,11.18560886383057,0.08190729469061,-0.12027536332607,9.77646255493164,0.27007648348808,-1.06407940387726,-0.85020047426224
423,1886484210,-0.66987431049347,-0.43873685598373,11.18514060974121,0.07554832845926,-0.13480247557163,9.79566097259521,0.20184016227722,-1.15913379192352,-0.90839594602585
424,1886492543,-0.66980189085007,-0.43807795643806,11.18458557128906,0.08011899143457,-0.10187794268131,9.77191352844238,0.21705502271652,-0.99694442749023,-0.90491247177124
425,1886500876,-0.67028492689133,-0.43716037273407,11.18385124206543,0.08385988324881,-0.12096858024597,9.75935363769531,0.15094467997551,-0.96648895740509,-0.93997830152512
426,1886509209,-0.67003452777863,-0.43633356690407,11.18385791778564,0.09576927125454,-0.11708434671164,9.80209732055664,0.24000537395477,-0.97921937704086,-0.80550366640091
427,1886517542,-0.67007076740265,-0.43551003932953,11.18391704559326,0.07666423171759,-0.11454591155052,9.79329299926758,0.20342825353146,-0.97834849357605,-0.84338706731796
428,1886525875,-0.67001026868820,-0.43601751327515,11.18450546264648,0.06312383711338,-0.11175601929426,9.76239299774170,0.21831011772156,-1.13864243030548,-0.79869025945663
429,1886534208,-0.66975605487823,-0.43627375364304,11.18418598175049,0.08453221619129,-0.11418050527573,9.78842258453369,0.23846852779388,-1.10793101787567,-0.89102965593338
430,1886542541,-0.67038518190384,-0.43627256155014,11.18320655822754,0.08628469705582,-0.11377993226051,9.81136226654053,0.13409054279327,-1.07558023929596,-0.95291364192963
431,1886550874,-0.67106246948242,-0.43644136190414,11.18374633789062,0.08607011288404,-0.11519625037909,9.75582790374756,0.12732836604118,-1.09901714324951,-0.78595995903015
432,1886559207,-0.67166578769684,-0.43560552597046,11.18344593048096,0.07805187255144,-0.10459632426500,9.81754207611084,0.13695931434631,-0.97578710317612,-0.89663898944855
433,1886567540,-0.67174190282822,-0.43567377328873,11.18383979797363,0.09097701311111,-0.09794387966394,9.78031826019287,0.19968856871128,-1.08610761165619,-0.80427420139313
434,1886575873,-0.67117321491241,-0.43487489223480,11.18370342254639,0.08272262662649,-0.11509639769793,9.78595447540283,0.27852916717529,-0.98178076744080,-0.88483089208603
435,1886584206,-0.67184978723526,-0.43438291549683,11.18344116210938,0.08250808715820,-0.11579768359661,9.79750633239746,0.12681606411934,-1.01830673217773,-0.88293546438217
436,1886592539,-0.67254960536957,-0.43460729718208,11.18352317810059,0.06471177190542,-0.11192768812180,9.77542591094971,0.12584273517132,-1.10308980941772,-0.82276761531830
437,1886600872,-0.67253381013870,-0.43418356776237,11.18307018280029,0.07454692572355,-0.10793639719486,9.79377269744873,0.21095882356167,-1.02640068531036,-0.90550154447556
438,1886609205,-0.67177635431290,-0.43391284346581,11.18367099761963,0.07633513957262,-0.11340117454529,9.80194854736328,0.30063426494598,-1.04512476921082,-0.81267559528351
439,1886617538,-0.67221397161484,-0.43429306149483,11.18315124511719,0.07965406030416,-0.14902232587337,9.79526805877686,0.15622121095657,-1.12230050563812,-0.91597777605057
440,1886625871,-0.67219322919846,-0.43353015184402,11.18256568908691,0.07585596293211,-0.11411675065756,9.79085445404053,0.21221394836903,-0.98518759012222,-0.86293083429337
441,1886634204,-0.67238229513168,-0.43344134092331,11.18250274658203,0.08161393553019,-0.12846505641937,9.78280735015869,0.18572881817818,-1.06689691543579,-0.85842263698578
442,1886642537,-0.67249506711960,-0.43313512206078,11.18285942077637,0.07811620086432,-0.11405923217535,9.80809974670410,0.19553905725479,-1.04120576381683,-0.86887323856354
443,1886650870,-0.67227822542191,-0.43252113461494,11.18329048156738,0.07072015851736,-0.10645575821400,9.80581092834473,0.23577904701233,-1.00460314750671,-0.79940760135651
444,1886659203,-0.67245864868164,-0.43188288807869,11.18304061889648,0.06818804889917,-0.11024677008390,9.79035377502441,0.18813656270504,-0.99914717674255,-0.88964641094208
445,1886667536,-0.67270874977112,-0.43241867423058,11.18337249755859,0.08836616575718,-0.11326495558023,9.78770065307617,0.17894102632999,-1.14284300804138,-0.81226587295532
446,1886675869,-0.67319118976593,-0.43296411633492,11.18425464630127,0.07800170779228,-0.12133337557316,9.80930233001709,0.15173871815205,-1.14217710494995,-0.78613919019699
447,1886684202,-0.67277532815933,-0.43323698639870,11.18479156494141,0.07790876179934,-0.11283610016108,9.80578231811523,0.25921607017517,-1.11079967021942,-0.78916174173355
448,1886692535,-0.67190754413605,-0.43337407708168,11.18452262878418,0.08868809789419,-0.11750690639019,9.76828002929688,0.31362068653107,-1.09330523014069,-0.90224856138229
449,1886700868,-0.67206496000290,-0.43395206332207,11.18379878997803,0.07884572446346,-0.11904440820217,9.78738594055176,0.18962216377258,-1.14622414112091,-0.94054168462753
450,1886709201,-0.67210561037064,-0.43437644839287,11.18309593200684,0.08159963041544,-0.11456708610058,9.78619098663330,0.20463210344315,-1.12726962566376,-0.92663329839706
451,1886717534,-0.67153978347778,-0.43417242169380,11.18345928192139,0.08904574066401,-0.12199173867702,9.78131961822510,0.27655690908432,-1.05370569229126,-0.80824446678162
452,1886725867,-0.67231988906860,-0.43398237228394,11.18329429626465,0.07888155430555,-0.12453099340200,9.76578330993652,0.11593002825975,-1.05367994308472,-0.86538970470428
453,1886734200,-0.67235952615738,-0.43409368395805,11.18284606933594,0.07131384313107,-0.09556913375854,9.76844406127930,0.20396614074707,-1.09033393859863,-0.90609079599380
454,1886742533,-0.67317599058151,-0.43433275818825,11.18245029449463,0.08636347204447,-0.10956759005785,9.77006149291992,0.11170367896557,-1.10478031635284,-0.91039389371872
455,1886750866,-0.67250549793243,-0.43388596177101,11.18278980255127,0.08096294105053,-0.11213484406471,9.77087688446045,0.28918468952179,-1.02504324913025,-0.80993485450745
456,1886759199,-0.67249208688736,-0.43406030535698,11.18274211883545,0.08326631039381,-0.13040380179882,9.79326438903809,0.21116374433041,-1.09683990478516,-0.87227994203568
457,1886767532,-0.67247933149338,-0.43440824747086,11.18318462371826,0.07165002822876,-0.10727833956480,9.75710010528564,0.21031846106052,-1.11940598487854,-0.79920250177383
458,1886775865,-0.67237436771393,-0.43429702520370,11.18305301666260,0.07489734888077,-0.12016745656729,9.78823661804199,0.22207541763783,-1.06390011310577,-0.87010282278061
459,1886784198,-0.67207330465317,-0.43450310826302,11.18348503112793,0.06980459392071,-0.12521767616272,9.79986000061035,0.24540998041630,-1.10257744789124,-0.80081623792648
460,1886792531,-0.67279124259949,-0.43421041965485,11.18335247039795,0.08372398465872,-0.10616934299469,9.76707935333252,0.12371674925089,-1.04184615612030,-0.88734108209610
461,1886800864,-0.67323857545853,-0.43420559167862,11.18369388580322,0.08778683841228,-0.10024709254503,9.77549743652344,0.15450505912304,-1.07714259624481,-0.81124120950699
462,1886809197,-0.67295157909393,-0.43391132354736,11.18428516387939,0.05621419101954,-0.12113339453936,9.79478168487549,0.24497450888157,-1.04284501075745,-0.76283031702042
463,1886817530,-0.67308706045151,-0.43468046188354,11.18338775634766,0.07233670353889,-0.13310725986958,9.80428028106689,0.19251658022404,-1.16825246810913,-0.96121263504028
464,1886825863,-0.67265647649765,-0.43507164716721,11.18299484252930,0.07924634963274,-0.12179145962000,9.79994583129883,0.26031747460365,-1.12332499027252,-0.90860086679459
465,1886834196,-0.67396467924118,-0.43515777587891,11.18285179138184,0.09297980368137,-0.12694150209427,9.75785160064697,0.05227865651250,-1.08874583244324,-0.87025648355484
466,1886842529,-0.67347520589828,-0.43509721755981,11.18272781372070,0.07626369595528,-0.13069705665112,9.78949546813965,0.26748946309090,-1.06863868236542,-0.86518478393555
467,1886850862,-0.67397767305374,-0.43524035811424,11.18261528015137,0.08243651688099,-0.12877978384495,9.78504657745361,0.14953589439392,-1.09494447708130,-0.86672168970108
468,1886859195,-0.67476320266724,-0.43457999825478,11.18248176574707,0.07644958794117,-0.12154110521078,9.76903057098389,0.11418823897839,-0.99720060825348,-0.86667031049728
469,1886867528,-0.67487013339996,-0.43445467948914,11.18246078491211,0.08628468215466,-0.11659818887711,9.79901599884033,0.19684538245201,-1.06228625774384,-0.85432434082031
470,1886875861,-0.67459326982498,-0.43430012464523,11.18220043182373,0.07717202603817,-0.10297948122025,9.80232048034668,0.24241310358047,-1.05734276771545,-0.89920061826706
471,1886884194,-0.67412352561951,-0.43387714028358,11.18282699584961,0.06498357653618,-0.12249958515167,9.76235008239746,0.26592695713043,-1.02852666378021,-0.77666199207306
472,1886892527,-0.67406105995178,-0.43372642993927,11.18224334716797,0.08076990395784,-0.11698474735022,9.76243591308594,0.21690133213997,-1.05882835388184,-0.89474362134933
473,1886900860,-0.67432129383087,-0.43349438905716,11.18212032318115,0.08887407183647,-0.13054654002190,9.76748561859131,0.17786526679993,-1.04881334304810,-0.86774629354477
474,1886909193,-0.67403978109360,-0.43385994434357,11.18177890777588,0.07950376719236,-0.13537436723709,9.77627754211426,0.24215699732304,-1.11935484409332,-0.88352465629578
475,1886917526,-0.67384386062622,-0.43371105194092,11.18192958831787,0.09596253931522,-0.11817211657763,9.76738548278809,0.23332004249096,-1.06100559234619,-0.83449894189835
476,1886925859,-0.67359310388565,-0.43391498923302,11.18197441101074,0.07899599522352,-0.11543973535299,9.78136253356934,0.23839169740677,-1.10142505168915,-0.85645043849945
477,1886934192,-0.67406302690506,-0.43338027596474,11.18212032318115,0.09305133670568,-0.11650550365448,9.77650547027588,0.15324996411800,-1.01354253292084,-0.83393549919128
478,1886942525,-0.67384576797485,-0.43269291520119,11.18214130401611,0.07865974307060,-0.12250646203756,9.78800106048584,0.23557411134243,-0.99445986747742,-0.85232645273209
479,1886950858,-0.67384523153305,-0.43334236741066,11.18272876739502,0.08714308589697,-0.11847253888845,9.79883003234863,0.20993426442146,-1.15716147422791,-0.78278380632401
480,1886959191,-0.67531299591064,-0.43405103683472,11.18251037597656,0.06896056979895,-0.13441656529903,9.78016757965088,0.03227393329144,-1.16033768653870,-0.87217748165131
481,1886967524,-0.67514628171921,-0.43435531854630,11.18241786956787,0.06689338386059,-0.11243554204702,9.79739189147949,0.22932425141335,-1.11338675022125,-0.86433964967728
482,1886975857,-0.67528635263443,-0.43420273065567,11.18299770355225,0.08425333350897,-0.12021782994270,9.80565357208252,0.19287519156933,-1.05903339385986,-0.80993491411209
483,1886984190,-0.67543476819992,-0.43360003829002,11.18233585357666,0.06870312243700,-0.11562602967024,9.76612663269043,0.19146640598774,-1.00496160984039,-0.93121826648712
484,1886992523,-0.67546546459198,-0.43334609270096,11.18290615081787,0.08114906400442,-0.13710597157478,9.78955936431885,0.20660440623760,-1.04722511768341,-0.78619050979614
485,1887000856,-0.67579388618469,-0.43303695321083,11.18318367004395,0.07397469878197,-0.12547516822815,9.77093410491943,0.16905394196510,-1.04141056537628,-0.81910473108292
486,1887009189,-0.67669403553009,-0.43286523222923,11.18321132659912,0.07692882418633,-0.10126280039549,9.76643466949463,0.10127868503332,-1.05603647232056,-0.85765421390533
487,1887017522,-0.67713767290115,-0.43301504850388,11.18345260620117,0.09260790795088,-0.11121986061335,9.77457427978516,0.15606755018234,-1.09566175937653,-0.82340806722641
488,1887025855,-0.67681372165680,-0.43360665440559,11.18388175964355,0.07006924599409,-0.12066131085157,9.75831604003906,0.24853493273258,-1.14893937110901,-0.82993960380554
489,1887034188,-0.67689061164856,-0.43320408463478,11.18447208404541,0.08808004856110,-0.12426607310772,9.77309417724609,0.20058508217335,-1.03047347068787,-0.78086274862289
490,1887042521,-0.67623150348663,-0.43337044119835,11.18428707122803,0.08715739101171,-0.10989627987146,9.82278442382812,0.28903099894524,-1.09684002399445,-0.82763433456421
491,1887050854,-0.67639631032944,-0.43279239535332,11.18403911590576,0.08292290568352,-0.12827193737030,9.79676246643066,0.18905866146088,-1.00811219215393,-0.88206446170807
492,1887059187,-0.67684102058411,-0.43337422609329,11.18463420867920,0.05446889996529,-0.10665604472160,9.78300762176514,0.15652857720852,-1.14732563495636,-0.77220511436462
493,1887067520,-0.67765587568283,-0.43375831842422,11.18475723266602,0.08222193270922,-0.11261435598135,9.78755664825439,0.11183173954487,-1.12434959411621,-0.83852034807205
494,1887075853,-0.67825263738632,-0.43427398800850,11.18449306488037,0.07890301197767,-0.11895177513361,9.79669857025146,0.13762529194355,-1.13841187953949,-0.86651670932770
495,1887084186,-0.67787832021713,-0.43456554412842,11.18445873260498,0.09036901593208,-0.12052540481091,9.77695655822754,0.25376018881798,-1.11202907562256,-0.85757738351822
496,1887092519,-0.67760401964188,-0.43341723084450,11.18444061279297,0.06687192618847,-0.11561140418053,9.78714179992676,0.24174715578556,-0.93892830610275,-0.83221936225891
497,1887100852,-0.67809110879898,-0.43273320794106,11.18429183959961,0.08483987301588,-0.11247845739126,9.76697063446045,0.15079100430012,-0.99584299325943,-0.86915510892868
498,1887109185,-0.67845129966736,-0.43240770697594,11.18511581420898,0.08133497834206,-0.12144096940756,9.79470252990723,0.16828550398350,-1.03890049457550,-0.74067395925522
499,1887117518,-0.67847883701324,-0.43195292353630,11.18608474731445,0.08666384220123,-0.10403810441494,9.81882953643799,0.20588724315166,-1.02404439449310,-0.73603790998459
500,1887125851,-0.67795681953430,-0.43228930234909,11.18634986877441,0.06202230229974,-0.11242122948170,9.78217792510986,0.27166458964348,-1.11653733253479,-0.83449894189835
501,1887134184,-0.67793798446655,-0.43123567104340,11.18676567077637,0.05316005274653,-0.10001872479916,9.80629158020020,0.21182972192764,-0.95301598310471,-0.80143100023270
502,1887142517,-0.67788308858871,-0.43203058838844,11.18690681457520,0.06870298832655,-0.10712779313326,9.79582595825195,0.21646592020988,-1.17260694503784,-0.86157327890396
503,1887150850,-0.67822802066803,-0.43313184380531,11.18672657012939,0.09370224177837,-0.11157004535198,9.78591156005859,0.16749148070812,-1.20862042903900,-0.87578904628754
504,1887159183,-0.67833298444748,-0.43342748284340,11.18634319305420,0.08475410193205,-0.11870176345110,9.77310848236084,0.19574397802353,-1.11236214637756,-0.88703376054764
505,1887167516,-0.67910414934158,-0.43327984213829,11.18585205078125,0.09039043635130,-0.12051077932119,9.78328037261963,0.11580193787813,-1.05926370620728,-0.91093176603317
506,1887175849,-0.67943280935287,-0.43377193808556,11.18601703643799,0.07874570041895,-0.12089051306248,9.77253627777100,0.17158974707127,-1.13654208183289,-0.81554436683655
507,1887184182,-0.67901027202606,-0.43331342935562,11.18586540222168,0.08203603327274,-0.13877260684967,9.77767848968506,0.25983080267906,-1.02276360988617,-0.87002599239349
508,1887192515,-0.67941558361053,-0.43354627490044,11.18493652343750,0.07368858903646,-0.12231361120939,9.77765750885010,0.16047316789627,-1.10355091094971,-0.92968142032623
509,1887200848,-0.67972171306610,-0.43373650312424,11.18493175506592,0.07644958794117,-0.10528984665871,9.78691291809082,0.17146168649197,-1.10004162788391,-0.85209596157074
510,1887209181,-0.67993515729904,-0.43393066525459,11.18467617034912,0.06872451305389,-0.10588353127241,9.81749153137207,0.18444809317589,-1.09958064556122,-0.85952395200729
511,1887217514,-0.68010413646698,-0.43387877941132,11.18407821655273,0.07342386990786,-0.12584678828716,9.77773666381836,0.18703515827656,-1.07135367393494,-0.92384147644043
512,1887225847,-0.67978703975677,-0.43334138393402,11.18401908874512,0.07260859012604,-0.10616994649172,9.79026794433594,0.24717734754086,-1.01159560680389,-0.85742360353470
513,1887234180,-0.67971581220627,-0.43326601386070,11.18380355834961,0.05354618281126,-0.10291510075331,9.79342937469482,0.21882243454456,-1.06866419315338,-0.87924712896347
514,1887242513,-0.67931610345840,-0.43353706598282,11.18405246734619,0.07219364494085,-0.12842929363251,9.77433872222900,0.25662899017334,-1.10997998714447,-0.82919669151306
515,1887250846,-0.67957782745361,-0.43409115076065,11.18368148803711,0.08489709347486,-0.11478882282972,9.76338768005371,0.17768594622612,-1.14274048805237,-0.89768922328949
516,1887259179,-0.67913806438446,-0.43386369943619,11.18311882019043,0.06812376528978,-0.11222843825817,9.77747821807861,0.26123958826065,-1.04871082305908,-0.94243717193604
517,1887267512,-0.67936480045319,-0.43391478061676,11.18393802642822,0.07057709991932,-0.12024644017220,9.76579093933105,0.18257826566696,-1.08549296855927,-0.75296884775162
518,1887275845,-0.67989617586136,-0.43465524911880,11.18395328521729,0.06994044780731,-0.10233537852764,9.77788734436035,0.14684641361237,-1.16499948501587,-0.87504637241364
519,1887284178,-0.68001413345337,-0.43506321310997,11.18447971343994,0.09328731894493,-0.11783563345671,9.78114128112793,0.19430959224701,-1.12755131721497,-0.78934109210968
520,1887292511,-0.67969125509262,-0.43519312143326,11.18529224395752,0.08978963643312,-0.11964560300112,9.77218532562256,0.25002053380013,-1.09338200092316,-0.74887055158615
521,1887300844,-0.68073350191116,-0.43474522233009,11.18557167053223,0.07853103429079,-0.11793579906225,9.81556797027588,0.08414275199175,-1.02437722682953,-0.81761920452118
522,1887309177,-0.68016099929810,-0.43512466549873,11.18621158599854,0.07653550058603,-0.11743567883968,9.79721355438232,0.27850356698036,-1.12342751026154,-0.80130285024643
523,1887317510,-0.67976272106171,-0.43518015742302,11.18619251251221,0.07337378710508,-0.11412329971790,9.81425189971924,0.25706443190575,-1.08408403396606,-0.85483664274216
524,1887325843,-0.67997521162033,-0.43520769476891,11.18581104278564,0.07986149191856,-0.10090515762568,9.81027412414551,0.18314175307751,-1.08042109012604,-0.88752037286758
525,1887334176,-0.67997473478317,-0.43494012951851,11.18530178070068,0.08833045512438,-0.09827291220427,9.81887245178223,0.20803880691528,-1.04471492767334,-0.91275042295456
526,1887342509,-0.68084764480591,-0.43516331911087,11.18591690063477,0.07142832130194,-0.12491754442453,9.79000282287598,0.10473661124706,-1.10285937786102,-0.79067301750183
527,1887350842,-0.68110609054565,-0.43481296300888,11.18563938140869,0.08885982632637,-0.10584092885256,9.78883743286133,0.17791648209095,-1.03567314147949,-0.88465160131454
528,1887359175,-0.68142074346542,-0.43454360961914,11.18537616729736,0.07542672753334,-0.10952433198690,9.80656909942627,0.17223013937473,-1.04463815689087,-0.88915979862213
529,1887367508,-0.68096184730530,-0.43420034646988,11.18564414978027,0.07171432673931,-0.13292816281319,9.80049705505371,0.26390346884727,-1.03680014610291,-0.81905359029770
530,1887375841,-0.68148541450500,-0.43361529707909,11.18605613708496,0.05346754565835,-0.12379453331232,9.77224254608154,0.14710256457329,-1.00606310367584,-0.82648169994354
531,1887384174,-0.68132251501083,-0.43340611457825,11.18574333190918,0.07599888741970,-0.10791462659836,9.78644847869873,0.22812037169933,-1.05239915847778,-0.88851934671402
532,1887392507,-0.68065410852432,-0.43337693810463,11.18571281433105,0.06568455696106,-0.09940306097269,9.81005954742432,0.29041421413422,-1.07358217239380,-0.83647131919861
533,1887400840,-0.68106418848038,-0.43321856856346,11.18539428710938,0.07083460688591,-0.13078972697258,9.79448127746582,0.15960229933262,-1.05877721309662,-0.88964641094208
534,1887409173,-0.68143582344055,-0.43268412351608,11.18534088134766,0.08276559412479,-0.10659910738468,9.77832984924316,0.16510936617851,-1.01231300830841,-0.84138917922974
535,1887417506,-0.68104374408722,-0.43246781826019,11.18584728240967,0.08080566674471,-0.10638423264027,9.80018138885498,0.25539952516556,-1.05288589000702,-0.79077547788620
536,1887425839,-0.68095105886459,-0.43288254737854,11.18589973449707,0.08646363765001,-0.12787885963917,9.77518272399902,0.22130697965622,-1.12701344490051,-0.85926789045334
537,1887434172,-0.68080598115921,-0.43299049139023,11.18565654754639,0.07463991641998,-0.10930974781513,9.78797912597656,0.22612245380878,-1.08961665630341,-0.88250011205673
538,1887442505,-0.68081432580948,-0.43321976065636,11.18591690063477,0.08258672803640,-0.10400233417749,9.78574752807617,0.20885846018791,-1.10559999942780,-0.77540689706802
539,1887450838,-0.68053376674652,-0.43314671516418,11.18522644042969,0.09516150504351,-0.10926001518965,9.78973865509033,0.24261805415154,-1.06769096851349,-0.93490678071976
540,1887459171,-0.68108183145523,-0.43312248587608,11.18521976470947,0.07637090235949,-0.10513963550329,9.80468082427979,0.14308111369610,-1.07314670085907,-0.81631284952164
541,1887467504,-0.68125629425049,-0.43351420760155,11.18650913238525,0.05575641244650,-0.12568975985050,9.81071090698242,0.18905866146088,-1.12632191181183,-0.69835925102234
542,1887475837,-0.68183791637421,-0.43388426303864,11.18713188171387,0.10223563015461,-0.10941733419895,9.77166366577148,0.14105759561062,-1.12301754951477,-0.77922344207764
543,1887484170,-0.68250542879105,-0.43385437130928,11.18641948699951,0.08069837093353,-0.12830770015717,9.79365825653076,0.12740519642830,-1.07337725162506,-0.93762183189392
544,1887492503,-0.68215525150299,-0.43335151672363,11.18527889251709,0.07969697564840,-0.10692784935236,9.80661201477051,0.25109633803368,-1.01530992984772,-0.97376352548599
545,1887500836,-0.68268513679504,-0.43325409293175,11.18529605865479,0.07305914163589,-0.10777904093266,9.79277801513672,0.14559130370617,-1.06587231159210,-0.85076391696930
546,1887509169,-0.68322587013245,-0.43311774730682,11.18577575683594,0.07324510812759,-0.10462463647127,9.78796482086182,0.14492532610893,-1.05985295772552,-0.80358254909515
547,1887517502,-0.68222504854202,-0.43312266469002,11.18595123291016,0.07412501424551,-0.10899532586336,9.79091835021973,0.32934781908989,-1.07880747318268,-0.82981151342392
548,1887525835,-0.68312811851501,-0.43302926421165,11.18611431121826,0.07768702507019,-0.12438794225454,9.77924537658691,0.10166288912296,-1.06612837314606,-0.85788476467133
549,1887534168,-0.68365198373795,-0.43287110328674,11.18532085418701,0.08946775645018,-0.12629058957100,9.79185581207275,0.14497655630112,-1.05680489540100,-0.94630497694016
550,1887542501,-0.68371385335922,-0.43334877490997,11.18550682067871,0.08501154184341,-0.13101147115231,9.78632640838623,0.20263418555260,-1.13567101955414,-0.82904309034348
551,1887550834,-0.68337982892990,-0.43297970294952,11.18597602844238,0.08114177733660,-0.12885819375515,9.76875972747803,0.24879105389118,-1.03257369995117,-0.79600071907043
552,1887559167,-0.68302291631699,-0.43268898129463,11.18583393096924,0.09572657942772,-0.12065447121859,9.80403709411621,0.25204408168793,-1.04243540763855,-0.87481582164764
553,1887567500,-0.68336886167526,-0.43271255493164,11.18608474731445,0.08555515110493,-0.12204180657864,9.79088973999023,0.16795253753662,-1.08039569854736,-0.82422763109207
554,1887575833,-0.68284153938293,-0.43270090222359,11.18558216094971,0.06892479211092,-0.12360827624798,9.78302192687988,0.27197197079659,-1.07468366622925,-0.92104941606522
555,1887584166,-0.68297600746155,-0.43324649333954,11.18637657165527,0.07325226813555,-0.10254316031933,9.82347869873047,0.19382293522358,-1.14486682415009,-0.75637561082840
556,1887592499,-0.68341654539108,-0.43273794651031,11.18575096130371,0.07359559834003,-0.11238546669483,9.77926635742188,0.15655419230461,-1.01474630832672,-0.90278643369675
557,1887600832,-0.68333691358566,-0.43201613426208,11.18516540527344,0.08727183938026,-0.11526091396809,9.78158473968506,0.21787467598915,-0.99056643247604,-0.92130565643311
558,1887609165,-0.68305909633636,-0.43155950307846,11.18561077117920,0.06646414846182,-0.12681245803833,9.77433872222900,0.24305345118046,-1.02317333221436,-0.83375608921051
559,1887617498,-0.68352401256561,-0.43205675482750,11.18608474731445,0.05143604800105,-0.11723479628563,9.78393077850342,0.15322436392307,-1.13746404647827,-0.79571902751923
560,1887625831,-0.68485289812088,-0.43163651227951,11.18572902679443,0.09245051443577,-0.11152742803097,9.81660461425781,0.05058811604977,-1.02604222297668,-0.84453970193863
561,1887634164,-0.68527364730835,-0.43182307481766,11.18628025054932,0.08782976120710,-0.12409467250109,9.76521873474121,0.15806545317173,-1.10019540786743,-0.78721511363983
562,1887642497,-0.68536901473999,-0.43207824230194,11.18633747100830,0.08264394849539,-0.13693402707577,9.80800724029541,0.19858717918396,-1.10703456401825,-0.87292039394379
563,1887650830,-0.68605464696884,-0.43216750025749,11.18636512756348,0.07375296205282,-0.10641284286976,9.75753593444824,0.12650868296623,-1.08974468708038,-0.84881716966629
564,1887659163,-0.68557953834534,-0.43184304237366,11.18635082244873,0.07808043062687,-0.11337971687317,9.79563999176025,0.26613190770149,-1.03767108917236,-0.82640480995178
565,1887667496,-0.68555539846420,-0.43153277039528,11.18690490722656,0.08224339038134,-0.12516759335995,9.80000305175781,0.21321290731430,-1.04161572456360,-0.78567832708359
566,1887675829,-0.68509995937347,-0.43138298392296,11.18671607971191,0.08623459190130,-0.12319310754538,9.75562763214111,0.26377540826797,-1.05798316001892,-0.86469823122025
567,1887684162,-0.68479758501053,-0.43123891949654,11.18705272674561,0.09005429595709,-0.11835809051991,9.80026054382324,0.24551242589951,-1.06082630157471,-0.81226587295532
568,1887692495,-0.68434834480286,-0.43131121993065,11.18721580505371,0.09331607073545,-0.09574826061726,9.78751373291016,0.26367291808128,-1.08603072166443,-0.82112830877304
569,1887700828,-0.68493968248367,-0.43080735206604,11.18646049499512,0.08717884868383,-0.12657670676708,9.81114006042480,0.13626772165298,-1.01612961292267,-0.94184821844101
570,1887709161,-0.68552535772324,-0.43091779947281,11.18546390533447,0.08630615472794,-0.11731342226267,9.79638385772705,0.13946950435638,-1.08915567398071,-0.97814363241196
571,1887717494,-0.68641674518585,-0.43038529157639,11.18479728698730,0.08763666450977,-0.11805084347725,9.78469562530518,0.10120183229446,-1.01208233833313,-0.93201220035553
572,1887725827,-0.68641382455826,-0.43024295568466,11.18435955047607,0.06765867024660,-0.10988879948854,9.79709243774414,0.20873039960861,-1.05992984771729,-0.91866725683212
573,1887734160,-0.68671387434006,-0.43072026968002,11.18441581726074,0.07781583815813,-0.10876645892859,9.77415943145752,0.17338275909424,-1.13503074645996,-0.84518003463745
574,1887742493,-0.68687611818314,-0.43138593435287,11.18441390991211,0.05831712856889,-0.11752121150494,9.79426670074463,0.19072358310223,-1.15654671192169,-0.84359198808670
575,1887750826,-0.68779528141022,-0.43153572082520,11.18462467193604,0.07076304405928,-0.12011023610830,9.77964687347412,0.09833304584026,-1.09658384323120,-0.82745504379272
576,1887759159,-0.67227631807327,-0.43706881999969,11.18439674377441,0.07050552219152,-0.12018890678883,9.81841468811035,0.14664149284363,-1.10227012634277,-0.84195268154144
577,1887767492,-0.67245101928711,-0.43778470158577,11.18456554412842,0.08054095506668,-0.11422342807055,9.79854393005371,0.18877691030502,-1.16479444503784,-0.83296209573746
578,1887775825,-0.67261695861816,-0.43754321336746,11.18442344665527,0.07893168181181,-0.11674185842276,9.76983928680420,0.18870006501675,-1.04760944843292,-0.86372476816177
579,1887784158,-0.67263066768646,-0.43758669495583,11.18424892425537,0.08961790055037,-0.11815749853849,9.79618358612061,0.20501632988453,-1.08165073394775,-0.87399607896805
580,1887792491,-0.67288267612457,-0.43719705939293,11.18492412567139,0.06332411617041,-0.11043274402618,9.78496742248535,0.17888981103897,-1.03144669532776,-0.78329610824585
581,1887800824,-0.67278623580933,-0.43701389431953,11.18533611297607,0.07537665963173,-0.11800760030746,9.77503967285156,0.21977010369301,-1.05478131771088,-0.80353128910065
582,1887809157,-0.67318046092987,-0.43669104576111,11.18553733825684,0.07381734251976,-0.10557596385479,9.77841567993164,0.16121600568295,-1.03869557380676,-0.82281899452209
583,1887817490,-0.67332839965820,-0.43671953678131,11.18658447265625,0.08195017278194,-0.11017550528049,9.77004718780518,0.19121026992798,-1.08208608627319,-0.72730338573456
584,1887825823,-0.67272037267685,-0.43647578358650,11.18656730651855,0.08433926105499,-0.11783623695374,9.78730678558350,0.28121864795685,-1.04778873920441,-0.84589725732803
585,1887834156,-0.67285710573196,-0.43736672401428,11.18681716918945,0.08754358440638,-0.10955976694822,9.76366710662842,0.19231165945530,-1.18420994281769,-0.82422757148743
586,1887842489,-0.67330729961395,-0.43711400032043,11.18689155578613,0.07761544734240,-0.11553242057562,9.77647781372070,0.15455628931522,-1.04719948768616,-0.86405777931213
587,1887850822,-0.67359870672226,-0.43768250942230,11.18746566772461,0.07819487899542,-0.11676301062107,9.78981685638428,0.17223010957241,-1.14530205726624,-0.78447437286377
588,1887859155,-0.67259967327118,-0.43799993395805,11.18761825561523,0.06999056786299,-0.09822283685207,9.81149005889893,0.32962957024574,-1.11453938484192,-0.84922707080841
589,1887867488,-0.67193835973740,-0.43774002790451,11.18791866302490,0.07910338044167,-0.11463890224695,9.75988960266113,0.28649520874023,-1.04704594612122,-0.81592869758606
590,1887875821,-0.67148816585541,-0.43764758110046,11.18792057037354,0.07293038815260,-0.11982442438602,9.80270671844482,0.26305818557739,-1.06602597236633,-0.84095370769501
591,1887884154,-0.67196196317673,-0.43826845288277,11.18751525878906,0.09155634045601,-0.11055399477482,9.78147792816162,0.15073978900909,-1.15132141113281,-0.90055811405182
592,1887892487,-0.67132645845413,-0.43865537643433,11.18668460845947,0.07506193220615,-0.11316512525082,9.75428867340088,0.28483027219772,-1.12183952331543,-0.92107504606247
593,1887900820,-0.67212229967117,-0.43846201896667,11.18581104278564,0.06751564145088,-0.13163343071938,9.78877353668213,0.11034612357616,-1.05260407924652,-0.95621776580811
594,1887909153,-0.67187798023224,-0.43885758519173,11.18600177764893,0.06496927142143,-0.10335142910480,9.78051853179932,0.23887833952904,-1.12534856796265,-0.81152290105820
595,1887917486,-0.67234992980957,-0.43906620144844,11.18629550933838,0.08838057518005,-0.11083360761404,9.79872226715088,0.15089344978333,-1.10324347019196,-0.81736302375793
596,1887925819,-0.67268764972687,-0.43918123841286,11.18661022186279,0.07176447659731,-0.13008160889149,9.77750015258789,0.16861850023270,-1.08979594707489,-0.81897664070129
597,1887934152,-0.67283320426941,-0.43826836347580,11.18634605407715,0.08190720528364,-0.13881522417068,9.79466724395752,0.19049306213856,-0.96784681081772,-0.88362699747086
598,1887942485,-0.67308652400970,-0.43865120410919,11.18610286712646,0.08142080903053,-0.13480962812901,9.77861595153809,0.17714804410934,-1.12107098102570,-0.89377027750015
599,1887950818,-0.67221796512604,-0.43884399533272,11.18582057952881,0.08908150345087,-0.11652696132660,9.78499603271484,0.31210941076279,-1.10070765018463,-0.88667505979538
600,1887959151,-0.67257791757584,-0.43915966153145,11.18622970581055,0.08478269726038,-0.13177713751793,9.80020332336426,0.16539113223553,-1.11400151252747,-0.80734795331955
601,1887967484,-0.67298668622971,-0.43920186161995,11.18584346771240,0.09605553001165,-0.12470266222954,9.76868724822998,0.15791174769402,-1.08144569396973,-0.89830404520035
602,1887975817,-0.67344760894775,-0.43875968456268,11.18575668334961,0.06907500326633,-0.12751373648643,9.78427410125732,0.15412084758282,-1.02396750450134,-0.85145556926727
603,1887984150,-0.67366087436676,-0.43907627463341,11.18524169921875,0.07510484755039,-0.12927332520485,9.78661251068115,0.18070843815804,-1.11410391330719,-0.91372370719910
604,1887992483,-0.67357933521271,-0.43986615538597,11.18527221679688,0.06361023336649,-0.10090515762568,9.79007434844971,0.21920661628246,-1.17212009429932,-0.85155802965164
605,1888000816,-0.67356961965561,-0.44009259343147,11.18556594848633,0.08586994558573,-0.13111191987991,9.78430938720703,0.20829494297504,-1.10365331172943,-0.81767046451569
606,1888009149,-0.67429941892624,-0.44020193815231,11.18557357788086,0.08205741643906,-0.13121891021729,9.77585506439209,0.12118095159531,-1.09002661705017,-0.87366324663162
607,1888017482,-0.67439210414886,-0.44103029370308,11.18499279022217,0.08946775645018,-0.11122670769691,9.78267860412598,0.19623064994812,-1.17593681812286,-0.92322677373886
608,1888025815,-0.67424809932709,-0.44189804792404,11.18558788299561,0.07325226813555,-0.08807295560837,9.80533885955811,0.22602003812790,-1.18129014968872,-0.83250111341476
609,1888034148,-0.67445087432861,-0.44220444560051,11.18424892425537,0.05914685875177,-0.13340766727924,9.77594089508057,0.18209157884121,-1.11169624328613,-1.01423406600952
610,1888042481,-0.67460149526596,-0.44162803888321,11.18449592590332,0.06927523016930,-0.11425207555294,9.79538249969482,0.19033937156200,-1.00765109062195,-0.84356635808945
611,1888050814,-0.67427307367325,-0.44066292047501,11.18441104888916,0.07092043757439,-0.12654094398022,9.77718544006348,0.24753598868847,-0.96152001619339,-0.86054873466492
612,1888059147,-0.67491710186005,-0.44078758358955,11.18347358703613,0.08388143777847,-0.10594111680984,9.78466701507568,0.13068382441998,-1.08920681476593,-0.95893287658691
613,1888067480,-0.67486464977264,-0.44015160202980,11.18303871154785,0.07609201222658,-0.11306529492140,9.77948856353760,0.21336656808853,-1.00063288211823,-0.90488684177399
614,1888075813,-0.67489260435104,-0.44049566984177,11.18336200714111,0.08031927049160,-0.11592612415552,9.76272964477539,0.20542618632317,-1.11863768100739,-0.82842844724655
615,1888084146,-0.67501294612885,-0.44063967466354,11.18300628662109,0.07739369571209,-0.10955976694822,9.78243637084961,0.19238851964474,-1.09279286861420,-0.89476925134659
616,1888092479,-0.67523902654648,-0.44112610816956,11.18337631225586,0.08241505920887,-0.12714178860188,9.79501056671143,0.18214280903339,-1.13518440723419,-0.80335199832916
617,1888100812,-0.67506062984467,-0.44073489308357,11.18384075164795,0.06951132416725,-0.11159150302410,9.81910133361816,0.22988776862621,-1.03257381916046,-0.79623126983643
618,1888109145,-0.67482101917267,-0.44086590409279,11.18352699279785,0.07757258415222,-0.12109047919512,9.76920986175537,0.23657307028770,-1.09115362167358,-0.87694174051285
619,1888117478,-0.67532682418823,-0.44121178984642,11.18356609344482,0.08548362553120,-0.10174203664064,9.78725624084473,0.14692324399948,-1.11835587024689,-0.84840744733810
620,1888125811,-0.67494803667068,-0.44105288386345,11.18280220031738,0.08387432247400,-0.10969632863998,9.76504707336426,0.25434935092926,-1.05765008926392,-0.91715610027313
621,1888134144,-0.67510986328125,-0.44045054912567,11.18225288391113,0.08726461976767,-0.12063238769770,9.81214141845703,0.18762427568436,-1.00388586521149,-0.91707926988602
622,1888142477,-0.67494159936905,-0.44151845574379,11.18198871612549,0.06759429723024,-0.11652659624815,9.79489612579346,0.22809475660324,-1.20447087287903,-0.90509176254272
623,1888150810,-0.67463529109955,-0.44226378202438,11.18205165863037,0.09831582754850,-0.09316577762365,9.80651187896729,0.24433417618275,-1.16635692119598,-0.84543621540070
624,1888159143,-0.67445331811905,-0.44262900948524,11.18248558044434,0.07674285024405,-0.11536820232868,9.79553985595703,0.23139899969101,-1.12101972103119,-0.80645126104355
625,1888167476,-0.67463517189026,-0.44242605566978,11.18272304534912,0.06303079426289,-0.13504537940025,9.76977539062500,0.18485791981220,-1.05247604846954,-0.82361292839050
626,1888175809,-0.67475968599319,-0.44194862246513,11.18263816833496,0.06697200238705,-0.12044643610716,9.77426052093506,0.19479623436928,-1.01963865756989,-0.84630709886551
627,1888184142,-0.67550915479660,-0.44172894954681,11.18216514587402,0.10013268887997,-0.11872321367264,9.78240680694580,0.11708266288042,-1.05093920230865,-0.90780687332153
628,1888192475,-0.67577457427979,-0.44131463766098,11.18228721618652,0.09898819029331,-0.11577591300011,9.80865764617920,0.17650768160820,-1.02576053142548,-0.86346864700317
629,1888200808,-0.67628383636475,-0.44052711129189,11.18220615386963,0.07143548876047,-0.12739956378937,9.75908184051514,0.14589866995811,-0.98308706283569,-0.86006194353104
630,1888209141,-0.67663323879242,-0.43988153338432,11.18211650848389,0.05429723113775,-0.13143348693848,9.77604770660400,0.16754269599915,-0.99863493442535,-0.86326372623444
631,1888217474,-0.67628455162048,-0.43903812766075,11.18178081512451,0.06099944561720,-0.10289364308119,9.78673458099365,0.24853493273258,-0.97617131471634,-0.89051723480225
632,1888225807,-0.67622619867325,-0.43884864449501,11.18213462829590,0.05783788859844,-0.12350814044476,9.78516101837158,0.21549254655838,-1.05355191230774,-0.84423238039017
633,1888234140,-0.67596179246902,-0.43867981433868,11.18164443969727,0.07737945765257,-0.10729264467955,9.77470302581787,0.23941627144814,-1.05657446384430,-0.91095751523972
634,1888242473,-0.67602270841599,-0.43846675753593,11.18189334869385,0.08541209995747,-0.11355853825808,9.77360916137695,0.20158404111862,-1.05119550228119,-0.83846920728683
635,1888250806,-0.67607462406158,-0.43859085440636,11.18223762512207,0.07550541311502,-0.10021132975817,9.79265689849854,0.20104610919952,-1.09258782863617,-0.80970430374146
636,1888259139,-0.67600941658020,-0.43886870145798,11.18208122253418,0.06941118836403,-0.11644828319550,9.77933120727539,0.21659396588802,-1.10910904407501,-0.87481576204300
637,1888267472,-0.67568355798721,-0.44001999497414,11.18114185333252,0.06619956344366,-0.11556132882833,9.77482509613037,0.24651139974594,-1.21497285366058,-0.96695023775101
638,1888275805,-0.67593699693680,-0.44063445925713,11.18184089660645,0.06813798099756,-0.12234222888947,9.78861522674561,0.17801891267300,-1.15119326114655,-0.77922344207764
639,1888284138,-0.67544156312943,-0.44063374400139,11.18243408203125,0.07016223669052,-0.13329322636127,9.77258586883545,0.26782244443893,-1.07842338085175,-0.78076034784317
640,1888292471,-0.67470896244049,-0.44052067399025,11.18317604064941,0.06308807432652,-0.13061806559563,9.80596828460693,0.29720193147659,-1.06354141235352,-0.78478175401688
641,1888300804,-0.67430394887924,-0.44057950377464,11.18371105194092,0.08780107647181,-0.10764285176992,9.77063369750977,0.25591182708740,-1.08492934703827,-0.78836768865585
642,1888309137,-0.67415982484818,-0.44080948829651,11.18281173706055,0.08486848324537,-0.11655557900667,9.76006126403809,0.22666037082672,-1.10301291942596,-0.97806668281555
643,1888317470,-0.67431241273880,-0.44074535369873,11.18234539031982,0.07267997413874,-0.10668433457613,9.79240036010742,0.18803411722183,-1.06966328620911,-0.90765327215195
644,1888325803,-0.67453670501709,-0.43946510553360,11.18277072906494,0.06398218125105,-0.12469550967216,9.79280662536621,0.18191228806973,-0.92235577106476,-0.82263952493668
645,1888334136,-0.67477643489838,-0.43871989846230,11.18187522888184,0.06957570463419,-0.11568292975426,9.77443122863770,0.17824944853783,-0.98649370670319,-0.95888161659241
646,1888342469,-0.67490458488464,-0.43871548771858,11.18208408355713,0.07728652656078,-0.12425234913826,9.79794311523438,0.19351555407047,-1.07752680778503,-0.84167093038559
647,1888350802,-0.67504638433456,-0.43840220570564,11.18253040313721,0.08485417813063,-0.12346522510052,9.79079723358154,0.19054429233074,-1.03951537609100,-0.79886955022812
648,1888359135,-0.67448723316193,-0.43817478418350,11.18230819702148,0.08237928897142,-0.13556782901287,9.76209259033203,0.27589091658592,-1.04845476150513,-0.88926225900650
649,1888367468,-0.67428219318390,-0.43870443105698,11.18273353576660,0.08898852020502,-0.10729979723692,9.79001712799072,0.23273095488548,-1.14194667339325,-0.80281424522400
650,1888375801,-0.67480146884918,-0.43889555335045,11.18265819549561,0.07184315472841,-0.11897324025631,9.79965972900391,0.14582183957100,-1.09822309017181,-0.87122976779938
651,1888384134,-0.67535740137100,-0.43899121880531,11.18251895904541,0.09258645027876,-0.11027570068836,9.78913021087646,0.14121128618717,-1.08977043628693,-0.86895018815994
652,1888392467,-0.67626005411148,-0.43917194008827,11.18236446380615,0.06272327899933,-0.11609779298306,9.76076984405518,0.10084323585033,-1.09801816940308,-0.85619419813156
653,1888400800,-0.67643153667450,-0.43886062502861,11.18290710449219,0.07320219278336,-0.10768605023623,9.80083942413330,0.18731689453125,-1.04079592227936,-0.78667718172073
654,1888409133,-0.67711681127548,-0.43800753355026,11.18296432495117,0.04431901499629,-0.10378059744835,9.80324268341064,0.12681606411934,-0.97463440895081,-0.83024704456329
655,1888417466,-0.67692327499390,-0.43811804056168,11.18222904205322,0.07469713687897,-0.11872288584709,9.78518962860107,0.22958037257195,-1.08907866477966,-0.94038802385330
656,1888425799,-0.67693167924881,-0.43813025951385,11.18240833282471,0.07974711060524,-0.12865135073662,9.76669216156006,0.20706547796726,-1.07883310317993,-0.84592288732529
657,1888434132,-0.67585831880569,-0.43896138668060,11.18206405639648,0.06977598369122,-0.13963064551353,9.78438854217529,0.33680155873299,-1.17550122737885,-0.89435940980911
658,1888442465,-0.67632877826691,-0.43880894780159,11.18144607543945,0.06930389255285,-0.09896673262119,9.80518817901611,0.15089343488216,-1.05765008926392,-0.93370288610458
659,1888450798,-0.67646592855453,-0.43918377161026,11.18140792846680,0.07491887360811,-0.13904412090778,9.79350090026855,0.19067236781120,-1.12171125411987,-0.85709065198898
660,1888459131,-0.67570436000824,-0.43855786323547,11.18020057678223,0.08522612601519,-0.12522482872009,9.77311515808105,0.29953283071518,-1.00114500522614,-1.00929045677185
661,1888467464,-0.67600178718567,-0.43903908133507,11.17912769317627,0.07582020014524,-0.12338691949844,9.78570461273193,0.17128238081932,-1.13323783874512,-0.98216497898102
662,1888475797,-0.67566543817520,-0.43821972608566,11.17917823791504,0.08193581551313,-0.09310855716467,9.81229114532471,0.24856053292751,-0.97773367166519,-0.85309487581253
663,1888484130,-0.67649549245834,-0.43860048055649,11.17903995513916,0.05745163559914,-0.10509672015905,9.79668426513672,0.10880926251411,-1.12309455871582,-0.87025642395020
664,1888492463,-0.67632919549942,-0.43887135386467,11.17895030975342,0.06316675245762,-0.12901583313942,9.78852939605713,0.22819723188877,-1.10849440097809,-0.85934484004974
665,1888500796,-0.67595070600510,-0.43831717967987,11.17899131774902,0.07353837788105,-0.11736384779215,9.78496074676514,0.25319668650627,-1.01162135601044,-0.84599971771240
666,1888509129,-0.67580193281174,-0.43851482868195,11.17832756042480,0.07335240393877,-0.12536787986755,9.77969551086426,0.22537964582443,-1.09924757480621,-0.89597314596176
667,1888517462,-0.67508047819138,-0.43858224153519,11.17835044860840,0.07399616390467,-0.09366647899151,9.79055404663086,0.29446125030518,-1.08503186702728,-0.84904789924622
668,1888525795,-0.67486995458603,-0.43859264254570,11.17824745178223,0.07805175334215,-0.12707708775997,9.76720046997070,0.23326884210110,-1.07729625701904,-0.87558418512344
669,1888534128,-0.67477154731750,-0.43874937295914,11.17831897735596,0.07176440209150,-0.12797835469246,9.79197120666504,0.22000065445900,-1.09650695323944,-0.84443724155426
670,1888542461,-0.67546892166138,-0.43912166357040,11.17921829223633,0.06145719066262,-0.10888744145632,9.79510402679443,0.12522798776627,-1.12222373485565,-0.76723593473434
671,1888550794,-0.67461991310120,-0.43970760703087,11.17899608612061,0.05861029773951,-0.10001786798239,9.78072643280029,0.30949679017067,-1.14773547649384,-0.88016921281815
672,1888559127,-0.67465883493423,-0.43966618180275,11.17870140075684,0.07012653350830,-0.13347953557968,9.79214859008789,0.20278790593147,-1.07125139236450,-0.90486133098602
673,1888567460,-0.67478990554810,-0.43990200757980,11.17837238311768,0.06996195763350,-0.11820787936449,9.76883029937744,0.19141519069672,-1.10511326789856,-0.89254093170166
674,1888575793,-0.67472201585770,-0.43998843431473,11.17866134643555,0.07609903067350,-0.12166241556406,9.77844524383545,0.21782344579697,-1.08772134780884,-0.79538601636887
675,1888584126,-0.67462682723999,-0.43987485766411,11.17858028411865,0.10173488408327,-0.12449523061514,9.81805706024170,0.21864312887192,-1.06369531154633,-0.86111223697662
676,1888592459,-0.67432659864426,-0.43968152999878,11.17887020111084,0.05333159863949,-0.10499658435583,9.79408073425293,0.24510262906551,-1.05293715000153,-0.80235308408737
677,1888600792,-0.67470222711563,-0.43819236755371,11.17868423461914,0.07498335838318,-0.10315168648958,9.77398204803467,0.16272725164890,-0.89807349443436,-0.87245923280716
678,1888609125,-0.67520940303802,-0.43832844495773,11.17841529846191,0.08641349524260,-0.10257892310619,9.77731418609619,0.14707694947720,-1.09338212013245,-0.88549697399139
679,1888617458,-0.67598456144333,-0.43808269500732,11.17762184143066,0.07310920953751,-0.12551093101501,9.78756427764893,0.11393211781979,-1.04694330692291,-0.94615143537521
680,1888625791,-0.67590576410294,-0.43805068731308,11.17819595336914,0.08506160974503,-0.09928861260414,9.79443836212158,0.21895046532154,-1.07360780239105,-0.81162542104721
681,1888634124,-0.67612004280090,-0.43843853473663,11.17846488952637,0.07133530080318,-0.10511102527380,9.78918743133545,0.18155369162560,-1.12319695949554,-0.82112830877304
682,1888642457,-0.67580056190491,-0.43914830684662,11.17917442321777,0.06714380532503,-0.11166333407164,9.78337287902832,0.24830438196659,-1.16269409656525,-0.76259976625443
683,1888650790,-0.67478883266449,-0.43970215320587,11.17944622039795,0.08117761462927,-0.10651298612356,9.80058956146240,0.32904046773911,-1.14545583724976,-0.81948906183243
684,1888659123,-0.67472785711288,-0.43996444344521,11.17881870269775,0.06818089634180,-0.11569008231163,9.78672695159912,0.21503151953220,-1.10590732097626,-0.92458415031433
685,1888667456,-0.67511284351349,-0.44027739763260,11.17867660522461,0.07801605761051,-0.12661246955395,9.78995323181152,0.16229178011417,-1.11558949947357,-0.86951363086700
686,1888675789,-0.67623013257980,-0.44071671366692,11.17855262756348,0.06012682244182,-0.11475339531898,9.78767871856689,0.07369215041399,-1.12888324260712,-0.86592751741409
687,1888684122,-0.67736554145813,-0.44034373760223,11.17842674255371,0.07984006404877,-0.13050393760204,9.80671215057373,0.07138687372208,-1.03290677070618,-0.86692655086517
