sep=,
DeviceTag:,Xsens DOT
FirmwareVersion:,3.0.0
AppVersion:,2023.6.0
StartTime: ,2025-02-06_09:46:40_000 PST
© Movella Technologies B. V. 2005-2025

PacketCounter,SampleTimeFine,Euler_X,Euler_Y,Euler_Z,Acc_X,Acc_Y,Acc_Z,Gyr_X,Gyr_Y,Gyr_Z
0,910343787,0.83268994092941,-0.22667677700520,14.15840721130371,0.00000000000000,0.00000000000000,0.00000000000000,0.00000000000000,0.00000000000000,0.00000000000000
1,910360454,0.85200864076614,-0.23208254575729,14.17322444915771,0.02929315157235,0.13458983600140,9.86082458496094,1.29004132747650,0.14752274751663,-0.23525263369083
2,910377121,0.86224794387817,-0.21899573504925,14.18177413940430,0.04895676299930,0.13909998536110,9.84155273437500,1.32610392570496,0.19911953806877,-0.31969773769379
3,910393788,0.87388205528259,-0.22193288803101,14.16416358947754,0.03564655408263,0.15488310158253,9.86528205871582,1.32447743415833,0.10736203193665,-0.27127689123154
4,910410455,0.89535552263260,-0.22208227217197,14.19721984863281,0.04183847457170,0.13851065933704,9.83596992492676,1.31301569938660,0.02458178810775,-0.26053237915039
5,910427122,0.91228508949280,-0.22191275656223,14.19930648803711,0.04532479867339,0.13589613139629,9.85516071319580,1.34331583976746,0.11235652118921,-0.19588594138622
6,910443789,0.92607539892197,-0.22352528572083,14.19740009307861,0.04778685420752,0.13246905803680,9.85787105560303,1.31708836555481,0.07466742396355,-0.18190139532089
7,910460456,0.93834495544434,-0.22562420368195,14.18264865875244,0.05030704289675,0.13432271778584,9.83585643768311,1.32611680030823,0.08360625803471,-0.24175825715065
8,910477123,0.95034569501877,-0.22957395017147,14.17402172088623,0.04373211786151,0.14002844691277,9.85776996612549,1.32122457027435,0.00077478413004,-0.26291432976723
9,910493790,0.96345901489258,-0.23253485560417,14.18419361114502,0.04738654196262,0.13280048966408,9.85043716430664,1.33597767353058,0.00817685481161,-0.25063306093216
10,910510457,0.97607618570328,-0.23399417102337,14.17722702026367,0.04634029790759,0.15495234727859,9.84755706787109,1.31382262706757,0.08199266344309,-0.22785057127476
11,910527124,0.99056804180145,-0.23450267314911,14.17980289459229,0.03507104516029,0.14870774745941,9.86127376556396,1.31133830547333,0.11726134270430,-0.21563333272934
12,910543791,1.00559186935425,-0.23392613232136,14.17227172851562,0.03290194645524,0.14245903491974,9.86950683593750,1.29904413223267,0.11322734504938,-0.19021271169186
13,910560458,1.02047204971313,-0.23316799104214,14.17060947418213,0.03903030976653,0.13073107600212,9.88693714141846,1.28841483592987,0.07619137316942,-0.24011904001236
14,910577125,1.03457188606262,-0.23242630064487,14.17052459716797,0.04249311983585,0.13509584963322,9.84202671051025,1.27695322036743,0.06216843053699,-0.26875406503677
15,910593792,1.04915392398834,-0.23094575107098,14.16096115112305,0.04867531731725,0.13414390385151,9.84018039703369,1.31217062473297,0.10820724815130,-0.23365186154842
16,910610459,1.06375181674957,-0.22944654524326,14.15132999420166,0.05014278367162,0.14544837176800,9.87212085723877,1.31952142715454,0.12640507519245,-0.18290027976036
17,910627126,1.07828807830811,-0.22896754741669,14.13869190216064,0.04803580045700,0.12620016932487,9.84842586517334,1.29741787910461,0.07706221193075,-0.22781215608120
18,910643793,1.09172928333282,-0.22838106751442,14.12902641296387,0.05418607592583,0.14270925521851,9.83729839324951,1.25151968002319,0.08680783957243,-0.24507512152195
19,910660460,1.10588550567627,-0.22769354283810,14.12002563476562,0.05482873693109,0.14077971875668,9.83729171752930,1.27937364578247,0.10659364610910,-0.21810494363308
20,910677127,1.12041091918945,-0.22699213027954,14.10120105743408,0.04076828062534,0.13732680678368,9.86933612823486,1.29413926601410,0.11791446805000,-0.25911086797714
21,910693794,1.13505828380585,-0.22647227346897,14.09614086151123,0.04137507826090,0.14262852072716,9.84088230133057,1.29908251762390,0.09490144997835,-0.27541333436966
22,910710461,1.15035939216614,-0.22629785537720,14.09041976928711,0.03197595104575,0.13907468318939,9.85004997253418,1.33106005191803,0.06721413135529,-0.24002942442894
23,910727128,1.16441905498505,-0.22535347938538,14.08356094360352,0.04730170592666,0.14201599359512,9.84268379211426,1.25315892696381,0.09584911167622,-0.23772422969341
24,910743795,1.17836380004883,-0.22366410493851,14.07694816589355,0.04421814158559,0.14196458458900,9.84358596801758,1.24082636833191,0.14348874986172,-0.21501863002777
25,910760462,1.19375205039978,-0.22183887660503,14.06981372833252,0.05023208260536,0.13997375965118,9.84817504882812,1.32281267642975,0.14903388917446,-0.26746061444283
26,910777129,1.20882046222687,-0.22042860090733,14.06967258453369,0.04707497358322,0.13737583160400,9.84635353088379,1.30230975151062,0.12705820798874,-0.23703275620937
27,910793796,1.22427690029144,-0.21975877881050,14.06175613403320,0.04123774543405,0.14405262470245,9.86915969848633,1.32451593875885,0.08336293697357,-0.28514620661736
28,910810463,1.23896908760071,-0.21902731060982,14.06250286102295,0.05016156658530,0.13683502376080,9.85641288757324,1.27528822422028,0.08459234237671,-0.20076514780521
29,910827130,1.25372290611267,-0.21797159314156,14.05524730682373,0.05719284340739,0.14435283839703,9.87372016906738,1.28021872043610,0.10652963072062,-0.23777550458908
30,910843797,1.26874315738678,-0.21722306311131,14.03765487670898,0.05325964838266,0.13601794838905,9.86740207672119,1.29255127906799,0.09321101009846,-0.27292892336845
31,910860464,1.28458499908447,-0.21709686517715,14.03753852844238,0.05212712660432,0.13771301507950,9.85455989837646,1.34337973594666,0.05918454378843,-0.21778477728367
32,910877131,1.29998397827148,-0.21586714684963,14.03872108459473,0.02988214418292,0.14702063798904,9.85349941253662,1.31788218021393,0.12803147733212,-0.21412216126919
33,910893798,1.31429004669189,-0.21570147573948,14.03343582153320,0.04793271049857,0.13626445829868,9.85272884368896,1.24831819534302,0.05321678146720,-0.23744250833988
34,910910465,1.32968699932098,-0.21534369885921,14.02804660797119,0.04499283060431,0.14809340238571,9.85898113250732,1.31468081474304,0.06566455960274,-0.22518685460091
35,910927132,1.34486103057861,-0.21353188157082,14.02324008941650,0.04656899347901,0.13982208073139,9.84902286529541,1.29900562763214,0.15071152150631,-0.25038972496986
36,910943799,1.35916507244110,-0.21171517670155,14.01727104187012,0.04794923588634,0.14172901213169,9.84533119201660,1.24657654762268,0.15068592131138,-0.24466532468796
37,910960466,1.37416315078735,-0.21096232533455,14.00689792633057,0.05125143006444,0.13646072149277,9.86830615997314,1.28846609592438,0.08761464804411,-0.24584351480007
38,910977133,1.39073765277863,-0.20951734483242,14.00171661376953,0.05008431896567,0.12547333538532,9.87213516235352,1.38508999347687,0.13068239390850,-0.20346727967262
39,910993800,1.40505313873291,-0.20864625275135,13.99318218231201,0.04416945204139,0.14698024094105,9.87364292144775,1.25566899776459,0.09568264335394,-0.25654962658882
40,911010467,1.42051446437836,-0.20760124921799,13.98895359039307,0.04300529509783,0.14213736355305,9.86456871032715,1.32286393642426,0.10483918339014,-0.25085079669952
41,911027134,1.43532276153564,-0.20745953917503,13.98529434204102,0.04918083548546,0.13421636819839,9.87019729614258,1.28356122970581,0.05039938911796,-0.18406566977501
42,911043801,1.45010995864868,-0.20580069720745,13.97421455383301,0.03611657768488,0.14043945074081,9.86277008056641,1.28512370586395,0.14073537290096,-0.26347783207893
43,911060468,1.46457135677338,-0.20537090301514,13.96694087982178,0.04217788949609,0.14968475699425,9.86171531677246,1.26715636253357,0.06406375765800,-0.21449354290962
44,911077135,1.48000133037567,-0.20461180806160,13.95989894866943,0.04021802544594,0.13118331134319,9.85562896728516,1.32368350028992,0.08327329158783,-0.18264417350292
45,911093802,1.49494445323944,-0.20349341630936,13.95064163208008,0.03627830371261,0.14027382433414,9.84357547760010,1.29823732376099,0.10368661582470,-0.18694709241390
46,911110469,1.51033258438110,-0.20159721374512,13.94717979431152,0.03777433186769,0.13677655160427,9.85190296173096,1.32687222957611,0.14697206020355,-0.21108704805374
47,911127136,1.52584183216095,-0.19991712272167,13.93763351440430,0.03277856856585,0.14591287076473,9.84441471099854,1.33592641353607,0.13210390508175,-0.22405987977982
48,911143803,1.54031586647034,-0.19747802615166,13.93273162841797,0.03875805810094,0.13469338417053,9.86754417419434,1.27517294883728,0.17490272223949,-0.19416986405849
49,911160470,1.55593907833099,-0.19624955952168,13.92570495605469,0.05939981713891,0.14103105664253,9.86381053924561,1.34585142135620,0.10071553289890,-0.25243878364563
50,911177137,1.57044494152069,-0.19574126601219,13.91973495483398,0.04817075654864,0.13501541316509,9.87126064300537,1.28197324275970,0.06074691563845,-0.22176757454872
51,911193804,1.58517944812775,-0.19469705224037,13.91351509094238,0.04073536396027,0.11893531680107,9.84687137603760,1.29913377761841,0.09429956227541,-0.22863174974918
52,911210471,1.60026895999908,-0.19191233813763,13.90590953826904,0.05034776777029,0.13840721547604,9.85659122467041,1.32597589492798,0.19772365689278,-0.21818178892136
53,911227138,1.61444294452667,-0.19059258699417,13.89932155609131,0.04072547331452,0.13669236004353,9.85480880737305,1.27376449108124,0.10911650955677,-0.29845198988914
54,911243805,1.62897002696991,-0.19048883020878,13.88986396789551,0.04050084576011,0.13842040300369,9.85022068023682,1.29846155643463,0.03661335632205,-0.26000091433525
55,911260472,1.64366602897644,-0.18878564238548,13.88630676269531,0.04667821899056,0.14142864942551,9.85843563079834,1.31213223934174,0.13415291905403,-0.18478283286095
56,911277139,1.65745139122009,-0.18821559846401,13.87901210784912,0.04912513121963,0.13970357179642,9.85575962066650,1.25903701782227,0.06465285271406,-0.23489405214787
57,911293806,1.67157423496246,-0.18661554157734,13.87528419494629,0.04531826078892,0.12357643246651,9.83599281311035,1.28274166584015,0.12627701461315,-0.30030891299248
58,911310473,1.68669831752777,-0.18622106313705,13.86989879608154,0.04410805180669,0.12732440233231,9.84143257141113,1.34764420986176,0.05444620177150,-0.28551757335663
59,911327140,1.70122897624969,-0.18437325954437,13.86263465881348,0.03742739185691,0.13216444849968,9.84501838684082,1.31795895099640,0.14108115434647,-0.30210176110268
60,911343807,1.71561300754547,-0.18314458429813,13.85656547546387,0.06178963184357,0.13491386175156,9.83404350280762,1.31307351589203,0.10492242872715,-0.23774988949299
61,911360474,1.72912311553955,-0.18166320025921,13.85189723968506,0.05045185983181,0.13363254070282,9.85332965850830,1.26550424098969,0.12272964417934,-0.24866090714931
62,911377141,1.74378561973572,-0.18073308467865,13.84126186370850,0.04915968328714,0.14660528302193,9.86312484741211,1.33846199512482,0.09347995370626,-0.17201490700245
63,911393808,1.75700497627258,-0.18041186034679,13.83872509002686,0.04438602551818,0.14473485946655,9.85130310058594,1.25497734546661,0.05589330941439,-0.21343062818050
64,911410475,1.77094674110413,-0.17980335652828,13.83247661590576,0.04513395577669,0.14292500913143,9.85687541961670,1.30166935920715,0.07228544354439,-0.22343240678310
65,911427142,1.78443324565887,-0.17862667143345,13.82530212402344,0.05125887691975,0.14264941215515,9.87799644470215,1.27702999114990,0.10705468803644,-0.25751009583473
66,911443809,1.79788196086884,-0.17767241597176,13.82090854644775,0.04191943630576,0.13359202444553,9.84712028503418,1.27950167655945,0.09413307905197,-0.24257788062096
67,911460476,1.81215167045593,-0.17666088044643,13.81461715698242,0.04808850213885,0.12992313504219,9.84818458557129,1.33446645736694,0.09628454595804,-0.27615612745285
68,911477143,1.82559609413147,-0.17569528520107,13.80889892578125,0.05326364934444,0.13756620883942,9.84987640380859,1.29011178016663,0.09744351357222,-0.17949379980564
69,911493810,1.83964204788208,-0.17404974997044,13.80434226989746,0.05113938823342,0.13480225205421,9.85182476043701,1.33112406730652,0.13612510263920,-0.29882335662842
70,911510477,1.85376095771790,-0.17337308824062,13.79829597473145,0.05359034612775,0.13552856445312,9.83721160888672,1.34181737899780,0.08167249709368,-0.20545226335526
71,911527144,1.86840105056763,-0.17194545269012,13.79130744934082,0.04596825316548,0.13688638806343,9.85003089904785,1.37781596183777,0.12626421451569,-0.24700888991356
72,911543811,1.88284218311310,-0.17097236216068,13.78267860412598,0.04198256880045,0.13459572196007,9.85655403137207,1.37135517597198,0.09896747767925,-0.26384285092354
73,911560478,1.89632546901703,-0.16986766457558,13.77497863769531,0.04716301709414,0.13949055969715,9.85465431213379,1.32045626640320,0.10855301469564,-0.21486492455006
74,911577145,1.90990149974823,-0.16865774989128,13.76793479919434,0.04311819747090,0.15249177813530,9.85799217224121,1.33114314079285,0.11384844779968,-0.24689362943172
75,911593812,1.92207968235016,-0.16712769865990,13.76172161102295,0.05104114115238,0.14794673025608,9.84903907775879,1.25236499309540,0.13452433049679,-0.21942402422428
76,911610479,1.93504786491394,-0.16569027304649,13.75508975982666,0.05068023502827,0.14105755090714,9.86852741241455,1.30403220653534,0.12967710196972,-0.22584636509418
77,911627146,1.94734072685242,-0.16518636047840,13.74821853637695,0.04857785254717,0.13566809892654,9.86783409118652,1.27055001258850,0.07478268444538,-0.21686273813248
78,911643813,1.96071398258209,-0.16403897106647,13.74031257629395,0.04377657175064,0.13706062734127,9.85776042938232,1.34103620052338,0.11274070292711,-0.26737099885941
79,911660480,1.97446918487549,-0.16147784888744,13.73168087005615,0.02870565094054,0.13999426364899,9.86136150360107,1.37104141712189,0.19901706278324,-0.20633590221405
80,911677147,1.98624765872955,-0.16072185337543,13.72595310211182,0.03916184231639,0.14384438097477,9.88148975372314,1.25985658168793,0.09062413871288,-0.19824229180813
81,911693814,1.99883520603180,-0.15924909710884,13.71906471252441,0.03259861096740,0.13703598082066,9.84419155120850,1.31387388706207,0.13223196566105,-0.21932153403759
82,911710481,2.01190924644470,-0.15681003034115,13.71060752868652,0.03217724710703,0.13283051550388,9.85446739196777,1.35058331489563,0.19073776900768,-0.20709148049355
83,911727148,2.02408933639526,-0.15422533452511,13.70443630218506,0.05073265358806,0.14738576114178,9.86878776550293,1.30470430850983,0.19654545187950,-0.24657343327999
84,911743815,2.03537559509277,-0.15182670950890,13.69798278808594,0.04937503859401,0.12816336750984,9.86488914489746,1.25799977779388,0.18761943280697,-0.23175653815269
85,911760482,2.04791164398193,-0.15154828131199,13.69077682495117,0.04166235029697,0.13770362734795,9.85363864898682,1.34039580821991,0.05954312905669,-0.25987926125526
86,911777149,2.05972814559937,-0.14894188940525,13.68337631225586,0.03945876285434,0.14020763337612,9.86827945709229,1.30552411079407,0.20156554877758,-0.24096427857876
87,911793816,2.07172703742981,-0.14800292253494,13.67560005187988,0.05089885741472,0.14559243619442,9.85996627807617,1.32386279106140,0.10081799328327,-0.23842865228653
88,911810483,2.08384752273560,-0.14630945026875,13.66811943054199,0.05339178442955,0.13637833297253,9.85486221313477,1.33851981163025,0.14719618856907,-0.26297199726105
89,911827150,2.09605145454407,-0.14487318694592,13.66224575042725,0.05295876786113,0.13879762589931,9.86676979064941,1.35247218608856,0.13278262317181,-0.24467810988426
90,911843817,2.10610961914062,-0.14402547478676,13.65382766723633,0.04353296756744,0.12957441806793,9.85615730285645,1.23123455047607,0.10063870996237,-0.23281943798065
91,911860484,2.11754536628723,-0.14388504624367,13.64516353607178,0.03963952511549,0.13717007637024,9.84587383270264,1.32251822948456,0.05413884669542,-0.33023735880852
92,911877151,2.12810778617859,-0.14253392815590,13.63619804382324,0.04302538931370,0.14040330052376,9.85317993164062,1.27952718734741,0.13005487620831,-0.24803338944912
93,911893818,2.13900876045227,-0.14092412590981,13.62773323059082,0.03642080351710,0.12472703307867,9.82632923126221,1.30812382698059,0.14808622002602,-0.20730918645859
94,911910485,2.14963507652283,-0.14022594690323,13.61968803405762,0.04690217599273,0.14117601513863,9.84692001342773,1.30024802684784,0.09063695371151,-0.30055224895477
95,911927152,2.15991353988647,-0.13890933990479,13.61050987243652,0.04940666258335,0.13053585588932,9.85381603240967,1.28862619400024,0.12874223291874,-0.27752000093460
96,911943819,2.17050123214722,-0.13793256878853,13.60249519348145,0.04166448488832,0.13742117583752,9.86736965179443,1.31731891632080,0.11042275279760,-0.25252842903137
97,911960486,2.18091368675232,-0.13606706261635,13.59584522247314,0.04966868832707,0.12932670116425,9.84213542938232,1.31547462940216,0.16496500372887,-0.22977150976658
98,911977153,2.19137024879456,-0.13490220904350,13.58848190307617,0.04827262461185,0.13960826396942,9.84549999237061,1.32797372341156,0.12326752394438,-0.26915109157562
99,911993820,2.20091986656189,-0.13320870697498,13.58427906036377,0.05244898796082,0.13657374680042,9.85581016540527,1.28270316123962,0.15779344737530,-0.21330258250237
100,912010487,2.21175360679626,-0.13258977234364,13.57574272155762,0.04096980765462,0.15664237737656,9.85691452026367,1.36899244785309,0.09499111026525,-0.21197071671486
101,912027154,2.22152256965637,-0.13166938722134,13.56805324554443,0.04999694600701,0.13254839181900,9.86439132690430,1.31331038475037,0.11064045131207,-0.28285381197929
102,912043821,2.23059582710266,-0.13018438220024,13.56191635131836,0.03681806474924,0.13185507059097,9.86814308166504,1.28112804889679,0.14774045348167,-0.22380378842354
103,912060488,2.24049496650696,-0.12806725502014,13.55527687072754,0.04463534802198,0.12838543951511,9.87298297882080,1.34166359901428,0.18647965788841,-0.22446969151497
104,912077155,2.25051617622375,-0.12752422690392,13.54777336120605,0.04134680703282,0.15351170301437,9.85557937622070,1.35920834541321,0.09226334095001,-0.22502037882805
105,912093822,2.25987362861633,-0.12659333646297,13.54029369354248,0.03581058979034,0.13427400588989,9.82711791992188,1.32793533802032,0.11802972853184,-0.20180246233940
106,912110489,2.26785063743591,-0.12607026100159,13.53562927246094,0.04082575067878,0.14327387511730,9.86169147491455,1.25509274005890,0.09219932556152,-0.20879472792149
107,912127156,2.27704739570618,-0.12506102025509,13.52870941162109,0.04514665901661,0.13970798254013,9.86745071411133,1.33784115314484,0.12128894031048,-0.24530562758446
108,912143823,2.28585457801819,-0.12300779670477,13.52416038513184,0.04386704042554,0.14695858955383,9.83884429931641,1.32520115375519,0.18722882866859,-0.18604426085949
109,912160490,2.29595375061035,-0.12203556299210,13.51590728759766,0.05251511931419,0.14541244506836,9.86470127105713,1.41159904003143,0.12198687344790,-0.22389338910580
110,912177157,2.30483627319336,-0.12136705964804,13.51039218902588,0.04316015541553,0.13101273775101,9.86173152923584,1.34855353832245,0.10450622439384,-0.22526369988918
111,912193824,2.31350970268250,-0.12050028145313,13.50162315368652,0.03726238012314,0.15001936256886,9.85275936126709,1.34697818756104,0.11563494056463,-0.27960103750229
112,912210491,2.32130765914917,-0.12075971812010,13.49445056915283,0.03722293674946,0.13038255274296,9.83722591400146,1.30365431308746,0.05144951120019,-0.20697620511055
113,912227158,2.32908439636230,-0.11931402981281,13.48919391632080,0.02868291176856,0.13017369806767,9.85381126403809,1.31388652324677,0.15419484674931,-0.19606521725655
114,912243825,2.33661246299744,-0.11756946146488,13.48264598846436,0.03646437823772,0.13555654883385,9.84731292724609,1.30969893932343,0.17262320220470,-0.17763687670231
115,912260492,2.34423542022705,-0.11677523702383,13.47539329528809,0.03056877851486,0.13891847431660,9.83991813659668,1.32642412185669,0.11399570852518,-0.23698152601719
116,912277159,2.35141491889954,-0.11550890654325,13.46710586547852,0.03944319859147,0.13261975347996,9.83761310577393,1.30991685390472,0.14193919301033,-0.23107779026031
117,912293826,2.35773968696594,-0.11395003646612,13.46121788024902,0.04266657680273,0.12301531434059,9.86475658416748,1.27043461799622,0.16207075119019,-0.20372341573238
118,912310493,2.36407399177551,-0.11357805877924,13.45593547821045,0.04683980345726,0.12946550548077,9.86551761627197,1.28149926662445,0.08881843835115,-0.25369375944138
119,912327160,0.79975825548172,-0.26152136921883,13.72458553314209,0.03919264674187,0.14094686508179,9.85683631896973,1.29607307910919,0.10660645365715,-0.19669272005558
120,912343827,0.79974251985550,-0.26141130924225,13.72799491882324,0.04894130304456,0.14725935459137,9.85211944580078,1.31001281738281,0.11542361974716,-0.20753329992294
121,912360494,0.80000555515289,-0.26111924648285,13.73108291625977,0.04597416147590,0.13794271647930,9.84808063507080,1.32646250724792,0.12509882450104,-0.25281015038490
122,912377161,0.79943209886551,-0.26140302419662,13.73470592498779,0.05103669688106,0.14202316105366,9.87095165252686,1.27573657035828,0.09173828363419,-0.23246084153652
123,912393828,0.80003929138184,-0.26190346479416,13.73799133300781,0.05461388453841,0.13302737474442,9.85592937469482,1.34629940986633,0.07822758704424,-0.22708217799664
124,912410495,0.80031692981720,-0.26102578639984,13.74017524719238,0.04516123607755,0.13572254776955,9.85223197937012,1.32707095146179,0.16197472810745,-0.21845072507858
125,912427162,0.80082327127457,-0.26196089386940,13.74314117431641,0.03743566200137,0.13995255529881,9.86220836639404,1.34069681167603,0.05255725607276,-0.23710957169533
126,912443829,0.80077451467514,-0.26084843277931,13.74762630462646,0.04176656156778,0.14329417049885,9.85028076171875,1.30727219581604,0.17656114697456,-0.18854148685932
127,912460496,0.80131459236145,-0.25997427105904,13.75019931793213,0.04412615671754,0.13842067122459,9.84333038330078,1.34273290634155,0.16136001050472,-0.24712412059307
128,912477163,0.80044853687286,-0.25987669825554,13.75226688385010,0.04003728181124,0.13557238876820,9.85460186004639,1.25760293006897,0.11494340002537,-0.21911665797234
129,912493830,0.80088114738464,-0.25886753201485,13.75413990020752,0.05345739051700,0.13355556130409,9.85213279724121,1.33547163009644,0.16795527935028,-0.31044512987137
130,912510497,0.80088829994202,-0.25901255011559,13.75549507141113,0.05308497697115,0.13101856410503,9.85240077972412,1.31038403511047,0.09962058812380,-0.31780874729156
131,912527164,0.80011951923370,-0.25797191262245,13.75837612152100,0.03984981030226,0.13834655284882,9.85120487213135,1.26394832134247,0.17218135297298,-0.22708858549595
132,912543831,0.79993969202042,-0.25876906514168,13.75957012176514,0.04491796717048,0.14342033863068,9.86118507385254,1.29977416992188,0.06093902140856,-0.25534582138062
133,912560498,0.80084449052811,-0.25947213172913,13.76182460784912,0.04492962732911,0.12851913273335,9.85658740997314,1.36374819278717,0.06670827418566,-0.26683950424194
134,912577165,0.80042219161987,-0.25882822275162,13.76321601867676,0.04438080266118,0.15490263700485,9.86454582214355,1.28466892242432,0.14726023375988,-0.27565029263496
135,912593832,0.80093997716904,-0.25921595096588,13.76517868041992,0.05523091927171,0.13729634881020,9.85923099517822,1.34070956707001,0.08614831417799,-0.27148821949959
136,912610499,0.80017232894897,-0.25886085629463,13.76874732971191,0.05314456671476,0.13804423809052,9.85108280181885,1.26417243480682,0.13105377554893,-0.23345974087715
137,912627166,0.80038011074066,-0.25945159792900,13.77051925659180,0.03647861629725,0.13439497351646,9.83941841125488,1.32121837139130,0.07332915812731,-0.31954407691956
138,912643833,0.80024099349976,-0.25999942421913,13.77336120605469,0.04157359153032,0.14994691312313,9.85160350799561,1.30206632614136,0.07710062712431,-0.20327520370483
139,912660500,0.79946178197861,-0.25986328721046,13.77701091766357,0.03860639035702,0.13581778109074,9.87724304199219,1.26254582405090,0.11865722388029,-0.20609256625175
140,912677167,0.79910343885422,-0.25975120067596,13.78000164031982,0.04563914611936,0.13975600898266,9.86529445648193,1.28804993629456,0.11629447340965,-0.23797398805618
141,912693834,0.79919534921646,-0.25971722602844,13.78306102752686,0.03717341274023,0.13156796991825,9.86767959594727,1.31509053707123,0.11206196993589,-0.21729816496372
142,912710501,0.79815667867661,-0.25872370600700,13.78449726104736,0.06060590967536,0.13027095794678,9.87077522277832,1.24695420265198,0.16768632829189,-0.30014878511429
143,912727168,0.79875421524048,-0.25817197561264,13.78535175323486,0.04200950264931,0.12861615419388,9.84708786010742,1.34549272060394,0.14272037148476,-0.30167919397354
144,912743835,0.79892635345459,-0.25787898898125,13.78834533691406,0.05163004621863,0.13386541604996,9.85251045227051,1.32070600986481,0.12761527299881,-0.19062891602516
145,912760502,0.79882144927979,-0.25703859329224,13.79168701171875,0.03927911818027,0.14527757465839,9.84372901916504,1.30348777770996,0.15999612212181,-0.26126235723495
146,912777169,0.79819256067276,-0.25662106275558,13.79298305511475,0.04069237783551,0.14225058257580,9.85323143005371,1.27177941799164,0.13467797636986,-0.31065642833710
147,912793836,0.79819494485855,-0.25580999255180,13.79401206970215,0.05407788977027,0.13305142521858,9.86772441864014,1.30862343311310,0.15715312957764,-0.33498850464821
148,912810503,0.79759901762009,-0.25611525774002,13.79643630981445,0.04834184050560,0.12697976827621,9.85537910461426,1.27434706687927,0.09107875078917,-0.25938621163368
149,912827170,0.79799062013626,-0.25551271438599,13.79813003540039,0.03973561152816,0.13424940407276,9.85690784454346,1.33298730850220,0.14683759212494,-0.21247014403343
150,912843837,0.79842412471771,-0.25535467267036,13.79992485046387,0.06028300523758,0.14758014678955,9.85917091369629,1.33575356006622,0.11966253817081,-0.27399826049805
151,912860504,0.79879903793335,-0.25485888123512,13.80226802825928,0.04546262696385,0.13039876520634,9.86300754547119,1.33233416080475,0.13978131115437,-0.25819522142410
152,912877171,0.79868489503860,-0.25491550564766,13.80529594421387,0.05132551863790,0.14741976559162,9.86681175231934,1.30359029769897,0.10841216146946,-0.17534455657005
153,912893838,0.79815268516541,-0.25517365336418,13.80617618560791,0.04308456555009,0.13000826537609,9.85145187377930,1.27763187885284,0.09461971372366,-0.24962134659290
154,912910505,0.79840755462646,-0.25469753146172,13.80891227722168,0.02986293844879,0.13114017248154,9.87349319458008,1.32479774951935,0.14013348519802,-0.18853507936001
155,912927172,0.79923146963120,-0.25550177693367,13.81241130828857,0.04397734999657,0.15111514925957,9.88081264495850,1.35961186885834,0.06313531100750,-0.16484333574772
156,912943839,0.79941284656525,-0.25500571727753,13.81439208984375,0.05683602392673,0.13716915249825,9.85621547698975,1.32012975215912,0.13997340202332,-0.27548381686211
157,912960506,0.79910653829575,-0.25458353757858,13.81649208068848,0.05573841184378,0.12641555070877,9.84236621856689,1.29132831096649,0.13623395562172,-0.23117384314537
158,912977173,0.79808026552200,-0.25573134422302,13.81865310668945,0.04345448687673,0.13334846496582,9.85123252868652,1.24831175804138,0.04265795275569,-0.19974704086781
159,912993840,0.79829585552216,-0.25479435920715,13.82151794433594,0.04514631256461,0.12347810715437,9.85750961303711,1.32304954528809,0.16785283386707,-0.19435556232929
160,913010507,0.79733318090439,-0.25420379638672,13.82359600067139,0.04264263808727,0.14306432008743,9.86015510559082,1.25199353694916,0.14578108489513,-0.25946944952011
161,913027174,0.79699820280075,-0.25331401824951,13.82523918151855,0.05058490857482,0.12906514108181,9.87133312225342,1.28960573673248,0.16442713141441,-0.24681678414345
162,913043841,0.79765820503235,-0.25346761941910,13.82682418823242,0.03559964895248,0.13508279621601,9.85270786285400,1.34974443912506,0.10171443969011,-0.21765670180321
163,913060508,0.79744261503220,-0.25400260090828,13.82855510711670,0.04921040683985,0.13185442984104,9.83850669860840,1.29743051528931,0.07884228974581,-0.23184615373611
164,913077175,0.79674601554871,-0.25417411327362,13.83021545410156,0.05068160593510,0.14143691956997,9.84360313415527,1.26786065101624,0.10090763121843,-0.25475668907166
165,913093842,0.79732942581177,-0.25367197394371,13.83158779144287,0.04123603180051,0.13963280618191,9.84750556945801,1.34467315673828,0.14127326011658,-0.23695591092110
166,913110509,0.79713195562363,-0.25435975193977,13.83283424377441,0.04453687369823,0.14778867363930,9.84169578552246,1.29769301414490,0.06888536363840,-0.28727844357491
167,913127176,0.79633677005768,-0.25441405177116,13.83502101898193,0.04504503682256,0.15475882589817,9.86253738403320,1.26278305053711,0.10830329358578,-0.20170640945435
168,913143843,0.79559284448624,-0.25501888990402,13.83669948577881,0.04941057041287,0.15127575397491,9.86571979522705,1.26405072212219,0.07448172569275,-0.28507575392723
169,913160510,0.79382532835007,-0.25489702820778,13.83826637268066,0.04661745578051,0.13389356434345,9.86610031127930,1.20375847816467,0.11876609176397,-0.22353485226631
170,913177177,0.79372090101242,-0.25412738323212,13.83884048461914,0.05281110480428,0.12371420115232,9.86881637573242,1.30283474922180,0.15687137842178,-0.25484636425972
171,913193844,0.79388970136642,-0.25334596633911,13.84169006347656,0.04199740663171,0.15590742230415,9.85674953460693,1.31913077831268,0.15833769738674,-0.21302720904350
172,913210511,0.79373162984848,-0.25327685475349,13.84340286254883,0.04347486793995,0.14791333675385,9.87215614318848,1.29978060722351,0.11564134806395,-0.23627075552940
173,913227178,0.79416489601135,-0.25281590223312,13.84657096862793,0.04601524025202,0.14277425408363,9.86261653900146,1.33549737930298,0.13990938663483,-0.15334963798523
174,913243845,0.79365020990372,-0.25333815813065,13.84819412231445,0.04759656265378,0.14081887900829,9.85746097564697,1.27795207500458,0.08008451759815,-0.26468166708946
175,913260512,0.79475736618042,-0.25371107459068,13.84920406341553,0.03651486709714,0.13481104373932,9.85339450836182,1.37548530101776,0.08894651383162,-0.26305523514748
176,913277179,0.79441267251968,-0.25352057814598,13.85058403015137,0.04150821268559,0.14484211802483,9.87315273284912,1.28749275207520,0.12261439859867,-0.24560017883778
177,913293846,0.79392671585083,-0.25305956602097,13.85225772857666,0.02949091605842,0.13837216794491,9.84710979461670,1.28006505966187,0.13864794373512,-0.25516653060913
178,913310513,0.79351717233658,-0.25330895185471,13.85388088226318,0.03004545718431,0.13411316275597,9.86503696441650,1.28358697891235,0.09546494483948,-0.24794374406338
179,913327180,0.79499733448029,-0.25276032090187,13.85532188415527,0.04615865275264,0.14481212198734,9.85910034179688,1.39735209941864,0.14384092390537,-0.26895257830620
180,913343847,0.79458135366440,-0.25294908881187,13.85726451873779,0.04038668423891,0.13568930327892,9.86726188659668,1.28354203701019,0.09924921393394,-0.23332528769970
181,913360514,0.79397559165955,-0.25277075171471,13.85956478118896,0.06475777179003,0.14074733853340,9.86911296844482,1.27269506454468,0.12194206565619,-0.21527475118637
182,913377181,0.79216367006302,-0.25346928834915,13.86090373992920,0.03894056752324,0.14522227644920,9.84498310089111,1.19940423965454,0.06938479095697,-0.27436962723732
183,913393848,0.79240942001343,-0.25344341993332,13.86369323730469,0.03872159123421,0.14038829505444,9.85927486419678,1.32426619529724,0.11337462067604,-0.16561812162399
184,913410515,0.79310035705566,-0.25376370549202,13.86602401733398,0.04118405655026,0.13851043581963,9.86972904205322,1.34987246990204,0.09259631484747,-0.17793142795563
185,913427182,0.79328238964081,-0.25307202339172,13.86903381347656,0.02890925295651,0.15191756188869,9.85056972503662,1.31990563869476,0.15375944972038,-0.15886276960373
186,913443849,0.79320079088211,-0.25304001569748,13.87036895751953,0.03678113222122,0.14680778980255,9.86588382720947,1.30324447154999,0.11257421970367,-0.25342482328415
187,913460516,0.79342681169510,-0.25298848748207,13.87085628509521,0.05486908927560,0.14795620739460,9.85237121582031,1.32134640216827,0.11313130706549,-0.26402851939201
188,913477183,0.79354834556580,-0.25300806760788,13.87137413024902,0.03823352977633,0.12688505649567,9.87969779968262,1.31493043899536,0.10918694734573,-0.30409958958626
189,913493850,0.79301738739014,-0.25306612253189,13.87300395965576,0.04237031936646,0.14526657760143,9.86394119262695,1.27615261077881,0.10781665146351,-0.22136415541172
190,913510517,0.79386800527573,-0.25276130437851,13.87395858764648,0.05318089574575,0.13956564664841,9.86096477508545,1.35909950733185,0.12785860896111,-0.29480856657028
191,913527184,0.79490762948990,-0.25210958719254,13.87645339965820,0.03814915940166,0.14704243838787,9.84953784942627,1.37022817134857,0.15067951381207,-0.23328687250614
192,913543851,0.79527145624161,-0.25250238180161,13.87639045715332,0.05156075581908,0.14031964540482,9.86412906646729,1.32991385459900,0.08608427643776,-0.30977919697762
193,913560518,0.79473811388016,-0.25343802571297,13.87875175476074,0.05883312597871,0.13452921807766,9.85565948486328,1.27570438385010,0.05551553145051,-0.21697156131268
194,913577185,0.79492235183716,-0.25259917974472,13.87953758239746,0.05019268393517,0.14797747135162,9.85390186309814,1.31938695907593,0.16063003242016,-0.24369202554226
195,913593852,0.79491591453552,-0.25139781832695,13.88061904907227,0.05532402917743,0.13235315680504,9.87554264068604,1.30690073966980,0.18398882448673,-0.23066154122353
196,913610519,0.79491031169891,-0.25154158473015,13.88172626495361,0.03651840612292,0.14889350533485,9.85328006744385,1.30755388736725,0.10228431969881,-0.26614797115326
197,913627186,0.79450023174286,-0.25066432356834,13.88306999206543,0.03808291628957,0.14523132145405,9.85196399688721,1.28340756893158,0.16330018639565,-0.27508041262627
198,913643853,0.79346674680710,-0.25051739811897,13.88415241241455,0.04505443945527,0.14585083723068,9.84577083587646,1.24511659145355,0.11983541399240,-0.26781922578812
199,913660520,0.79396748542786,-0.24978244304657,13.88498306274414,0.03640718385577,0.14174088835716,9.86827754974365,1.33759784698486,0.15490561723709,-0.26887574791908
200,913677187,0.79226511716843,-0.24941274523735,13.88781261444092,0.05794226378202,0.14649654924870,9.86190223693848,1.20550000667572,0.13331410288811,-0.20859621465206
201,913693854,0.79146939516068,-0.24979937076569,13.88979625701904,0.03855705261230,0.14476986229420,9.84649658203125,1.26002955436707,0.08853030204773,-0.23131470382214
202,913710521,0.79225414991379,-0.24982863664627,13.89142894744873,0.04944223165512,0.13580994307995,9.84933185577393,1.35494375228882,0.10993611812592,-0.20392832159996
203,913727188,0.79242116212845,-0.24982850253582,13.89295196533203,0.04916822910309,0.13909555971622,9.84106254577637,1.31719064712524,0.11224126070738,-0.20085479319096
204,913743855,0.79184734821320,-0.25007614493370,13.89507961273193,0.04519302770495,0.13888020813465,9.84864330291748,1.27293837070465,0.09720019996166,-0.17910322546959
205,913760522,0.79125529527664,-0.25015231966972,13.89562892913818,0.03915931656957,0.16054275631905,9.84529304504395,1.27223408222198,0.10674092918634,-0.22868941724300
206,913777189,0.79154193401337,-0.24873310327530,13.89768218994141,0.03454777598381,0.14227600395679,9.83682823181152,1.32479143142700,0.19715377688408,-0.19188396632671
207,913793856,0.79175496101379,-0.24942773580551,13.89845848083496,0.05957332253456,0.15140099823475,9.85307312011719,1.31945121288300,0.06919271498919,-0.27378696203232
208,913810523,0.79179841279984,-0.24946916103363,13.90026092529297,0.05502948164940,0.13421361148357,9.85557556152344,1.31006395816803,0.10863626003265,-0.24996072053909
209,913827190,0.79197502136230,-0.25009724497795,13.90080833435059,0.04935561865568,0.13065658509731,9.85698413848877,1.31697952747345,0.07317548245192,-0.27641862630844
210,913843857,0.79183673858643,-0.25032848119736,13.90179061889648,0.03732398897409,0.13226361572742,9.84324455261230,1.29953718185425,0.09748194366693,-0.26021862030029
211,913860524,0.79222846031189,-0.25021961331367,13.90323829650879,0.04521608725190,0.13959321379662,9.84112739562988,1.33044528961182,0.11869563907385,-0.22815793752670
212,913877191,0.79385250806808,-0.25110402703285,13.90419960021973,0.04687996208668,0.13217008113861,9.85026550292969,1.40474128723145,0.05858904868364,-0.22710779309273
213,913893858,0.79325067996979,-0.25120061635971,13.90579795837402,0.04475399479270,0.14072287082672,9.84800243377686,1.27145934104919,0.10560756921768,-0.21636329591274
214,913910525,0.79239255189896,-0.25166323781013,13.90771198272705,0.04180124402046,0.13650713860989,9.85317039489746,1.25525295734406,0.08454753458500,-0.22706300020218
215,913927192,0.79291522502899,-0.25104361772537,13.90964031219482,0.05155004560947,0.13872033357620,9.85789680480957,1.33914732933044,0.14902751147747,-0.19002702832222
216,913943859,0.79323166608810,-0.25163376331329,13.91192531585693,0.05860447511077,0.12861426174641,9.87651062011719,1.32589256763458,0.07609532028437,-0.22561585903168
217,913960526,0.79306256771088,-0.25141242146492,13.91424083709717,0.04004712030292,0.14259670674801,9.84699440002441,1.29755222797394,0.12601448595524,-0.20401157438755
218,913977193,0.79277056455612,-0.25189885497093,13.91579437255859,0.05419354885817,0.14921511709690,9.86794948577881,1.28980445861816,0.08212712407112,-0.23173733055592
219,913993860,0.79262292385101,-0.25202316045761,13.91788387298584,0.04900147765875,0.12453771382570,9.84818458557129,1.29857671260834,0.10521697998047,-0.21133680641651
220,914010527,0.79231548309326,-0.25107824802399,13.91853141784668,0.03666070848703,0.13177025318146,9.84866619110107,1.28853654861450,0.16773757338524,-0.28373110294342
221,914027194,0.79269903898239,-0.25176271796227,13.91957664489746,0.05000009387732,0.12809367477894,9.86772441864014,1.33097684383392,0.07048615068197,-0.24340391159058
222,914043861,0.79350143671036,-0.25186777114868,13.92143344879150,0.04688918590546,0.14384579658508,9.85744857788086,1.35523831844330,0.10614543408155,-0.21937279403210
223,914060528,0.79384654760361,-0.25303274393082,13.92222881317139,0.02562791109085,0.14928840100765,9.84698295593262,1.32810807228088,0.04076261445880,-0.28561359643936
224,914077195,0.79378205537796,-0.25194114446640,13.92347049713135,0.04458640515804,0.14329537749290,9.86814022064209,1.30304610729218,0.17767530679703,-0.22594885528088
225,914093862,0.79372072219849,-0.25095754861832,13.92390346527100,0.03886809200048,0.13783009350300,9.84770393371582,1.30409622192383,0.17015798389912,-0.26744142174721
226,914110529,0.79427748918533,-0.25036633014679,13.92755889892578,0.05236250534654,0.12636888027191,9.84999656677246,1.34073507785797,0.14845120906830,-0.14987911283970
227,914127196,0.79370099306107,-0.25089439749718,13.92920970916748,0.04423793405294,0.15073175728321,9.86465167999268,1.27274632453918,0.07961708307266,-0.24888502061367
228,914143863,0.79427790641785,-0.25024095177650,13.93054580688477,0.03888840228319,0.12813465297222,9.86040401458740,1.34172129631042,0.15157595276833,-0.19188396632671
229,914160530,0.79501277208328,-0.24971102178097,13.93091964721680,0.04385352879763,0.14151580631733,9.85313510894775,1.35191500186920,0.14367443323135,-0.26204991340637
230,914177197,0.79391896724701,-0.24986459314823,13.93298816680908,0.03243178501725,0.13958628475666,9.87097167968750,1.24135792255402,0.10236115008593,-0.22948339581490
231,914193864,0.79385411739349,-0.24871818721294,13.93460559844971,0.04587491974235,0.13773818314075,9.87059307098389,1.30389118194580,0.18032619357109,-0.22201727330685
232,914210531,0.79360646009445,-0.24797220528126,13.93581962585449,0.04287017881870,0.13136005401611,9.86039257049561,1.29267942905426,0.15633352100849,-0.24233457446098
233,914227198,0.79395878314972,-0.24777165055275,13.93558025360107,0.04976564273238,0.14061744511127,9.84979724884033,1.32772409915924,0.12291534990072,-0.31783440709114
234,914243865,0.79505175352097,-0.24830131232738,13.93634605407715,0.04508919641376,0.13597981631756,9.83850955963135,1.37302005290985,0.07952743768692,-0.26893976330757
235,914260532,0.79536056518555,-0.24837216734886,13.93838214874268,0.04461555927992,0.13902829587460,9.86887168884277,1.32591831684113,0.10763737559319,-0.23758982121944
236,914277199,0.79638051986694,-0.24786375463009,13.93905830383301,0.03807619586587,0.13440223038197,9.85849666595459,1.36834573745728,0.14136929810047,-0.24303251504898
237,914293866,0.79725921154022,-0.24841518700123,13.94102096557617,0.04124559462070,0.14513970911503,9.86153125762939,1.36036741733551,0.07982198894024,-0.16972897946835
238,914310533,0.79792928695679,-0.24778322875500,13.94217586517334,0.04485701024532,0.13654863834381,9.85528850555420,1.34799659252167,0.14868171513081,-0.29516714811325
239,914327200,0.79741090536118,-0.26261734962463,13.94729328155518,0.03929023444653,0.11927323043346,9.85530090332031,1.29787874221802,0.12899196147919,-0.23210225999355
240,914343867,0.79669481515884,-0.26160076260567,13.94893169403076,0.04715235158801,0.11719267070293,9.86046218872070,1.26470386981964,0.17656116187572,-0.24425551295280
241,914360534,0.79575031995773,-0.26066046953201,13.94953060150146,0.05465197190642,0.13085964322090,9.86784553527832,1.25078988075256,0.17175236344337,-0.23918421566486
242,914377201,0.79521995782852,-0.26034343242645,13.95034599304199,0.03578921779990,0.13604047894478,9.87851238250732,1.27584528923035,0.13395442068577,-0.26277983188629
243,914393868,0.79506981372833,-0.25949552655220,13.95143508911133,0.04203945025802,0.13392220437527,9.85515308380127,1.29860234260559,0.16640570759773,-0.27485626935959
244,914410535,0.79478859901428,-0.25985437631607,13.95224857330322,0.03537759184837,0.13529568910599,9.84055805206299,1.29172527790070,0.09376809746027,-0.24769404530525
245,914427202,0.79391407966614,-0.25948354601860,13.95268917083740,0.03685677051544,0.13239596784115,9.85769844055176,1.25529778003693,0.13735450804234,-0.25644716620445
246,914443869,0.79370629787445,-0.25954228639603,13.95409011840820,0.05191491916776,0.14214117825031,9.86181068420410,1.29478597640991,0.11145366728306,-0.22142821550369
247,914460536,0.79361885786057,-0.25999328494072,13.95500850677490,0.04262711852789,0.13418835401535,9.86645603179932,1.30328941345215,0.08828698098660,-0.24412104487419
248,914477203,0.79368424415588,-0.26063340902328,13.95523834228516,0.03879607841372,0.13027152419090,9.87354278564453,1.31155598163605,0.07752323895693,-0.23042467236519
249,914493870,0.79331868886948,-0.26124656200409,13.95696544647217,0.05426782742143,0.13729690015316,9.84665679931641,1.28598797321320,0.07938655465841,-0.20356331765652
250,914510537,0.79364114999771,-0.26050192117691,13.95789813995361,0.05005323514342,0.14484673738480,9.86918258666992,1.32736539840698,0.15949028730392,-0.25234270095825
251,914527204,0.79321062564850,-0.26043510437012,13.95815658569336,0.04878145083785,0.14037477970123,9.87820148468018,1.28260719776154,0.11959850788116,-0.25472468137741
252,914543871,0.79412382841110,-0.26033857464790,13.96008682250977,0.05068943277001,0.14046776294708,9.83160686492920,1.36263418197632,0.12212135642767,-0.16587425768375
253,914560538,0.79476201534271,-0.25990456342697,13.96131134033203,0.05642024427652,0.14674414694309,9.86448955535889,1.34635722637177,0.14161261916161,-0.23500293493271
254,914577205,0.79494237899780,-0.25931257009506,13.96247005462646,0.03719546273351,0.13018903136253,9.85613346099854,1.31910514831543,0.15148629248142,-0.21262378990650
255,914593872,0.79463386535645,-0.25833123922348,13.96325588226318,0.05685579031706,0.13286410272121,9.86006164550781,1.28889501094818,0.17439687252045,-0.29265710711479
256,914610539,0.79439896345139,-0.25704708695412,13.96345329284668,0.04715205356479,0.13886539638042,9.85693836212158,1.29356932640076,0.19206964969635,-0.26806890964508
257,914627206,0.79358327388763,-0.25676709413528,13.96423530578613,0.05032732710242,0.14846459031105,9.84070968627930,1.25874888896942,0.13260973989964,-0.25217619538307
258,914643873,0.79461342096329,-0.25632518529892,13.96553039550781,0.04469102621078,0.13235872983932,9.85726451873779,1.37015128135681,0.14257310330868,-0.22016036510468
259,914660540,0.79467636346817,-0.25663423538208,13.96742916107178,0.04804901778698,0.12960168719292,9.86252021789551,1.31209361553192,0.09826952219009,-0.17636902630329
260,914677207,0.79458671808243,-0.25691723823547,13.96787834167480,0.05687142536044,0.13843668997288,9.85653305053711,1.30185496807098,0.09775086492300,-0.26749262213707
261,914693874,0.79430103302002,-0.25573128461838,13.96811485290527,0.05113109201193,0.13385897874832,9.85726165771484,1.29125130176544,0.18666537106037,-0.27691808342934
262,914710541,0.79443991184235,-0.25635483860970,13.97046661376953,0.03779581934214,0.13982269167900,9.86330032348633,1.31637120246887,0.07984118908644,-0.16885173320770
263,914727208,0.79497915506363,-0.25701999664307,13.97034931182861,0.05605493858457,0.13613250851631,9.85957717895508,1.34003078937531,0.07489153742790,-0.30474632978439
264,914743875,0.79568511247635,-0.25744542479515,13.97066497802734,0.04231724888086,0.13732665777206,9.83573341369629,1.34958434104919,0.09065614640713,-0.27020758390427
265,914760542,0.79641902446747,-0.25770393013954,13.97080802917480,0.05253869667649,0.15002766251564,9.87537860870361,1.35190224647522,0.09974864870310,-0.25343126058578
266,914777209,0.79545241594315,-0.25801017880440,13.97317695617676,0.04079611226916,0.13637730479240,9.85768032073975,1.24998939037323,0.09831435978413,-0.21442313492298
267,914793876,0.79590249061584,-0.25792196393013,13.97363185882568,0.05224120244384,0.14167560636997,9.87320899963379,1.33522832393646,0.12109684199095,-0.23406805098057
268,914810543,0.79532355070114,-0.25845226645470,13.97506713867188,0.04234372079372,0.12622603774071,9.85664081573486,1.27315616607666,0.08507257699966,-0.22101837396622
269,914827210,0.79602241516113,-0.25820729136467,13.97592067718506,0.04916211962700,0.14691810309887,9.84293556213379,1.34990465641022,0.13070160150528,-0.22548781335354
270,914843877,0.79640090465546,-0.25822547078133,13.97713947296143,0.04319553449750,0.14659757912159,9.86534786224365,1.33113062381744,0.11482173949480,-0.21161854267120
271,914860544,0.79680353403091,-0.25818452239037,13.97769641876221,0.03038278222084,0.13410903513432,9.86134052276611,1.33134806156158,0.11861241608858,-0.26517468690872
272,914877211,0.79710167646408,-0.26079800724983,13.97749519348145,0.04324517771602,0.13436323404312,9.84245681762695,1.32566213607788,-0.04175510630012,-0.30200576782227
273,914893878,0.79739803075790,-0.26262089610100,13.97851848602295,0.04448754712939,0.13472519814968,9.81792736053467,1.32572615146637,0.00686420407146,-0.23559203743935
274,914910545,0.79796344041824,-0.26263329386711,13.98000526428223,0.04134153574705,0.12338323891163,9.88479518890381,1.34188783168793,0.11523153632879,-0.22232465445995
275,914927212,0.79763245582581,-0.26269608736038,13.98071861267090,0.03935066983104,0.13567197322845,9.84241390228271,1.28792178630829,0.11209398508072,-0.25688898563385
276,914943879,0.79771167039871,-0.26355451345444,13.98222732543945,0.04284865036607,0.13018281757832,9.85073661804199,1.31288135051727,0.06450558453798,-0.22963707149029
277,914960546,0.79791951179504,-0.26556634902954,13.98304367065430,0.03821372985840,0.13030578196049,9.85194969177246,1.32099425792694,-0.00493044499308,-0.24069535732269
278,914977213,0.79845523834229,-0.26579609513283,13.98441791534424,0.05790907889605,0.15032485127449,9.85405349731445,1.33971059322357,0.10242518782616,-0.24712412059307
279,914993880,0.79874581098557,-0.26745197176933,13.98488807678223,0.05420725047588,0.14356635510921,9.85877418518066,1.32518827915192,0.01612319611013,-0.29268276691437
280,915010547,0.79873168468475,-0.26769188046455,13.98485183715820,0.04072640091181,0.12985275685787,9.85218048095703,1.30710554122925,0.10087561607361,-0.28581851720810
281,915027214,0.79847282171249,-0.26786306500435,13.98606109619141,0.04420415312052,0.12724649906158,9.85193729400635,1.29200696945190,0.10552431643009,-0.22703732550144
282,915043881,0.79790705442429,-0.26723402738571,13.98610019683838,0.04713188484311,0.14279253780842,9.86721801757812,1.27453923225403,0.15366339683533,-0.27486908435822
283,915060548,0.79837745428085,-0.26667186617851,13.98707103729248,0.03789598122239,0.13606247305870,9.84978103637695,1.33599698543549,0.14959096908569,-0.23988214135170
284,915077215,0.79900878667831,-0.26715457439423,13.98890018463135,0.04923515766859,0.14568804204464,9.85843467712402,1.34628045558929,0.08786437660456,-0.19955496490002
285,915093882,0.79914969205856,-0.26635092496872,13.99137115478516,0.05283156037331,0.13874746859074,9.85131263732910,1.31659519672394,0.16530436277390,-0.15875390172005
286,915110549,0.79934746026993,-0.26607325673103,13.99363708496094,0.02857452817261,0.13929511606693,9.85965156555176,1.32023227214813,0.13317324221134,-0.16191709041595
287,915127216,0.79944437742233,-0.26534691452980,13.99529361724854,0.04946045950055,0.12925814092159,9.86410903930664,1.31427729129791,0.16043795645237,-0.17246952652931
288,915143883,0.79948770999908,-0.26546534895897,13.99599456787109,0.04732223600149,0.13482083380222,9.84726428985596,1.31097316741943,0.10895643383265,-0.22712700068951
289,915160550,0.79995989799500,-0.26458391547203,13.99573421478271,0.03803155198693,0.11993308365345,9.86391830444336,1.33607375621796,0.16865962743759,-0.28037583827972
290,915177217,0.79906547069550,-0.26380947232246,13.99676799774170,0.04825921356678,0.13743975758553,9.85971641540527,1.25468933582306,0.16264064610004,-0.24102193117142
291,915193884,0.79840898513794,-0.26427841186523,13.99917888641357,0.04603191092610,0.14476574957371,9.85186386108398,1.26906442642212,0.08880562335253,-0.16871085762978
292,915210551,0.79885762929916,-0.26425004005432,13.99925327301025,0.05210034176707,0.13965120911598,9.88049125671387,1.33504271507263,0.11665943264961,-0.28487724065781
293,915227218,0.79899734258652,-0.26462706923485,13.99928283691406,0.03913354873657,0.14222179353237,9.86293792724609,1.31554508209229,0.09319180250168,-0.27545818686485
294,915243885,0.79960048198700,-0.26387777924538,13.99953174591064,0.03532554581761,0.13367150723934,9.86883640289307,1.34426975250244,0.16098862886429,-0.24300689995289
295,915260552,0.80040848255157,-0.26486706733704,13.99997425079346,0.03318908810616,0.14059004187584,9.85552120208740,1.35702490806580,0.05551553145051,-0.28133630752563
296,915277219,0.80122542381287,-0.26424509286880,14.00024509429932,0.03685499355197,0.13089415431023,9.85704898834229,1.35615408420563,0.15286940336227,-0.30162155628204
297,915293886,0.80245447158813,-0.26338085532188,14.00036430358887,0.04344286769629,0.14927783608437,9.85358619689941,1.38211250305176,0.16760952770710,-0.26376602053642
298,915310553,0.80256617069244,-0.26236993074417,14.00223255157471,0.04203071817756,0.15589748322964,9.84400367736816,1.31526970863342,0.17637546360493,-0.21285435557365
299,915327220,0.80198907852173,-0.26229700446129,14.00360679626465,0.05200343579054,0.13824659585953,9.85574626922607,1.27325856685638,0.12084072083235,-0.22877265512943
300,915343887,0.80201923847198,-0.26207017898560,14.00424194335938,0.05548267066479,0.13794471323490,9.84512519836426,1.30942356586456,0.12888310849667,-0.25286778807640
301,915360554,0.80129128694534,-0.26143172383308,14.00478458404541,0.04338107630610,0.13357804715633,9.84035491943359,1.26485753059387,0.15381707251072,-0.25372582674026
302,915377221,0.80296081304550,-0.26114422082901,14.00628280639648,0.04344224929810,0.14451773464680,9.87263107299805,1.40795564651489,0.13303235173225,-0.25589007139206
303,915393888,0.80335825681686,-0.26090213656425,14.00690650939941,0.04806518554688,0.13410191237926,9.85772800445557,1.33166825771332,0.13041986525059,-0.25859221816063
304,915410555,0.80331337451935,-0.26039868593216,14.00788593292236,0.03757309541106,0.13575325906277,9.86426830291748,1.30508232116699,0.14654307067394,-0.23093050718307
305,915427222,0.80433070659637,-0.26084017753601,14.00923252105713,0.04282156378031,0.14707277715206,9.83389186859131,1.36970293521881,0.08937551081181,-0.22318264842033
306,915443889,0.80370652675629,-0.26158756017685,14.00967502593994,0.04656016826630,0.13340114057064,9.83964633941650,1.27006971836090,0.07015318423510,-0.28084966540337
307,915460556,0.80525940656662,-0.26192000508308,14.01128673553467,0.04634076356888,0.13971343636513,9.83189392089844,1.40155255794525,0.09696969389915,-0.19800539314747
308,915477223,0.80458706617355,-0.26265710592270,14.01210975646973,0.04520832374692,0.13256819546223,9.85344219207764,1.26730346679688,0.07208693772554,-0.21940478682518
309,915493890,0.80400812625885,-0.26224192976952,14.01184082031250,0.03651717677712,0.13541910052299,9.87182521820068,1.27332258224487,0.14079301059246,-0.25299587845802
310,915510557,0.80447757244110,-0.26241290569305,14.01364421844482,0.04809835553169,0.14244788885117,9.85952949523926,1.33659887313843,0.10585729777813,-0.18901534378529
311,915527224,0.80422663688660,-0.26352980732918,14.01468563079834,0.03894843533635,0.13418379426003,9.85989475250244,1.29323649406433,0.04892025887966,-0.25482717156410
312,915543891,0.80381703376770,-0.26486194133759,14.01543521881104,0.04340022057295,0.14010207355022,9.85410213470459,1.28405439853668,0.03644687309861,-0.20076514780521
313,915560558,0.80394202470779,-0.26439556479454,14.01585006713867,0.05218278616667,0.14456087350845,9.86697101593018,1.31503283977509,0.14416107535362,-0.21772716939449
314,915577225,0.80413126945496,-0.26361283659935,14.01802825927734,0.04448623210192,0.15107583999634,9.85266876220703,1.32021939754486,0.16445913910866,-0.15404117107391
315,915593892,0.80431401729584,-0.26260012388229,14.01979827880859,0.04053931683302,0.13915580511093,9.86830329895020,1.31942546367645,0.17679165303707,-0.18108820915222
316,915610559,0.80460083484650,-0.26181510090828,14.02029705047607,0.04687702283263,0.13521261513233,9.84159946441650,1.32486808300018,0.16314008831978,-0.24509432911873
317,915627226,0.80526530742645,-0.26269045472145,14.02058601379395,0.04290076345205,0.13126306235790,9.85443496704102,1.34831655025482,0.06300723552704,-0.27503556013107
318,915643893,0.80569744110107,-0.26276224851608,14.01978874206543,0.04340616613626,0.13612264394760,9.86995983123779,1.33320510387421,0.11091580241919,-0.30842170119286
319,915660560,0.80620294809341,-0.26316601037979,14.02020645141602,0.03514128550887,0.13117399811745,9.85981655120850,1.33821249008179,0.09120683372021,-0.28256574273109
320,915677227,0.80704635381699,-0.26342687010765,14.02091217041016,0.05299015715718,0.13869667053223,9.87151718139648,1.35924029350281,0.10003039240837,-0.23618108034134
321,915693894,0.80716484785080,-0.26480263471603,14.01947212219238,0.04009844735265,0.13938991725445,9.86248207092285,1.31443095207214,0.03242567926645,-0.31275027990341
322,915710561,0.80603837966919,-0.26539266109467,14.01938247680664,0.05110259726644,0.13661116361618,9.85877799987793,1.24046134948730,0.08012931793928,-0.24464608728886
323,915727228,0.80586677789688,-0.26580503582954,14.01889896392822,0.04628352448344,0.14214114844799,9.85381031036377,1.29811573028564,0.09009267389774,-0.29339987039566
324,915743895,0.80593150854111,-0.26655766367912,14.02026271820068,0.04715307056904,0.14171971380711,9.84229183197021,1.31178009510040,0.07158750295639,-0.19692963361740
325,915760562,0.80611926317215,-0.26797848939896,14.02081298828125,0.06017830595374,0.12145096808672,9.86200141906738,1.31911802291870,0.03061998263001,-0.24938446283340
326,915777229,0.80638676881790,-0.26886022090912,14.02109146118164,0.04687541350722,0.13775233924389,9.86853504180908,1.32467591762543,0.06244375929236,-0.28008124232292
327,915793896,0.80666261911392,-0.26948726177216,14.02246856689453,0.03402584046125,0.14160814881325,9.84894371032715,1.32426607608795,0.07860537618399,-0.23180133104324
328,915810563,0.80640560388565,-0.26926773786545,14.02090167999268,0.04566416889429,0.13480919599533,9.87251949310303,1.29282665252686,0.12797385454178,-0.29010865092278
329,915827230,0.80609065294266,-0.26866558194160,14.02140712738037,0.04347204044461,0.14221611618996,9.85813713073730,1.28912568092346,0.15171682834625,-0.26452156901360
330,915843897,0.80544692277908,-0.26912331581116,14.02127742767334,0.04053653404117,0.13421219587326,9.86784839630127,1.26928853988647,0.08870958536863,-0.25737562775612
331,915860564,0.80517119169235,-0.26975765824318,14.02176475524902,0.03586173430085,0.13622687757015,9.85595035552979,1.29166126251221,0.07705580443144,-0.26389405131340
332,915877231,0.80455112457275,-0.26958450675011,14.02188491821289,0.05111767724156,0.13895925879478,9.85990810394287,1.27058196067810,0.12602728605270,-0.26466244459152
333,915893898,0.80531811714172,-0.26879388093948,14.02453994750977,0.04542484134436,0.13628168404102,9.85506057739258,1.35483491420746,0.16483052074909,-0.13526707887650
334,915910565,0.80649304389954,-0.26858517527580,14.02646064758301,0.04152327403426,0.13941922783852,9.83567047119141,1.37937200069427,0.12916485965252,-0.18376471102238
335,915927232,0.80679154396057,-0.26869723200798,14.02783679962158,0.05214161798358,0.14513823390007,9.83276081085205,1.32571315765381,0.10946866869926,-0.23784591257572
336,915943899,0.80744528770447,-0.26881909370422,14.02826118469238,0.05985353887081,0.14840106666088,9.85595130920410,1.34799647331238,0.10802157223225,-0.25158715248108
337,915960566,0.80758768320084,-0.26829481124878,14.02841758728027,0.04892405867577,0.13588672876358,9.85234642028809,1.31647348403931,0.14720258116722,-0.27483704686165
338,915977233,0.80899399518967,-0.26876151561737,14.02884769439697,0.05106559395790,0.14629766345024,9.86069583892822,1.39183259010315,0.08778753131628,-0.25498083233833
339,915993900,0.80805516242981,-0.26900899410248,14.02862071990967,0.05213152617216,0.13620325922966,9.85050010681152,1.25219190120697,0.10087560862303,-0.28124663233757
340,916010567,0.80871057510376,-0.26785901188850,14.02795886993408,0.04624143242836,0.13496223092079,9.86484622955322,1.34663891792297,0.18351501226425,-0.30335041880608
341,916027234,0.80870389938354,-0.26726377010345,14.02970027923584,0.04493500664830,0.14039546251297,9.84796810150146,1.30834770202637,0.15366338193417,-0.14964859187603
342,916043901,0.80774188041687,-0.26618367433548,14.03117370605469,0.04536741971970,0.14341561496258,9.84895420074463,1.25092422962189,0.18068480491638,-0.21581900119781
343,916060568,0.80763834714890,-0.26487821340561,14.03237819671631,0.05878359824419,0.13886886835098,9.84830474853516,1.30177187919617,0.19462451338768,-0.22548137605190
344,916077235,0.80845171213150,-0.26413491368294,14.03372669219971,0.04035445675254,0.12910230457783,9.84055995941162,1.35652542114258,0.16025866568089,-0.24592672288418
345,916093902,0.80829572677612,-0.26351657509804,14.03283596038818,0.03153924271464,0.13602024316788,9.84370231628418,1.29873049259186,0.15234436094761,-0.31801369786263
346,916110569,0.80827468633652,-0.26292279362679,14.03422069549561,0.05097076296806,0.14069154858589,9.86780548095703,1.30719530582428,0.15184490382671,-0.21525554358959
347,916127236,0.80859559774399,-0.26396718621254,14.03492546081543,0.03719309344888,0.13019117712975,9.87409305572510,1.32728862762451,0.05429892614484,-0.21604314446449
348,916143903,0.80913823843002,-0.26447844505310,14.03666687011719,0.03019036538899,0.13004630804062,9.83198642730713,1.34068381786346,0.08564886450768,-0.17944897711277
349,916160570,0.80870831012726,-0.26337477564812,14.03758716583252,0.05908788740635,0.13065753877163,9.84384536743164,1.28311955928802,0.18268258869648,-0.22900956869125
350,916177237,0.80814433097839,-0.26387232542038,14.03816986083984,0.04107283055782,0.14353503286839,9.83955669403076,1.27374517917633,0.08610990643501,-0.24641340970993
351,916193904,0.80761086940765,-0.26401612162590,14.03855705261230,0.04064176231623,0.14665770530701,9.85620212554932,1.27686989307404,0.10663846880198,-0.25927093625069
352,916210571,0.80874943733215,-0.26343581080437,14.03962039947510,0.04061112180352,0.13461914658546,9.86381244659424,1.37652254104614,0.15108291804790,-0.25182408094406
353,916227238,0.80837416648865,-0.26377272605896,14.04122924804688,0.03759467229247,0.12976133823395,9.87324905395508,1.28582787513733,0.09555457532406,-0.21819457411766
354,916243905,0.80888557434082,-0.26318812370300,14.04186058044434,0.03818039968610,0.14024144411087,9.85564517974854,1.33869910240173,0.15155035257339,-0.23812769353390
355,916260572,0.80936896800995,-0.26244592666626,14.04231071472168,0.05702194571495,0.13619852066040,9.86894416809082,1.33711099624634,0.16027146577835,-0.26667302846909
356,916277239,0.80949985980988,-0.26167833805084,14.04325199127197,0.04186844453216,0.14690969884396,9.85389328002930,1.31635200977325,0.16187228262424,-0.22747281193733
357,916293906,0.80930727720261,-0.26188308000565,14.04500579833984,0.02408996224403,0.11888523399830,9.84041309356689,1.29711019992828,0.10448060184717,-0.18585856258869
358,916310573,0.81010466814041,-0.26134574413300,14.04532337188721,0.06167018041015,0.13345414400101,9.86618328094482,1.35616040229797,0.14798377454281,-0.25752288103104
359,916327240,0.79882174730301,-0.26085305213928,14.04857921600342,0.03831963241100,0.13971385359764,9.85995769500732,1.29341566562653,0.15705707669258,-0.22155623137951
360,916343907,0.79865926504135,-0.26114270091057,14.05072784423828,0.04452992603183,0.13885031640530,9.85231208801270,1.30124676227570,0.09974225610495,-0.17236065864563
361,916360574,0.79851233959198,-0.25976181030273,14.05155467987061,0.05048362165689,0.13705687224865,9.87160015106201,1.30136203765869,0.19828709959984,-0.25640872120857
362,916377241,0.79898190498352,-0.26022472977638,14.05275821685791,0.03991310670972,0.14378947019577,9.86821746826172,1.33858358860016,0.08899132162333,-0.20423564314842
363,916393908,0.79964601993561,-0.26054579019547,14.05326938629150,0.03737591952085,0.13933190703392,9.84247875213623,1.34952032566071,0.09630374610424,-0.25481435656548
364,916410575,0.80038768053055,-0.26016986370087,14.05451488494873,0.03820700198412,0.13808037340641,9.83206462860107,1.35521912574768,0.13960202038288,-0.20027211308479
365,916427242,0.79994207620621,-0.26051452755928,14.05580902099609,0.04036233201623,0.13190637528896,9.87784671783447,1.28355503082275,0.09530486166477,-0.20995372533798
366,916443909,0.80098998546600,-0.25948762893677,14.05633163452148,0.03607796877623,0.12220732122660,9.85002422332764,1.37391650676727,0.17805950343609,-0.24149574339390
367,916460576,0.80051863193512,-0.26002186536789,14.05556678771973,0.02773927710950,0.14479936659336,9.85833835601807,1.28176820278168,0.08299155533314,-0.29125481843948
368,916477243,0.79959326982498,-0.26080447435379,14.05690383911133,0.03781473636627,0.13884143531322,9.85980129241943,1.25433075428009,0.06901341676712,-0.20499765872955
369,916493910,0.79996603727341,-0.26053193211555,14.05718421936035,0.03022128716111,0.14084701240063,9.86355304718018,1.33342278003693,0.13203345239162,-0.23442663252354
370,916510577,0.79948848485947,-0.25999090075493,14.05765819549561,0.04921932518482,0.13915298879147,9.85995197296143,1.28143548965454,0.14879058301449,-0.23183335363865
371,916527244,0.79917567968369,-0.25983840227127,14.05767822265625,0.04804699495435,0.12908473610878,9.88035106658936,1.29161000251770,0.12528452277184,-0.22927846014500
372,916543911,0.79873561859131,-0.25986760854721,14.05744361877441,0.03836217522621,0.15336383879185,9.84484767913818,1.28318345546722,0.11293920874596,-0.29749789834023
373,916560578,0.79859226942062,-0.25895550847054,14.05780506134033,0.03663167729974,0.14182613790035,9.83585453033447,1.30191910266876,0.17035007476807,-0.25627428293228
374,916577245,0.79934442043304,-0.25943157076836,14.05869960784912,0.04817475378513,0.13862401247025,9.84992122650146,1.35614120960236,0.08792839944363,-0.21223321557045
375,916593912,0.79921382665634,-0.25907370448112,14.05985069274902,0.03186707943678,0.15379983186722,9.86003494262695,1.30214965343475,0.13754020631313,-0.22106963396072
376,916610579,0.79911410808563,-0.25840592384338,14.06122493743896,0.03750073164701,0.13852131366730,9.85541725158691,1.30427539348602,0.15616062283516,-0.20269247889519
377,916627246,0.79890912771225,-0.25795078277588,14.06168842315674,0.04102088883519,0.13391539454460,9.84830570220947,1.29828202724457,0.14276519417763,-0.26175540685654
378,916643913,0.79819512367249,-0.25800380110741,14.06139373779297,0.05532174557447,0.13355299830437,9.85554599761963,1.26677846908569,0.11202993988991,-0.28356459736824
379,916660580,0.79717743396759,-0.25890034437180,14.06299209594727,0.03312239795923,0.13960675895214,9.84372425079346,1.24956679344177,0.06295602023602,-0.18642844259739
380,916677247,0.79850769042969,-0.25895640254021,14.06442451477051,0.03934589028358,0.13676881790161,9.85671615600586,1.39034700393677,0.11275990307331,-0.19407382607460
381,916693914,0.79794627428055,-0.25849106907845,14.06499385833740,0.03729337453842,0.12972395122051,9.86937618255615,1.27679312229156,0.14425073564053,-0.23738491535187
382,916710581,0.79840242862701,-0.25860309600830,14.06622695922852,0.04656758531928,0.15056528151035,9.86509227752686,1.33778965473175,0.10925096273422,-0.18758098781109
383,916727248,0.79857188463211,-0.25862926244736,14.06697750091553,0.04129904136062,0.13534162938595,9.86221313476562,1.32082140445709,0.11474490165710,-0.24398015439510
384,916743915,0.79788410663605,-0.25936627388000,14.06777667999268,0.03830045461655,0.13731360435486,9.86240386962891,1.26882755756378,0.07129295170307,-0.24442841112614
385,916760582,0.79826682806015,-0.25886532664299,14.06864261627197,0.04181856662035,0.13618002831936,9.86125469207764,1.33353805541992,0.14596676826477,-0.23554080724716
386,916777249,0.79797309637070,-0.25945737957954,14.06849479675293,0.04788511246443,0.14404521882534,9.84959316253662,1.29273700714111,0.07991162687540,-0.26544362306595
387,916793916,0.79851090908051,-0.25941756367683,14.06954288482666,0.03663002699614,0.14675980806351,9.85137176513672,1.34234881401062,0.11730615049601,-0.25802874565125
388,916810583,0.79910641908646,-0.25970563292503,14.06908130645752,0.03586408495903,0.13374885916710,9.85012149810791,1.34590899944305,0.09842960536480,-0.25827208161354
389,916827250,0.79890084266663,-0.26049345731735,14.07022190093994,0.03741281479597,0.14131361246109,9.84306716918945,1.29835903644562,0.06900060921907,-0.21446152031422
390,916843917,0.79839617013931,-0.25949788093567,14.06925487518311,0.04265065863729,0.13897764682770,9.85140991210938,1.27959132194519,0.17390383780003,-0.32516604661942
391,916860584,0.79858052730560,-0.25925850868225,14.06988334655762,0.04974361509085,0.13191835582256,9.85864734649658,1.32073175907135,0.13004848361015,-0.23775629699230
392,916877251,0.79844844341278,-0.25950282812119,14.06991195678711,0.04204862192273,0.13640320301056,9.85838222503662,1.30261063575745,0.10105490684509,-0.29243937134743
393,916893918,0.79839128255844,-0.26020798087120,14.07041931152344,0.03778168559074,0.13599187135696,9.89871692657471,1.30689442157745,0.07249034196138,-0.25738200545311
394,916910585,0.79958420991898,-0.26065108180046,14.07040023803711,0.03553583845496,0.12778010964394,9.86339759826660,1.38153624534607,0.08885045349598,-0.26140958070755
395,916927252,0.79974782466888,-0.26122763752937,14.07264709472656,0.03109845705330,0.14947633445263,9.86430644989014,1.32092380523682,0.08275463432074,-0.15696102380753
396,916943919,0.80009508132935,-0.26170265674591,14.07329845428467,0.05159497633576,0.13509863615036,9.85714149475098,1.33127772808075,0.08682063966990,-0.23530389368534
397,916960586,0.79993534088135,-0.26140713691711,14.07408046722412,0.04654556885362,0.14235326647758,9.86205196380615,1.30031836032867,0.13323727250099,-0.24643902480602
398,916977253,0.79902893304825,-0.26172763109207,14.07450008392334,0.03356390446424,0.13527026772499,9.87180995941162,1.25629007816315,0.09731544554234,-0.22425837814808
399,916993920,0.79968172311783,-0.26227289438248,14.07541942596436,0.04981415718794,0.14955548942089,9.84257125854492,1.34954595565796,0.08233202993870,-0.24387772381306
400,917010587,0.79939776659012,-0.26238715648651,14.07541084289551,0.04622931033373,0.14055098593235,9.84351825714111,1.29269862174988,0.10854662954807,-0.27750718593597
401,917027254,0.80013740062714,-0.26240563392639,14.07690715789795,0.05074908956885,0.13114614784718,9.85390663146973,1.35533440113068,0.11523153632879,-0.19126924872398
402,917043921,0.79985368251801,-0.26193007826805,14.07725048065186,0.05479962751269,0.13660360872746,9.86295413970947,1.29286503791809,0.14444282650948,-0.24903871119022
403,917060588,0.79892528057098,-0.26059198379517,14.07705974578857,0.03712157905102,0.13182646036148,9.86487674713135,1.25449728965759,0.19569383561611,-0.27052775025368
404,917077255,0.79886853694916,-0.26033011078835,14.07771205902100,0.04397831484675,0.13409116864204,9.86700534820557,1.30709302425385,0.13126508891582,-0.25202256441116
405,917093922,0.79946619272232,-0.26069566607475,14.07805728912354,0.04727726802230,0.13820043206215,9.86880683898926,1.34620356559753,0.09317900240421,-0.24140606820583
406,917110589,0.79949277639389,-0.26144424080849,14.07867908477783,0.03159749880433,0.14361786842346,9.85158252716064,1.31218981742859,0.07103682309389,-0.26623761653900
407,917127256,0.79998409748077,-0.26076230406761,14.07972621917725,0.06172803044319,0.13796147704124,9.85719585418701,1.33946728706360,0.15641675889492,-0.22007073462009
408,917143923,0.80069839954376,-0.26065281033516,14.08092975616455,0.03697988390923,0.12813289463520,9.85704231262207,1.35386180877686,0.12281289696693,-0.21079893410206
409,917160590,0.80101031064987,-0.26025059819221,14.08178138732910,0.04870073869824,0.14923940598965,9.87580299377441,1.32845389842987,0.13981975615025,-0.25176647305489
410,917177257,0.80189162492752,-0.26082608103752,14.08172512054443,0.04062696918845,0.13793219625950,9.86966323852539,1.36329984664917,0.08108980953693,-0.29378405213356
411,917193924,0.80187809467316,-0.26089170575142,14.08251094818115,0.04299975931644,0.12336403131485,9.84569931030273,1.30984628200531,0.11133841425180,-0.23404246568680
412,917210591,0.80187541246414,-0.26179939508438,14.08255767822266,0.04091775417328,0.12553192675114,9.84773063659668,1.31007039546967,0.06122076138854,-0.27532371878624
413,917227258,0.80317991971970,-0.26137778162956,14.08332824707031,0.03559823706746,0.14103382825851,9.85870075225830,1.38834917545319,0.14115157723427,-0.22519323229790
414,917243925,0.80277335643768,-0.26051375269890,14.08342742919922,0.04052839428186,0.14092390239239,9.87794780731201,1.28623139858246,0.16691796481609,-0.25507047772408
415,917260592,0.80237704515457,-0.26122170686722,14.08435153961182,0.04570264369249,0.12867297232151,9.83510589599609,1.28655147552490,0.07413595914841,-0.22222216427326
416,917277259,0.80183833837509,-0.26140356063843,14.08544635772705,0.03771982342005,0.15684531629086,9.88478851318359,1.27848362922668,0.10553713887930,-0.18778592348099
417,917293926,0.80192261934280,-0.26087981462479,14.08461952209473,0.03298971429467,0.14357829093933,9.83265495300293,1.31480240821838,0.14647904038429,-0.28946831822395
418,917310593,0.80097275972366,-0.26199790835381,14.08622646331787,0.04322579503059,0.12588009238243,9.84645271301270,1.25379288196564,0.04894587025046,-0.18177975714207
419,917327260,0.80154293775558,-0.26106393337250,14.08709716796875,0.04515064135194,0.14000672101974,9.86605072021484,1.34508931636810,0.17259117960930,-0.20503607392311
420,917343927,0.80161350965500,-0.26099258661270,14.08763790130615,0.03182887658477,0.13816267251968,9.88433837890625,1.31487917900085,0.12008514255285,-0.23885764181614
421,917360594,0.80200684070587,-0.26125812530518,14.08769226074219,0.03992459923029,0.14556998014450,9.85970973968506,1.33371734619141,0.09859608113766,-0.29455244541168
422,917377261,0.80233287811279,-0.26204025745392,14.08866024017334,0.04840930923820,0.14014473557472,9.84090805053711,1.33006739616394,0.06961531937122,-0.18452027440071
423,917393928,0.80293303728104,-0.26202493906021,14.08879947662354,0.03071272186935,0.13607642054558,9.86410522460938,1.34636998176575,0.11672988533974,-0.25565958023071
424,917410595,0.80340725183487,-0.26176840066910,14.08940982818604,0.04111437126994,0.14627987146378,9.86690425872803,1.33892941474915,0.13056074082851,-0.27657231688499
425,917427262,0.80387598276138,-0.26037091016769,14.08895111083984,0.04255400598049,0.14365200698376,9.87814140319824,1.33810341358185,0.19850480556488,-0.30020642280579
426,917443929,0.80356115102768,-0.25959891080856,14.08956623077393,0.03692102059722,0.14340572059155,9.85363483428955,1.29153323173523,0.16144965589046,-0.26215240359306
427,917460596,0.80435943603516,-0.25873315334320,14.08975601196289,0.05198961868882,0.14450605213642,9.86355018615723,1.35779333114624,0.16807053983212,-0.22356683015823
428,917477263,0.80385160446167,-0.25850969552994,14.09065818786621,0.03362713754177,0.14074325561523,9.84776306152344,1.28022515773773,0.12963868677616,-0.21686911582947
429,917493930,0.80396580696106,-0.25776356458664,14.09142494201660,0.03764603659511,0.14463609457016,9.85979938507080,1.31765806674957,0.16086055338383,-0.22410473227501
430,917510597,0.80250388383865,-0.25779378414154,14.09070110321045,0.04468205571175,0.14663894474506,9.85276126861572,1.22173869609833,0.11292640119791,-0.27926167845726
431,917527264,0.80268615484238,-0.25710073113441,14.09100723266602,0.04874127730727,0.15031921863556,9.86480331420898,1.32126963138580,0.15747968852520,-0.25589007139206
432,917543931,0.80221098661423,-0.25717744231224,14.09163284301758,0.05205221846700,0.14646856486797,9.87909221649170,1.28233838081360,0.11091580241919,-0.23504135012627
433,917560598,0.80241155624390,-0.25618845224380,14.09321022033691,0.04547607898712,0.14585134387016,9.87128734588623,1.32215309143066,0.17584398388863,-0.18340612947941
434,917577265,0.80294805765152,-0.25554209947586,14.09438228607178,0.02926938235760,0.15785370767117,9.86215877532959,1.34257936477661,0.15425248444080,-0.22917602956295
435,917593932,0.80281180143356,-0.25619667768478,14.09576797485352,0.03936703130603,0.15229034423828,9.85365486145020,1.30261063575745,0.07717105746269,-0.22879183292389
436,917610599,0.80323934555054,-0.25571849942207,14.09765911102295,0.03945809602737,0.14576208591461,9.84789943695068,1.33645164966583,0.14538408815861,-0.15691620111465
437,917627266,0.80334961414337,-0.25567451119423,14.09861755371094,0.05349558964372,0.14754931628704,9.87165260314941,1.31674253940582,0.11809375882149,-0.21401973068714
438,917643933,0.80212074518204,-0.25735729932785,14.10031127929688,0.04124934598804,0.13235121965408,9.85418224334717,1.23673498630524,0.01576461642981,-0.19368965923786
439,917660600,0.80209845304489,-0.25749129056931,14.10031127929688,0.05105818808079,0.14417655766010,9.84174442291260,1.30836057662964,0.10703546553850,-0.27568867802620
440,917677267,0.80293172597885,-0.25685632228851,14.10058879852295,0.03510073572397,0.13814648985863,9.86907196044922,1.36087965965271,0.15365059673786,-0.23974129557610
441,917693934,0.80305647850037,-0.25701966881752,14.10153961181641,0.04425787180662,0.13453008234501,9.85561466217041,1.31717157363892,0.10640796273947,-0.23609146475792
442,917710601,0.80261248350143,-0.25610715150833,14.10184669494629,0.05342435836792,0.12880803644657,9.84713649749756,1.28342676162720,0.16977377235889,-0.24910271167755
443,917727268,0.80311685800552,-0.25554820895195,14.10301685333252,0.05141650140285,0.14305250346661,9.87126350402832,1.34091436862946,0.15041056275368,-0.19685278832912
444,917743935,0.80369406938553,-0.25457936525345,14.10140228271484,0.03502434864640,0.13987752795219,9.84424972534180,1.34493553638458,0.17256556451321,-0.33363741636276
445,917760602,0.80297416448593,-0.25378599762917,14.10181236267090,0.04723532870412,0.14117966592312,9.85882186889648,1.26697051525116,0.16315290331841,-0.22729989886284
446,917777269,0.80188214778900,-0.25419563055038,14.10137176513672,0.04513331502676,0.14101138710976,9.85846710205078,1.24470043182373,0.09038721770048,-0.28543433547020
447,917793936,0.80129259824753,-0.25287097692490,14.10176753997803,0.04291484132409,0.15026405453682,9.84345626831055,1.27492332458496,0.19488702714443,-0.25218263268471
448,917810603,0.80054658651352,-0.25365552306175,14.10166168212891,0.04906048253179,0.14683057367802,9.84940052032471,1.26542747020721,0.06852037459612,-0.25622943043709
449,917827270,0.80067956447601,-0.25463309884071,14.10331344604492,0.04096026718616,0.13549564778805,9.86107444763184,1.31850981712341,0.05860826745629,-0.18010850250721
450,917843937,0.80134272575378,-0.25413736701012,14.10397148132324,0.02133101597428,0.14326012134552,9.86091041564941,1.34958434104919,0.14518558979034,-0.22188921272755
451,917860604,0.80025368928909,-0.25308734178543,14.10455894470215,0.04699498787522,0.13845677673817,9.84333705902100,1.24543035030365,0.17936573922634,-0.22648669779301
452,917877271,0.80053192377090,-0.25435513257980,14.10555839538574,0.05482311546803,0.13192962110043,9.87492370605469,1.32616150379181,0.03875201195478,-0.26881167292595
453,917893938,0.80020421743393,-0.25389268994331,14.10612392425537,0.05164927616715,0.14508111774921,9.86482906341553,1.29064953327179,0.14340551197529,-0.25102365016937
454,917910605,0.79953098297119,-0.25408032536507,14.10828781127930,0.04915181174874,0.13510362803936,9.85041141510010,1.26994168758392,0.10565238445997,-0.15163359045982
455,917927272,0.79941374063492,-0.25435298681259,14.10873413085938,0.03295103088021,0.14282293617725,9.86607742309570,1.30359673500061,0.09981268644333,-0.23396562039852
456,917943939,0.80007129907608,-0.25502976775169,14.10877513885498,0.03404460102320,0.13593760132790,9.85861492156982,1.34962272644043,0.07454576343298,-0.27749440073967
457,917960606,0.80058169364929,-0.25505086779594,14.11006069183350,0.04605874046683,0.13143600523472,9.85096549987793,1.34101688861847,0.11474488675594,-0.20207779109478
458,917977273,0.80036675930023,-0.25556975603104,14.10956478118896,0.04448106884956,0.12161258608103,9.84215259552002,1.29768013954163,0.08421456068754,-0.27955621480942
459,917993940,0.80101186037064,-0.25612446665764,14.11002063751221,0.04429849982262,0.14870880544186,9.84819221496582,1.34841907024384,0.08308760076761,-0.23629634082317
460,918010607,0.80023926496506,-0.25579378008842,14.11131286621094,0.04595353454351,0.13986754417419,9.86996746063232,1.26429402828217,0.13570889830589,-0.21196432411671
461,918027274,0.79999709129333,-0.25537654757500,14.11225128173828,0.04697015136480,0.16084098815918,9.85755920410156,1.29546475410461,0.14134368300438,-0.20974881947041
462,918043941,0.80012774467468,-0.25544473528862,14.11263561248779,0.02999784052372,0.14120399951935,9.85483455657959,1.31847774982452,0.11140243709087,-0.24559378623962
463,918060608,0.80062556266785,-0.25635540485382,14.11306762695312,0.04065602645278,0.14012977480888,9.87259387969971,1.33990275859833,0.06068929284811,-0.24588833749294
464,918077275,0.80132073163986,-0.25634774565697,14.11462402343750,0.05175431445241,0.13264602422714,9.87477874755859,1.35238885879517,0.11722932755947,-0.16767995059490
465,918093942,0.80185681581497,-0.25618898868561,14.11593246459961,0.03956368938088,0.13621254265308,9.86990928649902,1.34210538864136,0.12579676508904,-0.23601460456848
466,918110609,0.80204296112061,-0.25650358200073,14.11698436737061,0.05129160359502,0.13946217298508,9.85903263092041,1.32179462909698,0.09755877405405,-0.20734120905399
467,918127276,0.80201095342636,-0.25585505366325,14.11746788024902,0.04887703061104,0.14980898797512,9.85962200164795,1.30807900428772,0.15440616011620,-0.25038337707520
468,918143943,0.80175608396530,-0.25574737787247,14.11741256713867,0.04515003412962,0.14379031956196,9.85755157470703,1.29493975639343,0.12112246453762,-0.28867435455322
469,918160610,0.80194497108459,-0.25583499670029,14.11842346191406,0.04977134615183,0.14202360808849,9.84182739257812,1.32174348831177,0.11112070083618,-0.22170993685722
470,918177277,0.80190736055374,-0.25603145360947,14.11938571929932,0.03755955398083,0.14034998416901,9.85464000701904,1.30780994892120,0.10449981689453,-0.21054278314114
471,918193944,0.80190932750702,-0.25711527466774,14.12108802795410,0.03669419884682,0.13433989882469,9.85728454589844,1.31105005741119,0.05148152261972,-0.19666071236134
472,918210611,0.80134689807892,-0.25684970617294,14.12213420867920,0.04722633957863,0.13973492383957,9.86924266815186,1.27681231498718,0.13243687152863,-0.19603961706161
473,918227278,0.80171144008636,-0.25630161166191,14.12294292449951,0.03753259032965,0.12433230876923,9.85852336883545,1.33239185810089,0.14972545206547,-0.17904558777809
474,918243945,0.80220866203308,-0.25819957256317,14.12441730499268,0.03627174347639,0.13760016858578,9.83904552459717,1.33987712860107,0.00222830497660,-0.19114117324352
475,918260612,0.80123597383499,-0.25797253847122,14.12414455413818,0.05303494632244,0.14955201745033,9.85459232330322,1.25212812423706,0.12846051156521,-0.28068318963051
476,918277279,0.80119699239731,-0.25862023234367,14.12481975555420,0.03982128202915,0.15106491744518,9.86584377288818,1.30769467353821,0.07763209193945,-0.22539816796780
477,918293946,0.80095595121384,-0.25851866602898,14.12504863739014,0.04915816709399,0.14747124910355,9.84963321685791,1.29578495025635,0.12142981588840,-0.26655775308609
478,918310613,0.80137389898300,-0.25858628749847,14.12624454498291,0.04883534088731,0.14035840332508,9.87670993804932,1.33593285083771,0.11227326095104,-0.22094152867794
479,918327280,0.79755002260208,-0.26025956869125,14.12338829040527,0.04970860481262,0.14840137958527,9.84333419799805,1.23346924781799,0.10134945809841,-0.24957655370235
480,918343947,0.79860305786133,-0.26106256246567,14.12434005737305,0.05215946212411,0.14551191031933,9.86405658721924,1.37360906600952,0.06836029887199,-0.20426768064499
481,918360614,0.79944843053818,-0.26179134845734,14.12414169311523,0.05119942128658,0.14846944808960,9.85392093658447,1.36104595661163,0.07234306633472,-0.28375670313835
482,918377281,0.79916733503342,-0.26300728321075,14.12490177154541,0.05488734319806,0.14799141883850,9.84918212890625,1.29353117942810,0.04276040196419,-0.21736860275269
483,918393948,0.79949539899826,-0.26304063200951,14.12523651123047,0.05404632538557,0.13963611423969,9.85973739624023,1.33038771152496,0.11469367146492,-0.23855027556419
484,918410615,0.79835629463196,-0.26299229264259,14.12542343139648,0.05155681818724,0.12698775529861,9.85621547698975,1.24233126640320,0.11825384199619,-0.24617648124695
485,918427282,0.79812794923782,-0.26270171999931,14.12658119201660,0.04431454464793,0.14168769121170,9.86232948303223,1.29686057567596,0.13423615694046,-0.19947810471058
486,918443949,0.79813224077225,-0.26342645287514,14.12739562988281,0.04030308127403,0.14802166819572,9.85704708099365,1.31056332588196,0.07280409336090,-0.23399120569229
487,918460616,0.79719138145447,-0.26426041126251,14.12862682342529,0.03557548671961,0.12682110071182,9.84856510162354,1.25427949428558,0.06666985899210,-0.18367508053780
488,918477283,0.79599380493164,-0.26575148105621,14.12882041931152,0.04054128378630,0.12861154973507,9.88250541687012,1.23911666870117,0.02649633772671,-0.25825923681259
489,918493950,0.79632002115250,-0.26586937904358,14.12955570220947,0.06066446006298,0.12811790406704,9.88267707824707,1.32988822460175,0.10953271389008,-0.24964056909084
490,918510617,0.79643833637238,-0.26489782333374,14.13026142120361,0.04948332905769,0.13098257780075,9.86955261230469,1.31783735752106,0.17415355145931,-0.21712525188923
491,918527284,0.79655104875565,-0.26367026567459,14.13018226623535,0.04592609032989,0.14971674978733,9.85075664520264,1.31735086441040,0.18907295167446,-0.28604903817177
492,918543951,0.79723417758942,-0.26323014497757,14.12907791137695,0.04017054662108,0.12756030261517,9.83314704895020,1.35139000415802,0.14206084609032,-0.31920468807220
493,918560618,0.79717749357224,-0.26283535361290,14.13076400756836,0.05188346281648,0.14200761914253,9.85651779174805,1.30663192272186,0.14080582559109,-0.17620898783207
494,918577285,0.79707348346710,-0.26285284757614,14.13126564025879,0.04450029879808,0.13631656765938,9.85718727111816,1.30433952808380,0.11461683362722,-0.24373687803745
495,918593952,0.79653853178024,-0.26391267776489,14.13168525695801,0.04023730754852,0.15479539334774,9.84212493896484,1.27845799922943,0.05217307060957,-0.26356109976768
496,918610619,0.79651492834091,-0.26512438058853,14.13333034515381,0.03882989287376,0.14003373682499,9.84836673736572,1.31014084815979,0.04433558508754,-0.19586671888828
497,918627286,0.79630398750305,-0.26490589976311,14.13466453552246,0.04379669576883,0.14364819228649,9.87083053588867,1.29774427413940,0.13003568351269,-0.16706524789333
498,918643953,0.79666960239410,-0.26383811235428,14.13578319549561,0.05617912858725,0.12737858295441,9.85715103149414,1.33269286155701,0.18063358962536,-0.21278391778469
499,918660620,0.79610985517502,-0.26322522759438,14.13586139678955,0.04531344771385,0.13366852700710,9.87135124206543,1.27757430076599,0.15240837633610,-0.25667124986649
500,918677287,0.79618781805038,-0.26358380913734,14.13496208190918,0.05561655014753,0.13246679306030,9.83980083465576,1.31457817554474,0.09405622631311,-0.32239985466003
501,918693954,0.79714244604111,-0.26361474394798,14.13519287109375,0.04622623324394,0.12677945196629,9.86005115509033,1.36803841590881,0.11387407779694,-0.25469911098480
502,918710621,0.79742866754532,-0.26407891511917,14.13554286956787,0.04015928506851,0.14284515380859,9.84634304046631,1.32792890071869,0.08855591714382,-0.22788897156715
503,918727288,0.79756551980972,-0.26500943303108,14.13571834564209,0.03935663029552,0.14092887938023,9.83619785308838,1.31879782676697,0.06018985062838,-0.25570440292358
504,918743955,0.79783475399017,-0.26490885019302,14.13739395141602,0.05613502860069,0.14866633713245,9.85344886779785,1.32703888416290,0.12292175740004,-0.18758741021156
505,918760622,0.79769927263260,-0.26402771472931,14.13831520080566,0.05010212585330,0.13072398304939,9.85285854339600,1.30245697498322,0.16981220245361,-0.20056664943695
506,918777289,0.79785954952240,-0.26532578468323,14.13808059692383,0.04223917052150,0.14099740982056,9.84950542449951,1.32029628753662,0.03757383301854,-0.27654671669006
507,918793956,0.79773449897766,-0.26471093297005,14.13833332061768,0.04167875647545,0.12010210007429,9.87107658386230,1.30313575267792,0.15290780365467,-0.23931865394115
508,918810623,0.79785865545273,-0.26483222842216,14.13813972473145,0.04363841563463,0.14103282988071,9.85370731353760,1.31831121444702,0.10794471949339,-0.28093931078911
509,918827290,0.79897695779800,-0.26514521241188,14.13891124725342,0.03621224313974,0.14147739112377,9.84762001037598,1.37729728221893,0.09763561189175,-0.22012194991112
510,918843957,0.79797387123108,-0.26460188627243,14.13984966278076,0.04974675923586,0.13758787512779,9.85689067840576,1.25055289268494,0.14950132369995,-0.23945952951908
511,918860624,0.79753792285919,-0.26491379737854,14.14008998870850,0.05129023268819,0.13924409449100,9.85632228851318,1.28451538085938,0.09679038822651,-0.24555535614491
512,918877291,0.79642522335052,-0.26559957861900,14.14117145538330,0.03683157637715,0.13765089213848,9.83649826049805,1.24418807029724,0.07623620331287,-0.20434454083443
513,918893958,0.79603248834610,-0.26536384224892,14.14113712310791,0.04794615134597,0.12969030439854,9.83802318572998,1.28666663169861,0.12967708706856,-0.27183398604393
514,918910625,0.79674005508423,-0.26485976576805,14.14229106903076,0.04252237454057,0.14175707101822,9.84833240509033,1.35337519645691,0.14705532789230,-0.20791751146317
515,918927292,0.79783123731613,-0.26467961072922,14.14273643493652,0.05576673522592,0.14862537384033,9.84703063964844,1.37642645835876,0.12633463740349,-0.25509607791901
516,918943959,0.79785192012787,-0.26509708166122,14.14358234405518,0.04771013557911,0.13530124723911,9.85493755340576,1.31166481971741,0.09138610959053,-0.21348826587200
517,918960626,0.79761242866516,-0.26486414670944,14.14246559143066,0.04046892002225,0.13140319287777,9.84599113464355,1.29622030258179,0.12897275388241,-0.31373637914658
518,918977293,0.79675489664078,-0.26475870609283,14.14353370666504,0.05067280679941,0.13992910087109,9.86296558380127,1.25912034511566,0.12370935082436,-0.20232112705708
519,918993960,0.79730856418610,-0.26517844200134,14.14375305175781,0.04330286756158,0.15541459619999,9.87717628479004,1.34423124790192,0.09033598750830,-0.25510886311531
520,919010627,0.79748231172562,-0.26548925042152,14.14550876617432,0.05042698606849,0.14286257326603,9.84976196289062,1.32167935371399,0.09967183321714,-0.14090186357498
521,919027294,0.79650634527206,-0.26463976502419,14.14747524261475,0.05653740465641,0.13944289088249,9.86345577239990,1.25199997425079,0.16850595176220,-0.13191179931164
522,919043961,0.79747694730759,-0.26495948433876,14.14793872833252,0.04395779967308,0.14838102459908,9.86950969696045,1.36951124668121,0.09680320322514,-0.22752404212952
523,919060628,0.79749339818954,-0.26513472199440,14.14875411987305,0.04631346464157,0.13910934329033,9.84510326385498,1.31165206432343,0.10599815100431,-0.22401505708694
524,919077295,0.79720872640610,-0.26514077186584,14.14938545227051,0.03936107829213,0.14713227748871,9.84871387481689,1.29350543022156,0.11576941609383,-0.23834539949894
525,919093962,0.79729050397873,-0.26444822549820,14.15001010894775,0.03475588932633,0.14433713257313,9.84053993225098,1.31575000286102,0.15827368199825,-0.22924007475376
526,919110629,0.79712146520615,-0.26414629817009,14.15123748779297,0.03850760310888,0.13428370654583,9.84059047698975,1.30022883415222,0.13454352319241,-0.19238339364529
527,919127296,0.79664301872253,-0.26471704244614,14.14972209930420,0.05061705783010,0.13942989706993,9.86387538909912,1.28133928775787,0.08059035986662,-0.36425739526749
528,919143963,0.79747939109802,-0.26567253470421,14.14963531494141,0.04558898508549,0.13238467276096,9.84440708160400,1.36089241504669,0.05839695781469,-0.27233344316483
529,919160630,0.79811346530914,-0.26517364382744,14.15001773834229,0.04670728370547,0.14288623631001,9.85799217224121,1.34839332103729,0.14603081345558,-0.25084438920021
530,919177297,0.79813462495804,-0.26540499925613,14.15025901794434,0.04091775789857,0.15293289721012,9.83412933349609,1.31216418743134,0.10233554244041,-0.25248360633850
531,919193964,0.79730099439621,-0.26570808887482,14.15130519866943,0.04606192186475,0.14955872297287,9.85717010498047,1.26073396205902,0.09826312959194,-0.20228269696236
532,919210631,0.79703998565674,-0.26607516407967,14.15190219879150,0.04619205743074,0.14323371648788,9.85448265075684,1.29436349868774,0.09406264126301,-0.26582780480385
533,919227298,0.79681676626205,-0.26729586720467,14.15156841278076,0.04333658143878,0.13868159055710,9.86916637420654,1.29702711105347,0.04272198304534,-0.26881170272827
534,919243965,0.79719364643097,-0.26864770054817,14.15222835540771,0.03291273862123,0.13443174958229,9.84154891967773,1.33301305770874,0.03503817319870,-0.22156907618046
535,919260632,0.79637134075165,-0.26761117577553,14.15317821502686,0.04521853104234,0.14260189235210,9.84648895263672,1.26183521747589,0.17931450903416,-0.20814800262451
536,919277299,0.79648172855377,-0.26793199777603,14.15412235260010,0.05021863058209,0.14765577018261,9.84812355041504,1.31712019443512,0.09696967899799,-0.22556462883949
537,919293966,0.79534971714020,-0.26597076654434,14.15553951263428,0.04974877461791,0.15148374438286,9.84807014465332,1.24329161643982,0.23448427021503,-0.18104979395866
538,919310633,0.79470413923264,-0.26633286476135,14.15650081634521,0.04521371051669,0.14087317883968,9.84807109832764,1.27183055877686,0.09504232555628,-0.21998746693134
539,919327300,0.79404687881470,-0.26723259687424,14.15600490570068,0.04921232536435,0.14960154891014,9.85827636718750,1.27069723606110,0.06182906031609,-0.29405301809311
540,919343967,0.79413753747940,-0.26830193400383,14.15604305267334,0.03433018922806,0.14743264019489,9.87780570983887,1.31517362594604,0.05144309997559,-0.26701876521111
541,919360634,0.79306966066360,-0.26858207583427,14.15608596801758,0.04024137929082,0.13831584155560,9.86844158172607,1.24668538570404,0.09899309277534,-0.26517471671104
542,919377301,0.79390531778336,-0.26860007643700,14.15644836425781,0.05266728624701,0.15195973217487,9.84783458709717,1.36084103584290,0.11523153632879,-0.24851360917091
543,919393968,0.79391139745712,-0.26880517601967,14.15612697601318,0.04680974408984,0.15361267328262,9.85561561584473,1.31019210815430,0.10353934019804,-0.27248710393906
544,919410635,0.79374748468399,-0.26886710524559,14.15595436096191,0.05542775616050,0.14046327769756,9.85370254516602,1.30093288421631,0.11236290633678,-0.26523870229721
545,919427302,0.79414761066437,-0.26889583468437,14.15651607513428,0.05847148597240,0.13075627386570,9.84719944000244,1.33433198928833,0.11410458385944,-0.22309303283691
546,919443969,0.79451590776443,-0.27054807543755,14.15745067596436,0.03894672915339,0.13286916911602,9.85550689697266,1.33334589004517,0.01832588575780,-0.18507096171379
547,919460636,0.79466027021408,-0.26972708106041,14.15822410583496,0.05859485268593,0.13922996819019,9.86845970153809,1.31942546367645,0.16525314748287,-0.22779294848442
548,919477303,0.79419916868210,-0.27006909251213,14.15793609619141,0.05054252594709,0.12956146895885,9.86361122131348,1.28273522853851,0.09489504992962,-0.30236434936523
549,919493970,0.79336351156235,-0.27046626806259,14.15967082977295,0.03935118392110,0.13630069792271,9.84863567352295,1.26018321514130,0.09388334304094,-0.17469781637192
550,919510637,0.79444664716721,-0.27082568407059,14.15967082977295,0.05916799232364,0.14042612910271,9.85265445709229,1.37558138370514,0.09442121535540,-0.26107665896416
551,919527304,0.79475289583206,-0.27050808072090,14.16016960144043,0.04364563897252,0.12929083406925,9.86765003204346,1.32919669151306,0.13543996214867,-0.23121222853661
552,919543971,0.79563879966736,-0.26959633827209,14.16099452972412,0.05073582753539,0.15237642824650,9.86458206176758,1.36378657817841,0.17093914747238,-0.20580443739891
553,919560638,0.79508775472641,-0.27035483717918,14.16088771820068,0.04285858944058,0.13841183483601,9.86070632934570,1.27727973461151,0.07093437761068,-0.27020758390427
554,919577305,0.79442149400711,-0.26947128772736,14.16095066070557,0.05285194888711,0.13948380947113,9.85114383697510,1.27097904682159,0.16905660927296,-0.23782032728195
555,919593972,0.79367280006409,-0.27054905891418,14.16126060485840,0.04316573962569,0.14503444731236,9.85704231262207,1.26494717597961,0.05155836418271,-0.22538535296917
556,919610639,0.79426801204681,-0.27009972929955,14.16245651245117,0.03782425448298,0.13883297145367,9.85615348815918,1.34685659408569,0.14418669044971,-0.18338052928448
557,919627306,0.79311466217041,-0.27081972360611,14.16329479217529,0.04172292724252,0.14538997411728,9.87156772613525,1.24134504795074,0.07336757332087,-0.20980003476143
558,919643973,0.79335641860962,-0.27078902721405,14.16329669952393,0.03780621290207,0.13309797644615,9.85141372680664,1.32486808300018,0.11792086809874,-0.24016389250755
559,919660640,0.79387652873993,-0.27206188440323,14.16386508941650,0.03575377911329,0.12081088125706,9.89415073394775,1.34191334247589,0.04078822210431,-0.22432240843773
560,919677307,0.79348003864288,-0.27108487486839,14.16506767272949,0.03614105656743,0.13684383034706,9.87649440765381,1.28733277320862,0.17483229935169,-0.21779119968414
561,919693974,0.79345095157623,-0.26978939771652,14.16512393951416,0.02968057245016,0.13939660787582,9.84656620025635,1.30861687660217,0.19370885193348,-0.23775629699230
562,919710641,0.79314237833023,-0.27006837725639,14.16695785522461,0.05105138942599,0.15037639439106,9.83702659606934,1.29214787483215,0.09996637701988,-0.21711246669292
563,919727308,0.79470223188400,-0.27039504051208,14.16744995117188,0.05277850106359,0.14545682072639,9.84918117523193,1.40372955799103,0.09679038822651,-0.23633477091789
564,919743975,0.79559189081192,-0.27100780606270,14.16787147521973,0.04837409779429,0.13942405581474,9.84654140472412,1.36450397968292,0.07969391345978,-0.23487487435341
565,919760642,0.79654121398926,-0.27072617411613,14.16736698150635,0.04723063856363,0.13226853311062,9.87325954437256,1.36733400821686,0.13222557306290,-0.29081299901009
566,919777309,0.79784750938416,-0.27101314067841,14.16783428192139,0.03662348166108,0.14915320277214,9.84856033325195,1.38882303237915,0.09928763657808,-0.22603850066662
567,919793976,0.79714983701706,-0.27190881967545,14.16820907592773,0.02720336243510,0.14250363409519,9.87783813476562,1.26853311061859,0.06218763813376,-0.24211046099663
568,919810643,0.79682683944702,-0.27183055877686,14.16721916198730,0.04485708102584,0.14187899231911,9.85569286346436,1.29111051559448,0.12073826789856,-0.30683371424675
569,919827310,0.79689860343933,-0.27202028036118,14.16740512847900,0.04482227936387,0.14163023233414,9.84620475769043,1.31496238708496,0.10373783856630,-0.26269665360451
570,919843977,0.79731827974319,-0.27234664559364,14.16803932189941,0.04919166117907,0.13832667469978,9.86001682281494,1.33527970314026,0.09711054712534,-0.21394927799702
571,919860644,0.79749631881714,-0.27205458283424,14.16862392425537,0.05456742644310,0.13752789795399,9.85925197601318,1.32160246372223,0.13381354510784,-0.23789711296558
572,919877311,0.79701805114746,-0.27243652939796,14.16928863525391,0.05157497897744,0.13908322155476,9.85776233673096,1.28174912929535,0.09402422606945,-0.21000494062901
573,919893978,0.79694837331772,-0.27182769775391,14.16997432708740,0.03989403694868,0.15139177441597,9.85645961761475,1.30706715583801,0.15293341875076,-0.21871323883533
574,919910645,0.79736292362213,-0.27016437053680,14.17094326019287,0.04056032374501,0.14700575172901,9.86198329925537,1.33536934852600,0.21644012629986,-0.20152071118355
575,919927312,0.79712933301926,-0.27072840929031,14.17129802703857,0.04404496774077,0.14925338327885,9.84549808502197,1.29632270336151,0.08257534354925,-0.23414491117001
576,919943979,0.79648810625076,-0.27066582441330,14.17243480682373,0.03903864324093,0.15637890994549,9.84457588195801,1.27220845222473,0.12069983780384,-0.20562516152859
577,919960646,0.79681336879730,-0.27107140421867,14.17315769195557,0.03599345311522,0.13570708036423,9.84987640380859,1.32999062538147,0.09177030622959,-0.23155803978443
578,919977313,0.79693442583084,-0.27046382427216,14.17414093017578,0.03783271461725,0.15057151019573,9.85679054260254,1.31786298751831,0.15325360000134,-0.21044035255909
579,919993980,0.79739785194397,-0.27051681280136,14.17494010925293,0.04502253234386,0.14582803845406,9.86351871490479,1.33850693702698,0.11306726187468,-0.21237412095070
580,920010647,0.79585325717926,-0.27041837573051,14.17548084259033,0.04617263376713,0.14135822653770,9.84662532806396,1.21797990798950,0.12283211201429,-0.22124251723289
581,920027314,0.79608792066574,-0.27100744843483,14.17631530761719,0.04307749122381,0.14002083241940,9.86353492736816,1.32430469989777,0.08135874569416,-0.20570200681686
582,920043981,0.79595917463303,-0.27219483256340,14.17577075958252,0.04650413990021,0.14652660489082,9.85826396942139,1.30284118652344,0.04392578080297,-0.29329741001129
583,920060648,0.79708516597748,-0.27249094843864,14.17613506317139,0.04541617631912,0.14663754403591,9.86744117736816,1.37784802913666,0.09887782484293,-0.22858695685863
584,920077315,0.79555058479309,-0.27241414785385,14.17653083801270,0.04701436311007,0.13039220869541,9.85607528686523,1.21783256530762,0.12044371664524,-0.27217972278595
585,920093982,0.79551219940186,-0.27234637737274,14.17698478698730,0.04092913120985,0.14051008224487,9.85342884063721,1.30821990966797,0.12013637274504,-0.23249289393425
586,920110649,0.79596132040024,-0.27217143774033,14.17831134796143,0.05279345065355,0.13601903617382,9.85648059844971,1.33780264854431,0.12719266116619,-0.23383753001690
587,920127316,0.79464316368103,-0.27327871322632,14.17726039886475,0.05754323303699,0.13282930850983,9.84502506256104,1.23056221008301,0.04856168106198,-0.31925591826439
588,920143983,0.79475069046021,-0.27280056476593,14.17674160003662,0.03725333511829,0.14720530807972,9.86735343933105,1.31708192825317,0.14431476593018,-0.25413563847542
589,920160650,0.79523599147797,-0.27300974726677,14.17870521545410,0.03898354992270,0.15077659487724,9.84955406188965,1.34006929397583,0.10531943291426,-0.15792150795460
590,920177317,0.79507923126221,-0.27465304732323,14.17860317230225,0.05808232352138,0.14595377445221,9.86981010437012,1.30090105533600,0.01698762364686,-0.26794725656509
591,920193984,0.79520684480667,-0.27370056509972,14.17899799346924,0.03907625749707,0.14542815089226,9.85052394866943,1.31758129596710,0.17279607057571,-0.27225661277771
592,920210651,0.79418998956680,-0.27483031153679,14.17977523803711,0.04621426388621,0.14380840957165,9.85380554199219,1.24954116344452,0.04903551191092,-0.22341319918633
593,920227318,0.79368191957474,-0.27437776327133,14.18063926696777,0.04168948903680,0.13864301145077,9.85752773284912,1.27973866462708,0.14367444813251,-0.21653617918491
594,920243985,0.79366493225098,-0.27537930011749,14.18103981018066,0.04808603227139,0.13687837123871,9.85325336456299,1.30975675582886,0.05611743032932,-0.23022617399693
595,920260652,0.79399579763412,-0.27609112858772,14.18047714233398,0.05086664855480,0.14145906269550,9.83615493774414,1.32979846000671,0.07268884032965,-0.28388479351997
596,920277319,0.79296052455902,-0.27524936199188,14.18099689483643,0.03846121951938,0.14251857995987,9.85431480407715,1.24831163883209,0.16645692288876,-0.25003758072853
597,920293986,0.79346585273743,-0.27661758661270,14.18171691894531,0.04623838141561,0.14646252989769,9.86282634735107,1.34090173244476,0.03451311215758,-0.23730807006359
598,920310653,0.79378062486649,-0.27674534916878,14.18199539184570,0.03533815965056,0.14176079630852,9.86824893951416,1.32949113845825,0.10878993570805,-0.23522062599659
599,920327320,0.79763346910477,-0.26284509897232,14.18187141418457,0.04715855047107,0.14358310401440,9.86144828796387,1.30223917961121,0.06558131426573,-0.22560304403305
600,920343987,0.79700332880020,-0.26326134800911,14.18214511871338,0.03702058643103,0.12362433224916,9.85820770263672,1.27217006683350,0.08943954855204,-0.23525907099247
601,920360654,0.79796230792999,-0.26335158944130,14.18369865417480,0.04945819824934,0.14830613136292,9.86578369140625,1.36774384975433,0.10978884249926,-0.17637546360493
602,920377321,0.79934912919998,-0.26394331455231,14.18382072448730,0.04213735833764,0.14869806170464,9.85601711273193,1.39297223091125,0.07909201830626,-0.23944674432278
603,920393988,0.80008226633072,-0.26420608162880,14.18386459350586,0.04161586612463,0.13990093767643,9.84954547882080,1.35414350032806,0.09849363565445,-0.27179560065269
604,920410655,0.80031692981720,-0.26396682858467,14.18425559997559,0.05167681351304,0.13394218683243,9.85770893096924,1.32351064682007,0.12863978743553,-0.24093228578568
605,920427322,0.79939544200897,-0.26443752646446,14.18556022644043,0.04491632059216,0.14101336896420,9.84828472137451,1.25545787811279,0.08699353784323,-0.19635337591171
606,920443989,0.79986590147018,-0.26409637928009,14.18603134155273,0.03026659972966,0.13626158237457,9.85169219970703,1.33827638626099,0.13442826271057,-0.23653967678547
607,920460656,0.79928523302078,-0.26475235819817,14.18504142761230,0.04934943094850,0.13563974201679,9.85319614410400,1.27442395687103,0.07426402717829,-0.32344359159470
608,920477323,0.79900527000427,-0.26574480533600,14.18469810485840,0.04400293901563,0.15056398510933,9.85787582397461,1.29285228252411,0.05367141589522,-0.30516895651817
609,920493990,0.79871827363968,-0.26571160554886,14.18565559387207,0.05016626045108,0.15620417892933,9.85283184051514,1.29309570789337,0.11692198365927,-0.21599832177162
610,920510657,0.79840517044067,-0.26525065302849,14.18622779846191,0.04058099538088,0.14107476174831,9.85040855407715,1.29097604751587,0.14283563196659,-0.21985943615437
611,920527324,0.79813128709793,-0.26589021086693,14.18698215484619,0.04492408409715,0.13842047750950,9.86234569549561,1.29322350025177,0.07645390182734,-0.21621599793434
612,920543991,0.79860901832581,-0.26527801156044,14.18671894073486,0.02518762089312,0.14444667100906,9.86780834197998,1.33864784240723,0.14980867505074,-0.28875115513802
613,920560658,0.79911351203918,-0.26516184210777,14.18735504150391,0.04579628258944,0.14765056967735,9.87316226959229,1.34022307395935,0.12231345474720,-0.22110804915428
614,920577325,0.79795271158218,-0.26619029045105,14.18796062469482,0.03744656220078,0.15183717012405,9.85966205596924,1.24031412601471,0.05281978845596,-0.23211507499218
615,920593992,0.79785317182541,-0.26704555749893,14.18803215026855,0.03800108656287,0.14757536351681,9.83510971069336,1.30336618423462,0.06189308688045,-0.27878782153130
616,920610659,0.79770147800446,-0.26749038696289,14.18833351135254,0.04095716029406,0.13641920685768,9.85094165802002,1.30085623264313,0.08795400708914,-0.24638779461384
617,920627326,0.79724311828613,-0.26892995834351,14.18972110748291,0.04190089181066,0.13650649785995,9.84709835052490,1.28256881237030,0.02846851944923,-0.18754258751869
618,920643993,0.79660642147064,-0.26842850446701,14.19015216827393,0.04024542868137,0.14320926368237,9.87170219421387,1.27160656452179,0.14453245699406,-0.24435153603554
619,920660660,0.79675841331482,-0.26789662241936,14.19037151336670,0.04583761468530,0.13895143568516,9.86145210266113,1.31938695907593,0.14656867086887,-0.23584814369678
620,920677327,0.79659289121628,-0.26869717240334,14.19097042083740,0.06135843321681,0.15614384412766,9.86330604553223,1.29981875419617,0.06617040187120,-0.24876971542835
621,920693994,0.79619044065475,-0.26918208599091,14.19126605987549,0.04569686204195,0.14424122869968,9.84023857116699,1.28547573089600,0.08490610122681,-0.25530099868774
622,920710661,0.79588013887405,-0.26955503225327,14.19188117980957,0.05291377007961,0.13630326092243,9.86485862731934,1.29112339019775,0.09183432906866,-0.25358495116234
623,920727328,0.79448837041855,-0.26978370547295,14.19205856323242,0.05790166929364,0.14658002555370,9.85960769653320,1.22661781311035,0.10047861188650,-0.25942462682724
624,920743995,0.79488456249237,-0.27004286646843,14.19348526000977,0.04830455034971,0.13563027977943,9.85243129730225,1.33398628234863,0.10014565289021,-0.17819395661354
625,920760662,0.79571735858917,-0.27007797360420,14.19390296936035,0.05062128603458,0.14173920452595,9.85376358032227,1.35933005809784,0.11210679262877,-0.25532662868500
626,920777329,0.79441040754318,-0.26984959840775,14.19476795196533,0.02547754719853,0.14100511372089,9.86929130554199,1.23162496089935,0.12831962108612,-0.23464432358742
627,920793996,0.79419124126434,-0.27013039588928,14.19540691375732,0.04119650274515,0.13725332915783,9.86011981964111,1.29686057567596,0.09702090919018,-0.24591392278671
628,920810663,0.79391187429428,-0.27071470022202,14.19643115997314,0.04247054085135,0.14209803938866,9.87586498260498,1.29287791252136,0.07961708307266,-0.21825219690800
629,920827330,0.79393947124481,-0.27177593111992,14.19632720947266,0.04026416316628,0.14049269258976,9.84310722351074,1.31147277355194,0.05059788376093,-0.27734068036079
630,920843997,0.79350036382675,-0.27166283130646,14.19577980041504,0.04418401420116,0.13108353316784,9.85015583038330,1.28302979469299,0.12013635784388,-0.30504086613655
631,920860664,0.79277598857880,-0.27093687653542,14.19609928131104,0.04451332241297,0.13321278989315,9.86654758453369,1.26676571369171,0.15799193084240,-0.24868011474609
632,920877331,0.79223251342773,-0.27180668711662,14.19624996185303,0.05286467075348,0.14793613553047,9.86401271820068,1.27719020843506,0.06152170896530,-0.24926920235157
633,920893998,0.79189878702164,-0.27147936820984,14.19654369354248,0.05182253196836,0.13469047844410,9.84545516967773,1.28924095630646,0.13383917510509,-0.28849506378174
634,920910665,0.79251539707184,-0.27147960662842,14.19788646697998,0.03842455521226,0.13884124159813,9.85719776153564,1.34671580791473,0.11466804891825,-0.21205393970013
635,920927332,0.79215371608734,-0.27058672904968,14.19840717315674,0.04327765479684,0.13660055398941,9.83144855499268,1.28875422477722,0.16819860041142,-0.22991882264614
636,920943999,0.79169052839279,-0.27169093489647,14.19995117187500,0.05681513249874,0.12959066033363,9.85423755645752,1.28222954273224,0.04819669947028,-0.21701641380787
637,920960666,0.79206645488739,-0.27126511931419,14.20077419281006,0.04526390507817,0.13309518992901,9.87466526031494,1.33212935924530,0.14015269279480,-0.20376823842525
638,920977333,0.79255628585815,-0.27118924260139,14.20036602020264,0.05950223281980,0.12759131193161,9.84617805480957,1.33930087089539,0.11899661272764,-0.29030072689056
639,920994000,0.79261052608490,-0.27118986845016,14.20094108581543,0.04217797517776,0.14136244356632,9.84699535369873,1.31335496902466,0.11420702189207,-0.24374966323376
640,921010667,0.79370284080505,-0.27120178937912,14.20192527770996,0.03509445115924,0.13097473978996,9.85215091705322,1.37510728836060,0.11365634948015,-0.21909742057323
641,921027334,0.79350024461746,-0.27069133520126,14.20277404785156,0.04772469401360,0.12604656815529,9.86694908142090,1.29826939105988,0.14571064710617,-0.20649597048759
642,921044001,0.79505598545074,-0.27056950330734,14.20433616638184,0.04413182660937,0.12928546965122,9.83953857421875,1.40372967720032,0.12173717468977,-0.20574042201042
643,921060668,0.79587143659592,-0.27098724246025,14.20642089843750,0.03744037076831,0.14863067865372,9.84871482849121,1.35886919498444,0.08995180577040,-0.18744015693665
644,921077335,0.79619699716568,-0.27055037021637,14.20705413818359,0.03857753798366,0.13947662711143,9.85290622711182,1.32899177074432,0.14030636847019,-0.27575275301933
645,921094002,0.79700976610184,-0.27127751708031,14.20727634429932,0.03027983754873,0.13292564451694,9.86561775207520,1.35908675193787,0.07101120799780,-0.24044562876225
646,921110669,0.79663491249084,-0.27074992656708,14.20872783660889,0.03757455945015,0.13458773493767,9.85502338409424,1.28738379478455,0.14655587077141,-0.17787379026413
647,921127336,0.79623013734818,-0.27125483751297,14.20929813385010,0.04008675366640,0.13352689146996,9.86191368103027,1.28612875938416,0.08394561707973,-0.23620669543743
648,921144003,0.79589343070984,-0.27062994241714,14.20982933044434,0.05058320611715,0.14171178638935,9.85914039611816,1.28951001167297,0.15254926681519,-0.22982917726040
649,921160670,0.79537886381149,-0.27208352088928,14.21022701263428,0.03250724077225,0.13722413778305,9.84838867187500,1.27940559387207,0.02703420259058,-0.25398191809654
650,921177337,0.79555022716522,-0.27212202548981,14.21065616607666,0.03572009131312,0.12589874863625,9.85221195220947,1.32030272483826,0.11179303377867,-0.23767305910587
651,921194004,0.79524201154709,-0.27212134003639,14.21142578125000,0.04615058749914,0.13049405813217,9.86454677581787,1.29067516326904,0.11395088583231,-0.24819344282150
652,921210671,0.79516601562500,-0.27264603972435,14.21281909942627,0.03412749990821,0.12682232260704,9.87455081939697,1.30615806579590,0.08422736078501,-0.16500341892242
653,921227338,0.79537659883499,-0.27241328358650,14.21406650543213,0.04256297647953,0.14598408341408,9.85570621490479,1.32278060913086,0.12894713878632,-0.18695349991322
654,921244005,0.79581570625305,-0.27195975184441,14.21587753295898,0.04857097566128,0.14743582904339,9.86398029327393,1.33665001392365,0.14158698916435,-0.19416347146034
655,921260672,0.79611641168594,-0.27193996310234,14.21699428558350,0.04595846310258,0.13787207007408,9.87105941772461,1.32776236534119,0.11593586951494,-0.23236481845379
656,921277339,0.79494738578796,-0.27073979377747,14.21742534637451,0.03772786632180,0.13466195762157,9.86314582824707,1.23971867561340,0.18582013249397,-0.25865623354912
657,921294006,0.79416501522064,-0.27072358131409,14.21817493438721,0.04757225885987,0.13644894957542,9.85439109802246,1.26324391365051,0.11605114489794,-0.21984019875526
658,921310673,0.79511201381683,-0.27259841561317,14.21796035766602,0.04367453604937,0.13696007430553,9.86540317535400,1.36652719974518,0.00120379694272,-0.27780175209045
659,921327340,0.79498952627182,-0.27337864041328,14.21739578247070,0.04635327309370,0.14084160327911,9.86450099945068,1.30244421958923,0.06674669682980,-0.29670393466949
660,921344007,0.79544723033905,-0.27375596761703,14.21868801116943,0.03176315128803,0.14095351099968,9.85647010803223,1.33777701854706,0.09198801219463,-0.17555584013462
661,921360674,0.79546022415161,-0.27381637692451,14.21901607513428,0.03840843215585,0.13378062844276,9.85660934448242,1.31097340583801,0.11105667054653,-0.25513452291489
662,921377341,0.79505693912506,-0.27406594157219,14.21924686431885,0.04575217515230,0.14365230500698,9.87506771087646,1.28561663627625,0.09854485839605,-0.25134381651878
663,921394008,0.79528093338013,-0.27415716648102,14.21999168395996,0.04925556853414,0.13566908240318,9.84407329559326,1.32317757606506,0.10895641893148,-0.22829237580299
664,921410675,0.79476827383041,-0.27424064278603,14.22105216979980,0.03594942390919,0.14050750434399,9.85002708435059,1.27990508079529,0.10980165004730,-0.20077155530453
665,921427342,0.79399663209915,-0.27371788024902,14.22205543518066,0.04600671678782,0.13128675520420,9.86779499053955,1.26371788978577,0.14564663171768,-0.22784417867661
666,921444009,0.79262393712997,-0.27326619625092,14.22314739227295,0.04023431614041,0.13546605408192,9.85611152648926,1.22768068313599,0.14147174358368,-0.24756596982479
667,921460676,0.79295367002487,-0.27336484193802,14.22144412994385,0.04030298069119,0.14973883330822,9.85419273376465,1.32961928844452,0.10653603076935,-0.34527838230133
668,921477343,0.79337513446808,-0.27272701263428,14.22063922882080,0.02706731483340,0.13881489634514,9.84340953826904,1.33483147621155,0.15162718296051,-0.31050914525986
669,921494010,0.79380869865417,-0.27169114351273,14.22151947021484,0.04539214447141,0.12947714328766,9.85490036010742,1.33585596084595,0.17622819542885,-0.22852292656898
670,921510677,0.79354369640350,-0.27237811684608,14.22202491760254,0.03831543028355,0.13967773318291,9.85112094879150,1.29441452026367,0.07353406399488,-0.22240148484707
671,921527344,0.79374778270721,-0.27195456624031,14.22205734252930,0.04591903835535,0.12377940118313,9.87628364562988,1.32238364219666,0.13925623893738,-0.26940074563026
672,921544011,0.79356241226196,-0.27207154035568,14.22295284271240,0.03988658264279,0.13304641842842,9.86897754669189,1.29869198799133,0.10722756385803,-0.22505241632462
673,921560678,0.79382348060608,-0.27364850044250,14.22315502166748,0.05134676769376,0.14132909476757,9.86995315551758,1.32594382762909,0.01927355490625,-0.25802874565125
674,921577345,0.79410821199417,-0.27433142066002,14.22459030151367,0.05311729386449,0.14305825531483,9.87240409851074,1.32736539840698,0.07396947592497,-0.19976623356342
675,921594012,0.79367524385452,-0.27405107021332,14.22462844848633,0.03846175968647,0.13956120610237,9.87574768066406,1.28361892700195,0.13106019794941,-0.24902586638927
676,921610679,0.79250508546829,-0.27442824840546,14.22541999816895,0.05044384673238,0.14612519741058,9.84121990203857,1.23965466022491,0.09174469858408,-0.22539816796780
677,921627346,0.79175573587418,-0.27414044737816,14.22583961486816,0.05602983385324,0.13934798538685,9.84784317016602,1.26528012752533,0.13190540671349,-0.23280024528503
678,921644013,0.79300725460052,-0.27309674024582,14.22610855102539,0.05596262589097,0.12936569750309,9.86841583251953,1.38513481616974,0.17597204446793,-0.24631094932556
679,921660680,0.79299318790436,-0.27211830019951,14.22626590728760,0.03896898403764,0.13941685855389,9.84734916687012,1.30918037891388,0.17329552769661,-0.24679757654667
680,921677347,0.79279297590256,-0.27294290065765,14.22654151916504,0.04231658577919,0.13695302605629,9.86233329772949,1.29821813106537,0.06518432497978,-0.21794487535954
681,921694014,0.79367798566818,-0.27308171987534,14.22748088836670,0.04310307279229,0.14438904821873,9.84425258636475,1.36310791969299,0.10620304942131,-0.18786273896694
682,921710681,0.79429030418396,-0.27252465486526,14.22734165191650,0.04661732167006,0.14550636708736,9.84030055999756,1.34671568870544,0.14742667973042,-0.28688141703606
683,921727348,0.79371398687363,-0.27272236347198,14.22765922546387,0.04540385678411,0.14169371128082,9.85745429992676,1.27557635307312,0.10160557180643,-0.25770854949951
684,921744015,0.79367679357529,-0.27274432778358,14.22821140289307,0.04337232559919,0.13646461069584,9.87772750854492,1.30740034580231,0.11287517100573,-0.24063776433468
685,921760682,0.79334354400635,-0.27295431494713,14.22854518890381,0.05091010034084,0.13882246613503,9.84984588623047,1.28963792324066,0.10178487747908,-0.25261166691780
686,921777349,0.79253333806992,-0.27313137054443,14.22778701782227,0.04526531323791,0.13936756551266,9.84952735900879,1.26128458976746,0.10268132388592,-0.30350410938263
687,921794016,0.79208850860596,-0.27263236045837,14.22861480712891,0.05139012634754,0.13689401745796,9.86457443237305,1.28295302391052,0.14341829717159,-0.25572359561920
688,921810683,0.79246419668198,-0.27243787050247,14.22938919067383,0.04556534811854,0.13979224860668,9.86266994476318,1.33271849155426,0.12652674317360,-0.22976511716843
689,921827350,0.79330044984818,-0.27272456884384,14.22901153564453,0.04958000034094,0.14423996210098,9.87489891052246,1.35986793041229,0.09575307369232,-0.29237538576126
690,921844017,0.79383772611618,-0.27259215712547,14.23025894165039,0.03369687497616,0.13824060559273,9.84765338897705,1.34300196170807,0.12372215837240,-0.17801468074322
691,921860684,0.79370576143265,-0.27268245816231,14.23078918457031,0.04846671968699,0.13014082610607,9.85696315765381,1.30148386955261,0.10807278752327,-0.26987463235855
692,921877351,0.79400563240051,-0.27175164222717,14.23129272460938,0.04193168133497,0.14477962255478,9.86327457427979,1.32868432998657,0.16974815726280,-0.24633653461933
693,921894018,0.79330563545227,-0.27257397770882,14.23193931579590,0.04656199738383,0.14380316436291,9.85139751434326,1.26762366294861,0.06454399973154,-0.24876974523067
694,921910685,0.79405796527863,-0.27352544665337,14.23379039764404,0.04586784541607,0.13912679255009,9.85260486602783,1.35527026653290,0.05756453424692,-0.23029018938541
695,921927352,0.79464596509933,-0.27472448348999,14.23433113098145,0.04339833557606,0.13486486673355,9.85090160369873,1.34505081176758,0.04208166524768,-0.23908813297749
696,921944019,0.79517227411270,-0.27451631426811,14.23412036895752,0.03693047910929,0.13236314058304,9.85997295379639,1.34146523475647,0.12706461548805,-0.24637497961521
697,921960686,0.79503881931305,-0.27413156628609,14.23483467102051,0.04184029251337,0.12582090497017,9.84868049621582,1.30171418190002,0.13661813735962,-0.26052597165108
698,921977353,0.79514569044113,-0.27446609735489,14.23372077941895,0.04154943674803,0.12695500254631,9.85313701629639,1.31676173210144,0.09301251918077,-0.32316184043884
699,921994020,0.79577922821045,-0.27447715401649,14.23437786102295,0.04288543015718,0.14125275611877,9.83223247528076,1.34802210330963,0.11378441751003,-0.20482476055622
700,922010687,0.79581093788147,-0.27449628710747,14.23495006561279,0.05197318643332,0.15079677104950,9.85464668273926,1.31128060817719,0.11352829635143,-0.24327580630779
701,922027354,0.79573744535446,-0.27438607811928,14.23699283599854,0.02777006477118,0.14024421572685,9.84450244903564,1.30618345737457,0.12105841934681,-0.17404468357563
702,922044021,0.79586029052734,-0.27430579066277,14.23748302459717,0.02900947257876,0.13132506608963,9.84320926666260,1.31703066825867,0.11925272643566,-0.24482540786266
703,922060688,0.79547524452209,-0.27377104759216,14.23853778839111,0.05037701129913,0.13588856160641,9.85596084594727,1.28761446475983,0.14715777337551,-0.19185835123062
704,922077355,0.79465305805206,-0.27357545495033,14.24022483825684,0.04221552610397,0.13133518397808,9.85130500793457,1.26072096824646,0.12657795846462,-0.18028137087822
