sep=,
DeviceTag:,Xsens DOT
FirmwareVersion:,3.0.0
AppVersion:,2023.6.0
StartTime: ,2025-02-06_09:48:19_000 PST
© Movella Technologies B. V. 2005-2025

PacketCounter,SampleTimeFine,Euler_X,Euler_Y,Euler_Z,Acc_X,Acc_Y,Acc_Z,Gyr_X,Gyr_Y,Gyr_Z
0,1009104271,0.73706752061844,-0.27827957272530,-4.25841283798218,0.00000000000000,0.00000000000000,0.00000000000000,0.00000000000000,0.00000000000000,0.00000000000000
1,1009120938,0.77121430635452,-0.27677607536316,-4.31028079986572,0.04066966101527,0.12760855257511,9.88097286224365,1.30397462844849,0.09258351475000,-0.23607225716114
2,1009137605,0.79226660728455,-0.26583418250084,-4.33467674255371,0.04030683264136,0.14508177340031,9.86076259613037,1.27446877956390,0.16306966543198,-0.23284506797791
3,1009154272,0.82269239425659,-0.25667569041252,-4.33840322494507,0.02989017963409,0.14964875578880,9.85155200958252,1.27857959270477,0.05322959646583,-0.25078672170639
4,1009170939,0.85490334033966,-0.24433347582817,-4.34711456298828,0.04346819967031,0.12576721608639,9.84972190856934,1.35480308532715,0.06142565980554,-0.25570440292358
5,1009187606,0.87386876344681,-0.23943223059177,-4.34796905517578,0.04151881486177,0.14073340594769,9.86063289642334,1.29662370681763,-0.00576285691932,-0.23923541605473
6,1009204273,0.89158028364182,-0.23529238998890,-4.35998249053955,0.04141702502966,0.13803875446320,9.84503078460693,1.27282953262329,0.09099552780390,-0.19428513944149
7,1009220940,0.90764540433884,-0.23288762569427,-4.36302185058594,0.03660772368312,0.11881112307310,9.84597110748291,1.25807654857635,0.06554929912090,-0.21637606620789
8,1009237607,0.92099624872208,-0.23055437207222,-4.37509775161743,0.03825985640287,0.12056704610586,9.85600566864014,1.31626868247986,0.05904367938638,-0.19013588130474
9,1009254274,0.93189823627472,-0.22755298018456,-4.38023138046265,0.03984021395445,0.13078521192074,9.84769248962402,1.26134204864502,0.11236931383610,-0.16155207157135
10,1009270941,0.94365638494492,-0.22457347810268,-4.37478780746460,0.04590009525418,0.13533610105515,9.86412048339844,1.28429126739502,0.13434502482414,-0.23700711131096
11,1009287608,0.95723414421082,-0.22357927262783,-4.37781286239624,0.03644444420934,0.12617251276970,9.87328910827637,1.34332847595215,0.06047798320651,-0.28846299648285
12,1009304275,0.96953332424164,-0.22168144583702,-4.37977170944214,0.04628045856953,0.12901663780212,9.84486198425293,1.27119028568268,0.10622227936983,-0.34350472688675
13,1009320942,0.98282891511917,-0.22073864936829,-4.38341474533081,0.03041689284146,0.15102897584438,9.85203456878662,1.31874012947083,0.07800988107920,-0.17213013768196
14,1009337609,0.99772983789444,-0.21885643899441,-4.38423395156860,0.04025292024016,0.12466752529144,9.86680889129639,1.33428716659546,0.10503127425909,-0.18694709241390
15,1009354276,1.01213622093201,-0.21794383227825,-4.38795185089111,0.04001763090491,0.12469024956226,9.84297752380371,1.32283830642700,0.05485600605607,-0.23760899901390
16,1009370943,1.02708446979523,-0.21600373089314,-4.39127826690674,0.04069509729743,0.12668401002884,9.85392665863037,1.36296057701111,0.12138497829437,-0.20586208999157
17,1009387610,1.04115056991577,-0.21444813907146,-4.39382553100586,0.05134904012084,0.11881636083126,9.86128902435303,1.31135106086731,0.10253404080868,-0.19760197401047
18,1009404277,1.05427384376526,-0.21402765810490,-4.39953899383545,0.04650089144707,0.13271212577820,9.86666774749756,1.26795041561127,0.05635434389114,-0.26547563076019
19,1009420944,1.06917822360992,-0.21311141550541,-4.40198469161987,0.04449436441064,0.11789581924677,9.85760307312012,1.36052739620209,0.09601560235023,-0.19921557605267
20,1009437611,1.08325433731079,-0.21096253395081,-4.40333175659180,0.02762901410460,0.12918567657471,9.86756420135498,1.32032823562622,0.17281529307365,-0.25199052691460
21,1009454278,1.09676969051361,-0.20875009894371,-4.40934896469116,0.04544109478593,0.13838164508343,9.84458160400391,1.27850282192230,0.15758855640888,-0.16178263723850
22,1009470945,1.11077415943146,-0.20800122618675,-4.41121244430542,0.04784544557333,0.12204749137163,9.85936737060547,1.28922164440155,0.07648592442274,-0.15568678081036
23,1009487612,1.12557923793793,-0.20677413046360,-4.41355943679810,0.03475235402584,0.13581116497517,9.86745548248291,1.33919203281403,0.11249738931656,-0.17633064091206
24,1009504279,1.13945448398590,-0.20471343398094,-4.41931200027466,0.03895068541169,0.13950057327747,9.84543132781982,1.27361071109772,0.15405398607254,-0.21423743665218
25,1009520946,1.15446960926056,-0.20264832675457,-4.42611312866211,0.04403306171298,0.12404074519873,9.86114597320557,1.32770466804504,0.15334963798523,-0.20030410587788
26,1009537613,1.16887032985687,-0.20203030109406,-4.43403339385986,0.04000900685787,0.13332678377628,9.85645771026611,1.29253852367401,0.06869966536760,-0.23920980095863
27,1009554280,1.18364524841309,-0.19948880374432,-4.43575000762939,0.02686674520373,0.14043234288692,9.83713912963867,1.30964767932892,0.18276582658291,-0.21440389752388
28,1009570947,1.19790661334991,-0.19751867651939,-4.43033123016357,0.05202944949269,0.13328303396702,9.83539772033691,1.26870596408844,0.14018471539021,-0.20271173119545
29,1009587614,1.21394228935242,-0.19555954635143,-4.43021535873413,0.04522523283958,0.12966969609261,9.85374164581299,1.37200188636780,0.14578108489513,-0.24285963177681
30,1009604281,1.22872161865234,-0.19341814517975,-4.43254566192627,0.03745651617646,0.12636907398701,9.85925865173340,1.29497170448303,0.15920214354992,-0.31755906343460
31,1009620948,1.24283719062805,-0.19253665208817,-4.43588304519653,0.03522593528032,0.13748298585415,9.86003208160400,1.25651431083679,0.08139074593782,-0.30153828859329
32,1009637615,1.25778353214264,-0.19174319505692,-4.44157600402832,0.03499555587769,0.13297733664513,9.87382888793945,1.30243766307831,0.07319469004869,-0.31211632490158
33,1009654282,1.27208662033081,-0.18944267928600,-4.44491815567017,0.04196595400572,0.14591559767723,9.87091445922852,1.26212322711945,0.16299279034138,-0.23320363461971
34,1009670949,1.28696942329407,-0.18874938786030,-4.44603681564331,0.03889178484678,0.13931128382683,9.85817718505859,1.29006683826447,0.06931436806917,-0.14897626638412
35,1009687616,1.30230712890625,-0.18672028183937,-4.45217227935791,0.03129580616951,0.14185158908367,9.84714603424072,1.31380987167358,0.14726662635803,-0.26180022954941
36,1009704283,1.31757366657257,-0.18525357544422,-4.45485210418701,0.05108001083136,0.12216412276030,9.86759185791016,1.30566489696503,0.10952629894018,-0.26725569367409
37,1009720950,1.33232796192169,-0.18433520197868,-4.46091032028198,0.03980861976743,0.12934532761574,9.85009002685547,1.27945041656494,0.08265858143568,-0.23511175811291
38,1009737617,1.34792542457581,-0.18335053324699,-4.46861505508423,0.04505558311939,0.12686188519001,9.87302875518799,1.33195650577545,0.08364468067884,-0.33179974555969
39,1009754284,1.36303496360779,-0.18276791274548,-4.47490262985229,0.04208173602819,0.13321527838707,9.85645198822021,1.30493509769440,0.06245016679168,-0.31526669859886
40,1009770951,1.37883031368256,-0.18118892610073,-4.47578573226929,0.04184919968247,0.13052847981453,9.85651397705078,1.34580016136169,0.12361329793930,-0.25506404042244
41,1009787618,1.39336645603180,-0.17966760694981,-4.48250198364258,0.05709630623460,0.12493481487036,9.83007717132568,1.27284872531891,0.12117369472980,-0.24034959077835
42,1009804285,1.40824854373932,-0.17836770415306,-4.48468828201294,0.06037468463182,0.12730917334557,9.86301994323730,1.29576575756073,0.11535319685936,-0.15504647791386
43,1009820952,1.42348468303680,-0.17601791024208,-4.49045991897583,0.03800902888179,0.12811952829361,9.86299133300781,1.31952142715454,0.17974354326725,-0.29982230067253
44,1009837619,1.43861019611359,-0.17577794194221,-4.49533987045288,0.05046607181430,0.13161867856979,9.84190559387207,1.31479585170746,0.05196176096797,-0.28889843821526
45,1009854286,1.45234918594360,-0.17423039674759,-4.49935531616211,0.04831071197987,0.13704149425030,9.87936687469482,1.23269438743591,0.13311561942101,-0.27326190471649
46,1009870953,1.46629047393799,-0.17252811789513,-4.50269317626953,0.04158363863826,0.13340988755226,9.83915233612061,1.24498212337494,0.14290605485439,-0.28154760599136
47,1009887620,1.48109626770020,-0.17196218669415,-4.50446081161499,0.05773875117302,0.12990082800388,9.85024738311768,1.29832696914673,0.07642189413309,-0.20958872139454
48,1009904287,1.49538278579712,-0.16951122879982,-4.50633144378662,0.04822998121381,0.12989221513271,9.84842491149902,1.26946139335632,0.19249863922596,-0.24018307030201
49,1009920954,1.51036071777344,-0.16848866641521,-4.50960493087769,0.04226191341877,0.13460375368595,9.85933303833008,1.31226027011871,0.10629910230637,-0.26229965686798
50,1009937621,1.52619040012360,-0.16785316169262,-4.51189947128296,0.04567627981305,0.12910483777523,9.85489177703857,1.36554110050201,0.08458594232798,-0.22844608128071
51,1009954288,1.54134738445282,-0.16778932511806,-4.51311779022217,0.03718928620219,0.13425856828690,9.86945343017578,1.32787132263184,0.05132144689560,-0.18716482818127
52,1009970955,1.55699729919434,-0.16685546934605,-4.51408100128174,0.03330118954182,0.14879958331585,9.85910224914551,1.35975265502930,0.10143909603357,-0.18027499318123
53,1009987622,1.57194900512695,-0.16612134873867,-4.51816034317017,0.03395493328571,0.13757915794849,9.87950611114502,1.31639683246613,0.08671819418669,-0.24900668859482
54,1010004289,1.58819401264191,-0.16382379829884,-4.52227640151978,0.03186640888453,0.12976467609406,9.85497283935547,1.39653897285461,0.17873181402683,-0.24251385033131
55,1010020956,1.60380637645721,-0.16300928592682,-4.52444648742676,0.05337763950229,0.13853566348553,9.85668277740479,1.36142385005951,0.08890807628632,-0.20634870231152
56,1010037623,1.61918449401855,-0.16121114790440,-4.52556324005127,0.04482566937804,0.13697598874569,9.85948467254639,1.34985971450806,0.14948211610317,-0.21029308438301
57,1010054290,1.63403093814850,-0.16120044887066,-4.52753305435181,0.04544727131724,0.13794574141502,9.85125446319580,1.32062280178070,0.04057691618800,-0.27058532834053
58,1010070957,1.64853250980377,-0.16039291024208,-4.53096389770508,0.05622430145741,0.14120011031628,9.86497020721436,1.30165660381317,0.09073939919472,-0.25068429112434
59,1010087624,1.66300380229950,-0.15851178765297,-4.53343629837036,0.04128247499466,0.13903233408928,9.84946250915527,1.30311632156372,0.15769098699093,-0.20388987660408
60,1010104291,1.67718386650085,-0.15694458782673,-4.53479433059692,0.05089146271348,0.13869804143906,9.86875534057617,1.28923451900482,0.13871197402477,-0.21271349489689
61,1010120958,1.69265186786652,-0.15605512261391,-4.53552341461182,0.04048797488213,0.14028999209404,9.86140727996826,1.36877477169037,0.10086921602488,-0.16792967915535
62,1010137625,1.70810413360596,-0.15471848845482,-4.53946495056152,0.03290483728051,0.13040927052498,9.85984325408936,1.37200188636780,0.12718626856804,-0.16249978542328
63,1010154292,1.72247254848480,-0.15391403436661,-4.54142713546753,0.04990198463202,0.14645561575890,9.86319065093994,1.31068515777588,0.09158460795879,-0.24738025665283
64,1010170959,1.73693668842316,-0.15325151383877,-4.54460096359253,0.03873275965452,0.12922085821629,9.86820983886719,1.31971347332001,0.08422095328569,-0.24808458983898
65,1010187626,1.75025200843811,-0.15382958948612,-4.54646062850952,0.05324124172330,0.12499741464853,9.87114620208740,1.25595092773438,0.00964958500117,-0.23491969704628
66,1010204293,1.76369655132294,-0.15243518352509,-4.55104303359985,0.05125301703811,0.13266113400459,9.85359287261963,1.26885962486267,0.12767291069031,-0.30281895399094
67,1010220960,1.77712476253510,-0.15160539746284,-4.55525732040405,0.05366918817163,0.13355138897896,9.85270786285400,1.27385413646698,0.09577228128910,-0.29829829931259
68,1010237627,1.79099857807159,-0.15112163126469,-4.55959367752075,0.05345945432782,0.12886022031307,9.84921741485596,1.30502474308014,0.07653715461493,-0.27096956968307
69,1010254294,1.80490422248840,-0.15067788958549,-4.56431770324707,0.04038852825761,0.13194216787815,9.86197948455811,1.31326556205750,0.07436647266150,-0.31192427873611
70,1010270961,1.81886291503906,-0.14942230284214,-4.56718206405640,0.05301544815302,0.12605959177017,9.84024143218994,1.32203149795532,0.12687891721725,-0.18884243071079
71,1010287628,1.83252608776093,-0.14842198789120,-4.56985235214233,0.04709709063172,0.13678294420242,9.86013698577881,1.30981421470642,0.11154970526695,-0.22799144685268
72,1010304295,1.84567832946777,-0.14702108502388,-4.57167720794678,0.05960004776716,0.13311466574669,9.85299301147461,1.28512370586395,0.13739292323589,-0.19231297075748
73,1010320962,1.85952794551849,-0.14532619714737,-4.57352638244629,0.04824030026793,0.12421536445618,9.86518383026123,1.33263516426086,0.15628227591515,-0.19746109843254
74,1010337629,1.87182343006134,-0.14540721476078,-4.57454109191895,0.05604248493910,0.13784636557102,9.88228130340576,1.24601304531097,0.05107812210917,-0.20259644091129
75,1010354296,1.88532817363739,-0.14472796022892,-4.57678794860840,0.04679796844721,0.12963783740997,9.85964965820312,1.32461202144623,0.09691845625639,-0.22120410203934
76,1010370963,1.89755296707153,-0.14418911933899,-4.57852792739868,0.03460478037596,0.12837998569012,9.87346267700195,1.25410008430481,0.09070737659931,-0.18596741557121
77,1010387630,1.91003131866455,-0.14285226166248,-4.58147859573364,0.05167921632528,0.13460849225521,9.86788749694824,1.27700436115265,0.13593301177025,-0.23495811223984
78,1010404297,1.92263484001160,-0.14268663525581,-4.58481645584106,0.03770404681563,0.13043606281281,9.85338687896729,1.28949058055878,0.06702202558517,-0.24047762155533
79,1010420964,1.93504023551941,-0.14181247353554,-4.58662748336792,0.05209846422076,0.12916894257069,9.86909294128418,1.28536045551300,0.10718915611506,-0.29272112250328
80,1010437631,1.94768679141998,-0.14175762236118,-4.58702135086060,0.05278369784355,0.13071113824844,9.85721302032471,1.30661273002625,0.06342344731092,-0.15923416614532
81,1010454298,1.95972669124603,-0.14067712426186,-4.58838176727295,0.05068995431066,0.13102522492409,9.86458587646484,1.27781128883362,0.12499638646841,-0.20039376616478
82,1010470965,1.97220027446747,-0.13959765434265,-4.59213399887085,0.04767886921763,0.12500189244747,9.85018730163574,1.31071078777313,0.12395906448364,-0.27164831757545
83,1010487632,1.98392832279205,-0.13858664035797,-4.59390354156494,0.04533673077822,0.14067265391350,9.87723064422607,1.27376449108124,0.12121851742268,-0.23148760199547
84,1010504299,1.99719452857971,-0.13787396252155,-4.59651279449463,0.04235427454114,0.13899861276150,9.85719776153564,1.37296247482300,0.10560756921768,-0.20161037147045
85,1010520966,2.00972938537598,-0.13694944977760,-4.59958457946777,0.03832900524139,0.14247009158134,9.87179660797119,1.33537590503693,0.11352189630270,-0.31162977218628
86,1010537633,2.02237963676453,-0.13608165085316,-4.60088014602661,0.03537618741393,0.12776477634907,9.86411285400391,1.34992361068726,0.11614719778299,-0.15590450167656
87,1010554300,2.03457260131836,-0.13525518774986,-4.60358190536499,0.05615150555968,0.12687307596207,9.85603713989258,1.33048367500305,0.10768220573664,-0.31480568647385
88,1010570967,2.04638981819153,-0.13537324965000,-4.60547018051147,0.04948781430721,0.12286212295294,9.86723136901855,1.31576919555664,0.05693063512444,-0.21150965988636
89,1010587634,2.05872917175293,-0.13392612338066,-4.60708379745483,0.04548325389624,0.13772483170033,9.87228679656982,1.35728740692139,0.15133903920650,-0.20978081226349
90,1010604301,2.07077717781067,-0.13315585255623,-4.61010885238647,0.05697758868337,0.14347146451473,9.87037181854248,1.34603047370911,0.10854022204876,-0.26562929153442
91,1010620968,2.08311796188354,-0.13313935697079,-4.61159563064575,0.03662304207683,0.14305835962296,9.85666179656982,1.37237954139709,0.06629846990108,-0.24846237897873
92,1010637635,2.09451103210449,-0.13281804323196,-4.61410999298096,0.05290962010622,0.13908837735653,9.86152553558350,1.32225561141968,0.08654531091452,-0.20707225799561
93,1010654302,2.10624217987061,-0.13224488496780,-4.61803579330444,0.05537878721952,0.14135071635246,9.87068748474121,1.35099303722382,0.09951814264059,-0.26630163192749
94,1010670969,2.11741662025452,-0.13111186027527,-4.61960649490356,0.04049561545253,0.13457939028740,9.85632324218750,1.32620000839233,0.13725847005844,-0.21537077426910
95,1010687636,2.12791419029236,-0.13063736259937,-4.62044239044189,0.04019917920232,0.13084632158279,9.84922409057617,1.29351818561554,0.09891625493765,-0.19913233816624
96,1010704303,2.13851308822632,-0.13077236711979,-4.62496662139893,0.05183397978544,0.13070380687714,9.86767387390137,1.30930840969086,0.05933181941509,-0.25904041528702
97,1010720970,2.14985060691833,-0.13050104677677,-4.62750196456909,0.05986368283629,0.13620021939278,9.86483860015869,1.36328077316284,0.08711519092321,-0.22835001349449
98,1010737637,2.16067028045654,-0.12905517220497,-4.62956523895264,0.05039852857590,0.14054834842682,9.85374450683594,1.34015882015228,0.15777423977852,-0.26085254549980
99,1010754304,2.17044472694397,-0.12949641048908,-4.63390922546387,0.04370540380478,0.13104231655598,9.86243343353271,1.28714704513550,0.04796618595719,-0.20556752383709
100,1010770971,2.18087506294250,-0.12839503586292,-4.63492727279663,0.03978090360761,0.13495041429996,9.87060356140137,1.33527958393097,0.13915379345417,-0.24659264087677
101,1010787638,2.19086813926697,-0.12797528505325,-4.63882112503052,0.04502975195646,0.12307552993298,9.86568641662598,1.31906056404114,0.09791095554829,-0.25647276639938
102,1010804305,2.20022463798523,-0.12761476635933,-4.64016246795654,0.03461823612452,0.12822864949703,9.87746906280518,1.29110431671143,0.09711696207523,-0.20894840359688
103,1010820972,2.20914936065674,-0.12819747626781,-4.64051723480225,0.04900610819459,0.14753696322441,9.85119056701660,1.27642798423767,0.04365044087172,-0.13331408798695
104,1010837639,2.21795225143433,-0.12742310762405,-4.64234733581543,0.05255142226815,0.13644255697727,9.84899425506592,1.27706849575043,0.12349802255630,-0.19885699450970
105,1010854306,2.22617745399475,-0.12643863260746,-4.64466333389282,0.05579696968198,0.13307075202465,9.87765026092529,1.25162220001221,0.13727766275406,-0.20163597166538
106,1010870973,2.23621392250061,-0.12619981169701,-4.64662790298462,0.05098160356283,0.13291475176811,9.85666275024414,1.37063157558441,0.09359520673752,-0.19397778809071
107,1010887640,2.24493646621704,-0.12640221416950,-4.65025806427002,0.05161429569125,0.13892017304897,9.86110687255859,1.30202162265778,0.06623444706202,-0.27635461091995
108,1010904307,2.25413751602173,-0.12539321184158,-4.65268373489380,0.04218422621489,0.13917034864426,9.86758232116699,1.34015250205994,0.14237460494041,-0.20901244878769
109,1010920974,2.26330208778381,-0.12414269149303,-4.65389728546143,0.04285030439496,0.13003206253052,9.84242343902588,1.34839987754822,0.15543706715107,-0.25190091133118
110,1010937641,2.27193951606750,-0.12346455454826,-4.65481662750244,0.04600273445249,0.14658838510513,9.83726978302002,1.32628965377808,0.12383741140366,-0.19307494163513
111,1010954308,2.28065466880798,-0.12232055515051,-4.65535259246826,0.04467730224133,0.13812968134880,9.87255191802979,1.34167647361755,0.15493761003017,-0.15844017267227
112,1010970975,2.28756141662598,-0.12246520072222,-4.65711307525635,0.04614067077637,0.14445775747299,9.86323833465576,1.24206876754761,0.07538457959890,-0.21838669478893
113,1010987642,2.29566931724548,-0.12199846655130,-4.65979194641113,0.04961944743991,0.13294214010239,9.87668418884277,1.32403576374054,0.11049319058657,-0.27803868055344
114,1011004309,2.30269765853882,-0.12181136757135,-4.66254234313965,0.04117561876774,0.12702070176601,9.86328983306885,1.27065241336823,0.09817988425493,-0.19506633281708
115,1011020976,2.31105303764343,-0.12183141708374,-4.66560649871826,0.04293404892087,0.11179955303669,9.85309123992920,1.36016893386841,0.08411851525307,-0.25279736518860
116,1011037643,2.31755280494690,-0.12233589589596,-4.66666841506958,0.05626604333520,0.12864291667938,9.87084484100342,1.26183533668518,0.05686019733548,-0.20808397233486
117,1011054310,2.32484269142151,-0.12314808368683,-4.66732740402222,0.04340490698814,0.13590450584888,9.83301544189453,1.32087886333466,0.04128126800060,-0.18223433196545
118,1011070977,2.33210897445679,-0.12273050844669,-4.67056035995483,0.04140502959490,0.12677180767059,9.85278701782227,1.32898533344269,0.11193390190601,-0.28547915816307
119,1011087644,0.76157277822495,-0.24693015217781,-4.47144222259521,0.03733060136437,0.13885615766048,9.85234832763672,1.28372776508331,0.11918230354786,-0.21194510161877
120,1011104311,0.76052242517471,-0.24648202955723,-4.47080278396606,0.04326056316495,0.14210617542267,9.88075351715088,1.24518060684204,0.13804605603218,-0.24031116068363
121,1011120978,0.76023989915848,-0.24593435227871,-4.46997833251953,0.03930865600705,0.14012975990772,9.86169528961182,1.29109764099121,0.14285482466221,-0.25265002250671
122,1011137645,0.75991493463516,-0.24608041346073,-4.46843767166138,0.05829259008169,0.12923680245876,9.85875129699707,1.28867733478546,0.10282217711210,-0.17628580331802
123,1011154312,0.75917929410934,-0.24540266394615,-4.46711874008179,0.04779038578272,0.13943371176720,9.86201763153076,1.26474225521088,0.15161436796188,-0.18894487619400
124,1011170979,0.75911575555801,-0.24450924992561,-4.46640825271606,0.05102041736245,0.14287021756172,9.85832500457764,1.30407702922821,0.16442713141441,-0.20887155830860
125,1011187646,0.75832301378250,-0.24473547935486,-4.46489477157593,0.04331555962563,0.14131717383862,9.86216354370117,1.26082992553711,0.09797497838736,-0.16882610321045
126,1011204313,0.75801533460617,-0.24498255550861,-4.46550416946411,0.03584449738264,0.13091267645359,9.85909843444824,1.28891432285309,0.09493987262249,-0.26545000076294
127,1011220980,0.75683587789536,-0.24487690627575,-4.46473455429077,0.04009035974741,0.13156589865685,9.86929607391357,1.23703587055206,0.11688996106386,-0.19721780717373
128,1011237647,0.75698637962341,-0.24582366645336,-4.46378469467163,0.04162418842316,0.14048200845718,9.86807632446289,1.31693458557129,0.05308872088790,-0.23812125623226
129,1011254314,0.75676816701889,-0.24511994421482,-4.46462917327881,0.05893832072616,0.13056606054306,9.84769535064697,1.29362690448761,0.15130062401295,-0.27338993549347
130,1011270981,0.75596302747726,-0.24390006065369,-4.46439838409424,0.03536503389478,0.14134144783020,9.88203430175781,1.25980544090271,0.18323968350887,-0.23654609918594
131,1011287648,0.75666701793671,-0.24284204840660,-4.46608066558838,0.05058689787984,0.13993200659752,9.85479640960693,1.34941780567169,0.17129772901535,-0.33609625697136
132,1011304315,0.75723344087601,-0.24372428655624,-4.46506690979004,0.05023346841335,0.13438899815083,9.86622619628906,1.34145879745483,0.05741726607084,-0.20204576849937
133,1011320982,0.75692361593246,-0.24300466477871,-4.46576452255249,0.04631567373872,0.12812514603138,9.88408851623535,1.28795385360718,0.15224829316139,-0.29968142509460
134,1011337649,0.75739556550980,-0.24261207878590,-4.46442651748657,0.04875604808331,0.13130396604538,9.85566997528076,1.33621442317963,0.13298113644123,-0.19660949707031
135,1011354316,0.75709313154221,-0.24191065132618,-4.46460676193237,0.04829710721970,0.12989710271358,9.87789154052734,1.28954172134399,0.15140305459499,-0.26852351427078
136,1011370983,0.75662338733673,-0.24171133339405,-4.46350860595703,0.04431439563632,0.13419742882252,9.85396575927734,1.27889347076416,0.12189085036516,-0.20380026102066
137,1011387650,0.75678026676178,-0.24231357872486,-4.46329498291016,0.04591801762581,0.13615314662457,9.83934307098389,1.31691539287567,0.07368773221970,-0.23525904119015
138,1011404317,0.75705552101135,-0.24269010126591,-4.46362161636353,0.03835922852159,0.12926524877548,9.86457729339600,1.32433021068573,0.08663496375084,-0.27412635087967
139,1011420984,0.75643104314804,-0.24298934638500,-4.46206426620483,0.03805321455002,0.13676755130291,9.86341857910156,1.27000570297241,0.09203923493624,-0.18503254652023
140,1011437651,0.75685280561447,-0.24254545569420,-4.46213245391846,0.04892994463444,0.12269613891840,9.85795307159424,1.33311545848846,0.13528627157211,-0.26476487517357
141,1011454318,0.75701546669006,-0.24214039742947,-4.46082353591919,0.05101032927632,0.14760158956051,9.87327957153320,1.31813824176788,0.13369187712669,-0.16964571177959
142,1011470985,0.75761121511459,-0.24236027896404,-4.45951938629150,0.03811773657799,0.12687395513058,9.86349296569824,1.34296345710754,0.09654707461596,-0.18334211409092
143,1011487652,0.75722688436508,-0.24361851811409,-4.45860147476196,0.03235316276550,0.13547365367413,9.86591625213623,1.28506600856781,0.03392402082682,-0.18421295285225
144,1011504319,0.75791907310486,-0.24416697025299,-4.45817947387695,0.04673364758492,0.15277506411076,9.86242294311523,1.34893143177032,0.07633864879608,-0.23278744518757
145,1011520986,0.75800263881683,-0.24387070536613,-4.45837259292603,0.05488919466734,0.13576881587505,9.86448574066162,1.31268918514252,0.12610411643982,-0.26541158556938
146,1011537653,0.75818854570389,-0.24415741860867,-4.45676088333130,0.04654569923878,0.12134263664484,9.85166931152344,1.31848418712616,0.09150777012110,-0.21359711885452
147,1011554320,0.75846701860428,-0.24476289749146,-4.45506763458252,0.04353338852525,0.12688991427422,9.85059070587158,1.32418930530548,0.07362370938063,-0.15077556669712
148,1011570987,0.75802707672119,-0.24464830756187,-4.45508050918579,0.04880073294044,0.13190782070160,9.83858108520508,1.28154408931732,0.11534678190947,-0.23322281241417
149,1011587654,0.75775259733200,-0.24505022168159,-4.45569562911987,0.04837433248758,0.13626246154308,9.86691856384277,1.29080319404602,0.08383037149906,-0.27657234668732
150,1011604321,0.75736939907074,-0.24524341523647,-4.45481872558594,0.05550258234143,0.13357312977314,9.86544132232666,1.28487396240234,0.09690565615892,-0.21957127749920
151,1011620988,0.75673949718475,-0.24448120594025,-4.45418834686279,0.04331184551120,0.13624259829521,9.84979724884033,1.26985204219818,0.15486718714237,-0.22619858384132
152,1011637655,0.75693899393082,-0.24530294537544,-4.45372629165649,0.06399395316839,0.13328339159489,9.87500190734863,1.31955349445343,0.05926778540015,-0.22329153120518
153,1011654322,0.75746017694473,-0.24551704525948,-4.45200347900391,0.05385230109096,0.12556029856205,9.86824321746826,1.33892941474915,0.09668794274330,-0.18090888857841
154,1011670989,0.75797313451767,-0.24622535705566,-4.45092630386353,0.04442956298590,0.13355316221714,9.86239910125732,1.33919835090637,0.06677230447531,-0.22265759110451
155,1011687656,0.75750774145126,-0.24614553153515,-4.44953918457031,0.04512760415673,0.12967622280121,9.87015247344971,1.27987301349640,0.11453358829021,-0.20454300940037
156,1011704323,0.75742125511169,-0.24491988122463,-4.44849061965942,0.02829509414732,0.13735961914062,9.84868335723877,1.30250823497772,0.18249049782753,-0.21225886046886
157,1011720990,0.75764042139053,-0.24593003094196,-4.44832277297974,0.04244966432452,0.13854110240936,9.88004684448242,1.32137215137482,0.04760120809078,-0.25654965639114
158,1011737657,0.75808066129684,-0.24611541628838,-4.44742059707642,0.05514628440142,0.14393627643585,9.85886478424072,1.33417189121246,0.09679678827524,-0.23175650835037
159,1011754324,0.75878840684891,-0.24601811170578,-4.44634246826172,0.04121787473559,0.13515001535416,9.86501693725586,1.34959721565247,0.11482173949480,-0.20848739147186
160,1011770991,0.75881397724152,-0.24618379771709,-4.44585418701172,0.04632168635726,0.13503380119801,9.88816547393799,1.30964136123657,0.09842959791422,-0.25482717156410
161,1011787658,0.75850844383240,-0.24656724929810,-4.44458818435669,0.03867885097861,0.14243328571320,9.88785934448242,1.28904879093170,0.08570009469986,-0.18479563295841
162,1011804325,0.75843608379364,-0.24659894406796,-4.44468879699707,0.03857684135437,0.13684113323689,9.87186431884766,1.30308437347412,0.10621585696936,-0.26658338308334
163,1011820992,0.75885653495789,-0.24652332067490,-4.44331979751587,0.04655237868428,0.14404341578484,9.85238265991211,1.33319878578186,0.11281754076481,-0.19126284122467
164,1011837659,0.75977915525436,-0.24643899500370,-4.44165039062500,0.04999707639217,0.13143830001354,9.86806106567383,1.36271715164185,0.11385485529900,-0.18957237899303
165,1011854326,0.75996941328049,-0.24625080823898,-4.44175529479980,0.05684389173985,0.14248184859753,9.87768268585205,1.31861233711243,0.11855479329824,-0.26692274212837
166,1011870993,0.76007980108261,-0.24704845249653,-4.44044542312622,0.04756191745400,0.13724085688591,9.86623764038086,1.31382262706757,0.06119514629245,-0.18720324337482
167,1011887660,0.75962966680527,-0.24717958271503,-4.43984270095825,0.03093324415386,0.13432939350605,9.86468696594238,1.28010344505310,0.09995996206999,-0.22543013095856
168,1011904327,0.75926357507706,-0.24636545777321,-4.43814659118652,0.04159113764763,0.13852001726627,9.85641193389893,1.28612256050110,0.15767818689346,-0.14035759866238
169,1011920994,0.75961959362030,-0.24700255692005,-4.43759584426880,0.03313481435180,0.11740761250257,9.88636112213135,1.32865238189697,0.07009555399418,-0.21859160065651
170,1011937661,0.76003593206406,-0.24789971113205,-4.43696308135986,0.05652605369687,0.14392967522144,9.87854385375977,1.33197569847107,0.05441418290138,-0.19758915901184
171,1011954328,0.76091277599335,-0.24649111926556,-4.43668460845947,0.03351759538054,0.13342602550983,9.87471675872803,1.36004710197449,0.19153174757957,-0.24711771309376
172,1011970995,0.76054042577744,-0.24714322388172,-4.43692636489868,0.03877919167280,0.12398145347834,9.86457443237305,1.28531563282013,0.06786724925041,-0.25388586521149
173,1011987662,0.76117384433746,-0.24762743711472,-4.43557691574097,0.05022727698088,0.14007909595966,9.88394737243652,1.34569776058197,0.07952103018761,-0.16063006222248
174,1012004329,0.76290112733841,-0.24748820066452,-4.43533086776733,0.05474314838648,0.12971240282059,9.87753486633301,1.41055536270142,0.11512908339500,-0.26003929972649
175,1012020996,0.76239770650864,-0.24783837795258,-4.43531703948975,0.04896971955895,0.13560447096825,9.86264514923096,1.27782404422760,0.08625718206167,-0.24139970541000
176,1012037663,0.76243209838867,-0.24629870057106,-4.43577527999878,0.03965032100677,0.12003713101149,9.86568069458008,1.30922520160675,0.19947810471058,-0.26974016427994
177,1012054330,0.76313245296478,-0.24627754092216,-4.43518066406250,0.03438043594360,0.13738867640495,9.87753009796143,1.34911704063416,0.10825847089291,-0.25832968950272
178,1012070997,0.76317512989044,-0.24547566473484,-4.43460464477539,0.03526483476162,0.12616637349129,9.84364986419678,1.31097328662872,0.15576362609863,-0.20594531297684
179,1012087664,0.76292860507965,-0.24583993852139,-4.43256378173828,0.04663219302893,0.13344773650169,9.86545562744141,1.29317247867584,0.08659653365612,-0.13882084190845
180,1012104331,0.76230531930923,-0.24613848328590,-4.43313074111938,0.04088065400720,0.14101836085320,9.85592746734619,1.27053093910217,0.08813330531120,-0.25704267621040
181,1012120998,0.76324921846390,-0.24578633904457,-4.43326997756958,0.04894286766648,0.11974077671766,9.89345073699951,1.36461269855499,0.12821078300476,-0.25242596864700
182,1012137665,0.76245796680450,-0.24508981406689,-4.43326282501221,0.04476594924927,0.13816894590855,9.87676715850830,1.26032400131226,0.14813104271889,-0.25095322728157
183,1012154332,0.76199269294739,-0.24413388967514,-4.43322944641113,0.03059154376388,0.15330266952515,9.84737491607666,1.27991795539856,0.16390848159790,-0.24901309609413
184,1012170999,0.76297628879547,-0.24354104697704,-4.43192005157471,0.04491071030498,0.14482398331165,9.85560989379883,1.36684739589691,0.14325183629990,-0.19882500171661
185,1012187666,0.76351016759872,-0.24278092384338,-4.43090534210205,0.03720817342401,0.13857664167881,9.86816310882568,1.33958256244659,0.15295904874802,-0.15167200565338
186,1012204333,0.76449257135391,-0.24309366941452,-4.43106746673584,0.04518335685134,0.13896568119526,9.85739231109619,1.36652719974518,0.08754421025515,-0.24276354908943
187,1012221000,0.76470172405243,-0.24287350475788,-4.43116235733032,0.05580480024219,0.14059725403786,9.87409210205078,1.32033467292786,0.11994427442551,-0.22354121506214
188,1012237667,0.76458042860031,-0.24216213822365,-4.43035650253296,0.04090071842074,0.14036844670773,9.85863971710205,1.30040800571442,0.14955253899097,-0.19516237080097
189,1012254334,0.76395714282990,-0.24253639578819,-4.42914819717407,0.04163180291653,0.13025921583176,9.85684394836426,1.27051794528961,0.08475242555141,-0.21257899701595
190,1012271001,0.76397401094437,-0.24352388083935,-4.42846918106079,0.03118402324617,0.14672045409679,9.85854816436768,1.30850803852081,0.04710815846920,-0.21683712303638
191,1012287668,0.76296573877335,-0.24408617615700,-4.42792320251465,0.05297192931175,0.14614593982697,9.86996936798096,1.24687111377716,0.07265683263540,-0.22534053027630
192,1012304335,0.76244294643402,-0.24536687135696,-4.42785120010376,0.04585742205381,0.13050520420074,9.84741592407227,1.27589654922485,0.02977476269007,-0.23678940534592
193,1012321002,0.76299476623535,-0.24505785107613,-4.42799377441406,0.03906693682075,0.14634354412556,9.85284805297852,1.34006929397583,0.12490033358335,-0.22617934644222
194,1012337669,0.76282733678818,-0.24502885341644,-4.42739105224609,0.04813165217638,0.12774345278740,9.85728168487549,1.29747533798218,0.10871309787035,-0.21259182691574
195,1012354336,0.76116722822189,-0.24481420218945,-4.42732429504395,0.03669129684567,0.13652603328228,9.86413478851318,1.20808064937592,0.11887493729591,-0.23293471336365
196,1012371003,0.76088678836823,-0.24550938606262,-4.42733955383301,0.04563896358013,0.13230092823505,9.87114906311035,1.29046392440796,0.06443515419960,-0.23310120403767
197,1012387670,0.76042175292969,-0.24594298005104,-4.42705059051514,0.04709258675575,0.14641661942005,9.87491321563721,1.27895092964172,0.07981557399035,-0.25831687450409
198,1012404337,0.76036500930786,-0.24682676792145,-4.42727375030518,0.04072983190417,0.13622945547104,9.86301994323730,1.30380165576935,0.05246761813760,-0.27032285928726
199,1012421004,0.76042068004608,-0.24570983648300,-4.42729902267456,0.05779375508428,0.14060916006565,9.86854267120361,1.31029450893402,0.17341078817844,-0.24047124385834
200,1012437671,0.76064443588257,-0.24603040516376,-4.42620563507080,0.04841652885079,0.13746188580990,9.85151100158691,1.32139766216278,0.08760824054480,-0.19121801853180
201,1012454338,0.76077866554260,-0.24527052044868,-4.42621421813965,0.04534870013595,0.13873378932476,9.85530853271484,1.31539797782898,0.15176165103912,-0.24866090714931
202,1012471005,0.75955313444138,-0.24604083597660,-4.42608022689819,0.04224677383900,0.13487644493580,9.87420558929443,1.23311698436737,0.06015783175826,-0.22815793752670
203,1012487672,0.76083016395569,-0.24617816507816,-4.42568159103394,0.03485075384378,0.13281248509884,9.86443138122559,1.38376462459564,0.09764841943979,-0.21848274767399
204,1012504339,0.76036781072617,-0.24572089314461,-4.42514324188232,0.03997632861137,0.13640694320202,9.86904621124268,1.28014826774597,0.13421055674553,-0.20958229899406
205,1012521006,0.75929361581802,-0.24538871645927,-4.42522859573364,0.04241091012955,0.13691374659538,9.86284065246582,1.24260652065277,0.12509883940220,-0.24707289040089
206,1012537673,0.75923484563828,-0.24516625702381,-4.42502641677856,0.02852633781731,0.13184840977192,9.84960365295410,1.30330216884613,0.11980341374874,-0.22533410787582
207,1012554340,0.75934636592865,-0.24556152522564,-4.42557239532471,0.03659314662218,0.12410291284323,9.85419273376465,1.31437981128693,0.08183258771896,-0.27465778589249
208,1012571007,0.75964951515198,-0.24513338506222,-4.42478132247925,0.04532516002655,0.13637283444405,9.85536861419678,1.32527792453766,0.13185419142246,-0.19458608329296
209,1012587674,0.75983893871307,-0.24443455040455,-4.42557287216187,0.04013743624091,0.15016105771065,9.86642360687256,1.31886184215546,0.14685040712357,-0.26984259486198
210,1012604341,0.75914210081100,-0.24412545561790,-4.42559003829956,0.04252139106393,0.14949898421764,9.86674785614014,1.26483190059662,0.12354285269976,-0.24858407676220
211,1012621008,0.75914782285690,-0.24449977278709,-4.42628192901611,0.04518360644579,0.13135163486004,9.88133144378662,1.30781006813049,0.08321566134691,-0.25911727547646
212,1012637675,0.75801277160645,-0.24433317780495,-4.42573213577271,0.03607386723161,0.12188724428415,9.85474681854248,1.23860454559326,0.11575660854578,-0.23361985385418
213,1012654342,0.75830298662186,-0.24364568293095,-4.42585754394531,0.04186971113086,0.13451847434044,9.87604618072510,1.32536756992340,0.14644062519073,-0.24031113088131
214,1012671009,0.75856411457062,-0.24472506344318,-4.42503356933594,0.03729709982872,0.12393518537283,9.85785102844238,1.32279980182648,0.04108916968107,-0.22863171994686
215,1012687676,0.75953233242035,-0.24560759961605,-4.42547178268433,0.04352931305766,0.12898753583431,9.86142349243164,1.36550903320312,0.05165441334248,-0.25845777988434
216,1012704343,0.75949966907501,-0.24545055627823,-4.42475986480713,0.04344839975238,0.13047304749489,9.84228229522705,1.30500555038452,0.11487296223640,-0.20713628828526
217,1012721010,0.76002794504166,-0.24507287144661,-4.42475032806396,0.03498048707843,0.12279020249844,9.85047054290771,1.33946728706360,0.12784580886364,-0.23627074062824
218,1012737677,0.76128572225571,-0.24467180669308,-4.42459201812744,0.04812296852469,0.14001917839050,9.85491371154785,1.38300895690918,0.12907519936562,-0.25423169136047
219,1012754344,0.76109135150909,-0.24484062194824,-4.42397165298462,0.05534548684955,0.12443606555462,9.86024379730225,1.29622673988342,0.09572105854750,-0.23179493844509
220,1012771011,0.76058614253998,-0.24538598954678,-4.42407321929932,0.04685894027352,0.13555084168911,9.84021854400635,1.27683794498444,0.07206773757935,-0.26450234651566
221,1012787678,0.76071876287460,-0.24520008265972,-4.42470502853394,0.05484730005264,0.13382422924042,9.85170459747314,1.31510972976685,0.11624324321747,-0.27443373203278
222,1012804345,0.75956374406815,-0.24583740532398,-4.42400264739990,0.05535485967994,0.13663993775845,9.87105178833008,1.23886072635651,0.06796330213547,-0.18076802790165
223,1012821012,0.75920259952545,-0.24579451978207,-4.42410230636597,0.05524846166372,0.13023498654366,9.87368583679199,1.28641712665558,0.10708029568195,-0.25282296538353
224,1012837679,0.75905263423920,-0.24627266824245,-4.42475843429565,0.03562309965491,0.13880923390388,9.88042163848877,1.29821181297302,0.07681889086962,-0.27200686931610
225,1012854346,0.75879460573196,-0.24530288577080,-4.42459201812744,0.05211060866714,0.12527893483639,9.86912345886230,1.29175090789795,0.16314010322094,-0.24786049127579
226,1012871013,0.75818675756454,-0.24516564607620,-4.42387056350708,0.03898371011019,0.13510629534721,9.83536911010742,1.27155518531799,0.11372037976980,-0.22939372062683
227,1012887680,0.75851041078568,-0.24558889865875,-4.42313098907471,0.04229603707790,0.13570055365562,9.85307121276855,1.32755744457245,0.08041106909513,-0.21296317875385
228,1012904347,0.75797450542450,-0.24615623056889,-4.42349338531494,0.04230821132660,0.12154568731785,9.85735034942627,1.27533316612244,0.07075508683920,-0.27508041262627
229,1012921014,0.75803834199905,-0.24738688766956,-4.42378902435303,0.04827094450593,0.13532857596874,9.87760066986084,1.31166481971741,0.03186219930649,-0.25110691785812
230,1012937681,0.75694090127945,-0.24736471474171,-4.42301607131958,0.04088047891855,0.14128817617893,9.85065555572510,1.24211359024048,0.10703548043966,-0.22758166491985
231,1012954348,0.75666344165802,-0.24683572351933,-4.42319536209106,0.04522411525249,0.13388670980930,9.86171627044678,1.29118096828461,0.13657332956791,-0.25414201617241
232,1012971015,0.75579714775085,-0.24592125415802,-4.42232847213745,0.04275549948215,0.15339328348637,9.85289669036865,1.25624537467957,0.16062365472317,-0.16837789118290
233,1012987682,0.75713694095612,-0.24696144461632,-4.42202091217041,0.04444022104144,0.14593979716301,9.85383605957031,1.38790738582611,0.04344554245472,-0.24389693140984
234,1013004349,0.75779867172241,-0.24588313698769,-4.42200517654419,0.05249397456646,0.13778594136238,9.87055969238281,1.34675419330597,0.16931276023388,-0.24724580347538
235,1013021016,0.75778508186340,-0.24611829221249,-4.42226934432983,0.05512690916657,0.12551920115948,9.86371994018555,1.30719530582428,0.09169346839190,-0.25127980113029
236,1013037683,0.75774586200714,-0.24590073525906,-4.42139816284180,0.04930532723665,0.13624764978886,9.85012435913086,1.30515265464783,0.11855478584766,-0.20079074800014
237,1013054350,0.75780367851257,-0.24613752961159,-4.42218255996704,0.02979640662670,0.13258786499500,9.86345767974854,1.31072986125946,0.08993899822235,-0.30861380696297
238,1013071017,0.75860166549683,-0.24669909477234,-4.42186975479126,0.03599326685071,0.13528670370579,9.86080074310303,1.35569310188293,0.07193326950073,-0.22559025883675
239,1013087684,0.76400125026703,-0.25311577320099,-4.42460823059082,0.05687977001071,0.12900196015835,9.86645603179932,1.32171761989594,0.14348231256008,-0.28805959224701
240,1013104351,0.76420879364014,-0.25301045179367,-4.42316150665283,0.04828568920493,0.13460686802864,9.85697841644287,1.31909263134003,0.11482173949480,-0.17925690114498
241,1013121018,0.76402026414871,-0.25311174988747,-4.42475175857544,0.04443277046084,0.13008597493172,9.85766506195068,1.29440200328827,0.09898027777672,-0.34028396010399
242,1013137685,0.76323920488358,-0.25308200716972,-4.42557573318481,0.04411311447620,0.13617396354675,9.85279941558838,1.25965821743011,0.10863627493382,-0.28505015373230
243,1013154352,0.76367706060410,-0.25275221467018,-4.42583417892456,0.04486587271094,0.12369192391634,9.86805152893066,1.33250081539154,0.12634745240211,-0.27001550793648
244,1013171019,0.76368778944016,-0.25296702980995,-4.42666101455688,0.03839589282870,0.11975091695786,9.84477043151855,1.30661904811859,0.09390895813704,-0.29241377115250
245,1013187686,0.76339322328568,-0.25279563665390,-4.42744541168213,0.03788650035858,0.13175298273563,9.85406494140625,1.28911280632019,0.11693479120731,-0.27056616544724
246,1013204353,0.76280897855759,-0.25253865122795,-4.42652273178101,0.05017293244600,0.13612052798271,9.87797451019287,1.27164494991302,0.12253116816282,-0.21839310228825
247,1013221020,0.76425701379776,-0.25277861952782,-4.42652177810669,0.04100561514497,0.12282271683216,9.87668418884277,1.39351010322571,0.09219291061163,-0.25670969486237
248,1013237687,0.76361078023911,-0.25330132246017,-4.42562341690063,0.05736706405878,0.12626191973686,9.85661125183105,1.26798236370087,0.07557027786970,-0.22194045782089
249,1013254354,0.76314193010330,-0.25362882018089,-4.42404699325562,0.03337433189154,0.12381985783577,9.86429977416992,1.27913665771484,0.08849187940359,-0.15931740403175
250,1013271021,0.76371479034424,-0.25338611006737,-4.42488956451416,0.04501979425550,0.12796369194984,9.85878467559814,1.34090173244476,0.12144260853529,-0.28784832358360
251,1013287688,0.76256120204926,-0.25320121645927,-4.42490482330322,0.05094150081277,0.13548183441162,9.86580276489258,1.23741352558136,0.11731895804405,-0.25277811288834
252,1013304355,0.76292270421982,-0.25283744931221,-4.42424964904785,0.04326408356428,0.13231185078621,9.88381671905518,1.32895338535309,0.12980516254902,-0.17998684942722
253,1013321022,0.76347136497498,-0.25176081061363,-4.42426776885986,0.03863981366158,0.12222272902727,9.86483287811279,1.33953130245209,0.17127211391926,-0.24102190136909
254,1013337689,0.76292592287064,-0.25090500712395,-4.42360591888428,0.04269705712795,0.12934425473213,9.85899829864502,1.27466726303101,0.15856821835041,-0.20375543832779
255,1013354356,0.76382488012314,-0.25065574049950,-4.42287826538086,0.04869296029210,0.13020302355289,9.86755657196045,1.36107158660889,0.12262078374624,-0.18195903301239
256,1013371023,0.76413756608963,-0.24925294518471,-4.42310810089111,0.03909711912274,0.13174735009670,9.87317562103271,1.32543146610260,0.19151894748211,-0.24373684823513
257,1013387690,0.76512855291367,-0.24870461225510,-4.42197179794312,0.03330190479755,0.12735427916050,9.86559963226318,1.36666798591614,0.13999900221825,-0.18030697107315
258,1013404357,0.76455205678940,-0.24769462645054,-4.42185974121094,0.03544705733657,0.13148173689842,9.88488960266113,1.27306652069092,0.16826264560223,-0.22313141822815
259,1013421024,0.76454806327820,-0.24823410809040,-4.42076206207275,0.03905990719795,0.12866255640984,9.85607147216797,1.30739378929138,0.07444971054792,-0.18469317257404
260,1013437691,0.76421469449997,-0.24740268290043,-4.42026853561401,0.04855521395802,0.13905218243599,9.87477779388428,1.28705739974976,0.15765257179737,-0.20778302848339
261,1013454358,0.76433128118515,-0.24716299772263,-4.41924715042114,0.05394184961915,0.12689514458179,9.87175941467285,1.31439900398254,0.12175638228655,-0.19192878901958
262,1013471025,0.76448023319244,-0.24812580645084,-4.41812849044800,0.05567241832614,0.12951762974262,9.85068702697754,1.31589102745056,0.04940690100193,-0.19486781954765
263,1013487692,0.76459902524948,-0.24936428666115,-4.41736507415771,0.03721287846565,0.13468424975872,9.84941291809082,1.31457173824310,0.03266900032759,-0.23342774808407
264,1013504359,0.76498484611511,-0.24882395565510,-4.41642093658447,0.04350457340479,0.13144785165787,9.85196685791016,1.33070766925812,0.13988374173641,-0.19364480674267
265,1013521026,0.76506495475769,-0.24868804216385,-4.41682815551758,0.04777815192938,0.12934467196465,9.85623836517334,1.31154954433441,0.11477050930262,-0.26467525959015
266,1013537693,0.76397579908371,-0.24803876876831,-4.41674089431763,0.05191087350249,0.13898319005966,9.84919834136963,1.24231851100922,0.14485262334347,-0.25829130411148
267,1013554360,0.76430368423462,-0.24897381663322,-4.41591739654541,0.04836932569742,0.11647278070450,9.85638523101807,1.32676994800568,0.05093726143241,-0.23179493844509
268,1013571027,0.76391583681107,-0.24975998699665,-4.41511440277100,0.04601122066379,0.13599996268749,9.86575889587402,1.28389430046082,0.06032431125641,-0.20126461982727
269,1013587694,0.76356673240662,-0.24997697770596,-4.41557455062866,0.04503285512328,0.13351859152317,9.85988426208496,1.28632104396820,0.09344793111086,-0.25961673259735
270,1013604361,0.76254248619080,-0.24940380454063,-4.41528511047363,0.05922159180045,0.13803148269653,9.87370204925537,1.24560964107513,0.14092107117176,-0.23925462365150
271,1013621028,0.76328194141388,-0.24945983290672,-4.41529893875122,0.04908406361938,0.13304653763771,9.85602951049805,1.35186386108398,0.10371861606836,-0.24755313992500
272,1013637695,0.76315051317215,-0.24976281821728,-4.41421747207642,0.04939772188663,0.14260375499725,9.88301753997803,1.29920411109924,0.08934990316629,-0.18300913274288
273,1013654362,0.76368463039398,-0.25051409006119,-4.41381025314331,0.04423817992210,0.12828680872917,9.85258674621582,1.33986449241638,0.06214921921492,-0.22410473227501
274,1013671029,0.76332092285156,-0.25074550509453,-4.41310024261475,0.05698009207845,0.11542349308729,9.87467479705811,1.28529655933380,0.09348635375500,-0.19561059772968
275,1013687696,0.76377546787262,-0.25003707408905,-4.41382026672363,0.03963131830096,0.14659626781940,9.87708568572998,1.33443450927734,0.14912994205952,-0.28531906008720
276,1013704363,0.76280164718628,-0.24904046952724,-4.41233730316162,0.05129977688193,0.13703170418739,9.87765789031982,1.24936187267303,0.16773757338524,-0.19803099334240
277,1013721030,0.76205813884735,-0.24908174574375,-4.41275072097778,0.04683697596192,0.11873964220285,9.86331653594971,1.26257812976837,0.10414123535156,-0.27011793851852
278,1013737697,0.76244759559631,-0.25041180849075,-4.41367673873901,0.05570655316114,0.12395313382149,9.86870861053467,1.32993936538696,0.02584321238101,-0.30342724919319
279,1013754364,0.76273620128632,-0.25066518783569,-4.41350078582764,0.04199370741844,0.12130066007376,9.86186122894287,1.32498335838318,0.09212888777256,-0.24462050199509
280,1013771031,0.76247352361679,-0.25013896822929,-4.41203308105469,0.04249725490808,0.12748050689697,9.86617565155029,1.29219901561737,0.13962762057781,-0.16438871622086
281,1013787698,0.76299554109573,-0.24911695718765,-4.41206455230713,0.04471155628562,0.13957479596138,9.85879802703857,1.33909595012665,0.16823701560497,-0.25108131766319
282,1013804365,0.76222670078278,-0.24855269491673,-4.41216659545898,0.04637073352933,0.12634554505348,9.86153793334961,1.26058030128479,0.14040882885456,-0.25076752901077
283,1013821032,0.76161026954651,-0.24817565083504,-4.41280460357666,0.03927052021027,0.14538122713566,9.86067199707031,1.27073574066162,0.12917765974998,-0.29360479116440
284,1013837699,0.76156687736511,-0.24789258837700,-4.41194295883179,0.03920410200953,0.13193237781525,9.86432647705078,1.30498635768890,0.12390784919262,-0.22995083034039
285,1013854366,0.76188057661057,-0.24783773720264,-4.41053485870361,0.04709354043007,0.13807336986065,9.85949039459229,1.32623839378357,0.11057002842426,-0.17743837833405
286,1013871033,0.76238828897476,-0.24851611256599,-4.41073751449585,0.03963055089116,0.14030326902866,9.84664535522461,1.33773851394653,0.06661862879992,-0.26281830668449
287,1013887700,0.76168960332870,-0.24872870743275,-4.40969419479370,0.03650385513902,0.14417645335197,9.86314678192139,1.26644551753998,0.09504872560501,-0.16620080173016
288,1013904367,0.76125323772430,-0.24874639511108,-4.40980625152588,0.04214942455292,0.13079565763474,9.85029029846191,1.28065419197083,0.10567159205675,-0.24385851621628
289,1013921034,0.76077306270599,-0.24930126965046,-4.40842866897583,0.03366731852293,0.12746363878250,9.86291027069092,1.27904701232910,0.07393106073141,-0.17893671989441
290,1013937701,0.76147669553757,-0.24826830625534,-4.40720033645630,0.04274003580213,0.12445222586393,9.85171890258789,1.34941792488098,0.16985061764717,-0.14944370090961
291,1013954368,0.76146340370178,-0.24828369915485,-4.40672111511230,0.04836409166455,0.14517439901829,9.85262298583984,1.30677270889282,0.10660005360842,-0.20194973051548
292,1013971035,0.76084840297699,-0.24791039526463,-4.40585184097290,0.05530977621675,0.14658698439598,9.86303806304932,1.27126061916351,0.13002285361290,-0.20261566340923
293,1013987702,0.76055622100830,-0.24767775833607,-4.40441226959229,0.04587486758828,0.14338193833828,9.86919212341309,1.29002857208252,0.12198688834906,-0.15855543315411
294,1014004369,0.76003742218018,-0.24786122143269,-4.40385866165161,0.04407250136137,0.13449968397617,9.85580253601074,1.27578139305115,0.09580431133509,-0.21297600865364
295,1014021036,0.76090312004089,-0.24546323716640,-4.40271425247192,0.04723820090294,0.13380272686481,9.87469863891602,1.35949647426605,0.25184968113899,-0.18280421197414
296,1014037703,0.76122796535492,-0.24583745002747,-4.40363025665283,0.04694283753633,0.13053436577320,9.85980319976807,1.32717335224152,0.08321566134691,-0.28506296873093
297,1014054370,0.76094037294388,-0.24555973708630,-4.40351772308350,0.04819448292255,0.13744729757309,9.88614845275879,1.28952252864838,0.12368372082710,-0.21612635254860
298,1014071037,0.76121461391449,-0.24621181190014,-4.40315008163452,0.03551369532943,0.12546545267105,9.87209224700928,1.32449674606323,0.06896220147610,-0.20299987494946
299,1014087704,0.76125550270081,-0.24521449208260,-4.40365076065063,0.04864384606481,0.14838775992393,9.85985755920410,1.30905222892761,0.16558609902859,-0.26196026802063
300,1014104371,0.76098513603210,-0.24463653564453,-4.40405988693237,0.04947803169489,0.12797822058201,9.87365055084229,1.29128980636597,0.14180471003056,-0.27299934625626
301,1014121038,0.76050978899002,-0.24450401961803,-4.40295457839966,0.06469123065472,0.13514797389507,9.86047363281250,1.27877807617188,0.11544923484325,-0.17218777537346
302,1014137705,0.76019978523254,-0.24440722167492,-4.40233182907104,0.04961171746254,0.14244787395000,9.86260986328125,1.28884375095367,0.11329776793718,-0.21143923699856
303,1014154372,0.76072925329208,-0.24519160389900,-4.40259742736816,0.05791324749589,0.13198316097260,9.85876560211182,1.33892941474915,0.05908850207925,-0.26307445764542
304,1014171039,0.76062685251236,-0.24593272805214,-4.40313625335693,0.04788175597787,0.12682908773422,9.85412693023682,1.30124044418335,0.06243095174432,-0.28398722410202
305,1014187706,0.76094472408295,-0.24597495794296,-4.40303134918213,0.04667211323977,0.13047543168068,9.86145496368408,1.32603359222412,0.10428211092949,-0.23210866749287
306,1014204373,0.76187163591385,-0.24629689753056,-4.40179157257080,0.04466624185443,0.12587971985340,9.86881542205811,1.36364567279816,0.08891448378563,-0.16451677680016
307,1014221040,0.76169478893280,-0.24546360969543,-4.40022420883179,0.04644028842449,0.12818087637424,9.83856678009033,1.29721283912659,0.15792152285576,-0.15245962142944
308,1014237707,0.76148521900177,-0.24577736854553,-4.39942836761475,0.04127315059304,0.13833224773407,9.84693050384521,1.29486918449402,0.08881842344999,-0.19603958725929
309,1014254374,0.76154381036758,-0.24545156955719,-4.40023612976074,0.04476634040475,0.12992984056473,9.86125564575195,1.31059551239014,0.12564951181412,-0.29831114411354
310,1014271041,0.76133668422699,-0.24451360106468,-4.39857053756714,0.03536340221763,0.12965008616447,9.85145473480225,1.29470920562744,0.16456159949303,-0.15126220881939
311,1014287708,0.76098483800888,-0.24493592977524,-4.39782333374023,0.04491237178445,0.14282523095608,9.84392833709717,1.28673076629639,0.08258815109730,-0.18914340436459
312,1014304375,0.76017600297928,-0.24550174176693,-4.39662599563599,0.04838053882122,0.13619600236416,9.86452865600586,1.25881290435791,0.07370053976774,-0.16821779310703
313,1014321042,0.76015353202820,-0.24510979652405,-4.39647150039673,0.03981137275696,0.14089818298817,9.86793041229248,1.30609393119812,0.13056075572968,-0.21409015357494
314,1014337709,0.76006799936295,-0.24557344615459,-4.39612579345703,0.04588049650192,0.14134298264980,9.87756824493408,1.30181670188904,0.07933533936739,-0.23237760365009
315,1014354376,0.76009982824326,-0.24430711567402,-4.39576911926270,0.04584445059299,0.13317181169987,9.87065601348877,1.30965423583984,0.18332292139530,-0.21150328218937
316,1014371043,0.76006746292114,-0.24347189068794,-4.39504480361938,0.05357114598155,0.14354352653027,9.85514736175537,1.30500543117523,0.15722355246544,-0.20749488472939
317,1014387710,0.75964301824570,-0.24515873193741,-4.39391851425171,0.03448490798473,0.12682338058949,9.85645103454590,1.28190267086029,0.00683859083802,-0.19194795191288
318,1014404377,0.75886410474777,-0.24535197019577,-4.39344787597656,0.05571142211556,0.12054992467165,9.84679317474365,1.26131033897400,0.09540730714798,-0.20399875938892
319,1014421044,0.75745052099228,-0.24557670950890,-4.39193439483643,0.05282841995358,0.11622858792543,9.84954738616943,1.22241747379303,0.09495909512043,-0.13681665062904
320,1014437711,0.75803911685944,-0.24577000737190,-4.39166069030762,0.04679118096828,0.12816312909126,9.86037921905518,1.34273302555084,0.09589394927025,-0.22331073880196
321,1014454378,0.75801998376846,-0.24458432197571,-4.39188051223755,0.03164447471499,0.13656263053417,9.86236572265625,1.30609405040741,0.17763687670231,-0.29010862112045
322,1014471045,0.75760215520859,-0.24423323571682,-4.39087486267090,0.05254058167338,0.13247574865818,9.84693145751953,1.28237664699554,0.12784580886364,-0.20095083117485
323,1014487712,0.75827896595001,-0.24389038980007,-4.39020681381226,0.04270468652248,0.14574003219604,9.85941791534424,1.34806060791016,0.12861417233944,-0.19984951615334
324,1014504379,0.75751787424088,-0.24279554188251,-4.38960361480713,0.03329178318381,0.13823989033699,9.86529350280762,1.26224517822266,0.17324431240559,-0.20713631808758
325,1014521046,0.75779378414154,-0.24169987440109,-4.38930416107178,0.02783758752048,0.11499269306660,9.87313747406006,1.32398438453674,0.17228381335735,-0.23306275904179
326,1014537713,0.75702178478241,-0.24209529161453,-4.38824748992920,0.04676280170679,0.12295933812857,9.85066223144531,1.26060593128204,0.08403526991606,-0.17533814907074
327,1014554380,0.75678092241287,-0.24223999679089,-4.38921356201172,0.05072328448296,0.14101222157478,9.85531330108643,1.29308283329010,0.09725142270327,-0.28520384430885
328,1014571047,0.75808566808701,-0.24123895168304,-4.38904953002930,0.04405835643411,0.13372483849525,9.87224483489990,1.38571119308472,0.16751986742020,-0.24152135848999
329,1014587714,0.75718361139297,-0.24112851917744,-4.38789892196655,0.04717813432217,0.14079812169075,9.87278938293457,1.25297331809998,0.11389967799187,-0.18298354744911
330,1014604381,0.75614970922470,-0.24006095528603,-4.38811635971069,0.04144538566470,0.14251717925072,9.85906410217285,1.24536633491516,0.17061901092529,-0.25888678431511
331,1014621048,0.75557744503021,-0.24016073346138,-4.38682508468628,0.04196499660611,0.14251442253590,9.86686229705811,1.27354013919830,0.10178486257792,-0.15747326612473
332,1014637715,0.75582820177078,-0.24013835191727,-4.38601922988892,0.05134339258075,0.12394802272320,9.86513900756836,1.32212758064270,0.10905887186527,-0.19381770491600
333,1014654382,0.75660753250122,-0.24101808667183,-4.38655567169189,0.04623623192310,0.14030207693577,9.86341953277588,1.35425865650177,0.05399156734347,-0.25174081325531
334,1014671049,0.75669401884079,-0.24164614081383,-4.38696479797363,0.04571246728301,0.12057466804981,9.85900688171387,1.31239473819733,0.06887255609035,-0.28166925907135
335,1014687716,0.75624525547028,-0.24274981021881,-4.38611507415771,0.04193977266550,0.12295490503311,9.85541152954102,1.28105759620667,0.04103154316545,-0.19791573286057
336,1014704383,0.75605863332748,-0.24100032448769,-4.38668727874756,0.04314109310508,0.13830135762691,9.86033916473389,1.29597067832947,0.21142642199993,-0.27120009064674
337,1014721050,0.75599253177643,-0.24045524001122,-4.38467931747437,0.04856319725513,0.13020220398903,9.83880996704102,1.30340456962585,0.14133086800575,-0.12372854351997
338,1014737717,0.75559467077255,-0.24059973657131,-4.38332223892212,0.05056783184409,0.13173174858093,9.88524341583252,1.28359317779541,0.09885221719742,-0.16792327165604
339,1014754384,0.75538361072540,-0.23989425599575,-4.38345050811768,0.03804728016257,0.11713445931673,9.86063289642334,1.29491400718689,0.14938606321812,-0.23929306864738
340,1014771051,0.75523072481155,-0.24047119915485,-4.38297843933105,0.02822465822101,0.13249780237675,9.86634922027588,1.29807734489441,0.07280410081148,-0.20476713776588
341,1014787718,0.75526046752930,-0.23998498916626,-4.38259744644165,0.03349844366312,0.13695047795773,9.85703754425049,1.30979502201080,0.13578572869301,-0.22357964515686
342,1014804385,0.75585627555847,-0.24100141227245,-4.38231801986694,0.05385105311871,0.12181983888149,9.85048103332520,1.34292507171631,0.04606444388628,-0.23232640326023
343,1014821052,0.75507879257202,-0.24114297330379,-4.38172674179077,0.03961025178432,0.14251360297203,9.83974456787109,1.26086199283600,0.09877537190914,-0.20337124168873
344,1014837719,0.75516480207443,-0.24134489893913,-4.38027000427246,0.04331397637725,0.12606339156628,9.85531616210938,1.31325268745422,0.09552256017923,-0.16180181503296
345,1014854386,0.75484019517899,-0.23957142233849,-4.37905359268188,0.05117676407099,0.12474920600653,9.86435317993164,1.28813290596008,0.21464081108570,-0.16977375745773
346,1014871053,0.75577974319458,-0.23916241526604,-4.37863779067993,0.05325061455369,0.13358722627163,9.86827182769775,1.36321032047272,0.13202066719532,-0.20253884792328
347,1014887720,0.75599306821823,-0.23831117153168,-4.37862110137939,0.04379185289145,0.13398048281670,9.86395454406738,1.32050120830536,0.15765897929668,-0.25458383560181
348,1014904387,0.75577044487000,-0.23710812628269,-4.37692689895630,0.03684334456921,0.13538278639317,9.87431049346924,1.29413282871246,0.18010848760605,-0.13463956117630
349,1014921054,0.75582528114319,-0.23713728785515,-4.37608718872070,0.04951368644834,0.12524311244488,9.87904930114746,1.31089639663696,0.10566519200802,-0.18216392397881
350,1014937721,0.75574076175690,-0.23658193647861,-4.37552976608276,0.04943026974797,0.12620200216770,9.85813808441162,1.30322539806366,0.14090827107430,-0.20675212144852
351,1014954388,0.75585722923279,-0.23611356317997,-4.37496519088745,0.03777747973800,0.14357218146324,9.85149002075195,1.31408500671387,0.13497892022133,-0.22354121506214
352,1014971055,0.75687652826309,-0.23579582571983,-4.37453985214233,0.04723320156336,0.11757045984268,9.85557079315186,1.36926770210266,0.12578396499157,-0.22343878448009
353,1014987722,0.75738018751144,-0.23488631844521,-4.37420797348022,0.04168084636331,0.14180974662304,9.86287689208984,1.33763611316681,0.16165456175804,-0.22193406522274
354,1015004389,0.75645512342453,-0.23442780971527,-4.37394714355469,0.04937699809670,0.15089827775955,9.85853290557861,1.25169253349304,0.13522224128246,-0.22146660089493
355,1015021056,0.75610750913620,-0.23445363342762,-4.37464761734009,0.04841378703713,0.14712280035019,9.84560966491699,1.28600072860718,0.10460226237774,-0.26682668924332
356,1015037723,0.75650405883789,-0.23331721127033,-4.37368392944336,0.03893810883164,0.13679328560829,9.87322044372559,1.33150184154510,0.17556226253510,-0.17366051673889
357,1015054390,0.75649422407150,-0.23371928930283,-4.37328767776489,0.04213186353445,0.14951068162918,9.85629177093506,1.30661916732788,0.08362546563148,-0.22831799089909
358,1015071057,0.75644886493683,-0.23311807215214,-4.37218332290649,0.05525646358728,0.12913179397583,9.85326004028320,1.30478775501251,0.14330305159092,-0.17243111133575
359,1015087724,0.76835554838181,-0.24958047270775,-4.37974452972412,0.03297515213490,0.12573257088661,9.86590862274170,1.33904469013214,0.08754421025515,-0.29658862948418
360,1015104391,0.76880192756653,-0.24959245324135,-4.37753391265869,0.05641410499811,0.13503490388393,9.86080837249756,1.33201408386230,0.11046757549047,-0.11745344102383
361,1015121058,0.76911389827728,-0.24984076619148,-4.37706661224365,0.04735803231597,0.12623189389706,9.85129451751709,1.32459914684296,0.09493347257376,-0.22241429984570
362,1015137725,0.76811778545380,-0.25000229477882,-4.37609577178955,0.04977494105697,0.12979704141617,9.85502719879150,1.24541759490967,0.10104210674763,-0.17974352836609
363,1015154392,0.76728761196136,-0.25033333897591,-4.37587022781372,0.04775962978601,0.13359564542770,9.84382915496826,1.25567531585693,0.09004144370556,-0.22164589166641
364,1015171059,0.76790171861649,-0.24938842654228,-4.37527942657471,0.05279815196991,0.13575142621994,9.85975837707520,1.34264338016510,0.16725093126297,-0.21337302029133
365,1015187726,0.76745951175690,-0.25051027536392,-4.37515211105347,0.04103686287999,0.12323886156082,9.84983634948730,1.27849638462067,0.04228656738997,-0.22722949087620
366,1015204393,0.76721984148026,-0.24971395730972,-4.37444829940796,0.04332724586129,0.13172009587288,9.85746765136719,1.29093122482300,0.15854260325432,-0.19995191693306
367,1015221060,0.76866936683655,-0.24869580566883,-4.37363910675049,0.05025303363800,0.13629531860352,9.84998321533203,1.39266502857208,0.17143861949444,-0.19780048727989
368,1015237727,0.76826488971710,-0.24805968999863,-4.37298583984375,0.04747103527188,0.12248216569424,9.84780883789062,1.28126251697540,0.14820787310600,-0.20504887402058
369,1015254394,0.76771938800812,-0.24861793220043,-4.37317895889282,0.04569347575307,0.13698942959309,9.87210273742676,1.27234923839569,0.07656916230917,-0.21730454266071
370,1015271061,0.76664674282074,-0.24780113995075,-4.37292289733887,0.04268670827150,0.13982513546944,9.86658859252930,1.24179327487946,0.15893961489201,-0.22083911299706
371,1015287728,0.76760387420654,-0.24723787605762,-4.37292194366455,0.05743062496185,0.12939956784248,9.85114479064941,1.36213457584381,0.14387935400009,-0.24536323547363
372,1015304395,0.76764583587646,-0.24661619961262,-4.37220239639282,0.05799479037523,0.12084323912859,9.87324714660645,1.30833518505096,0.14825911819935,-0.18600583076477
373,1015321062,0.76844406127930,-0.24576407670975,-4.37134981155396,0.05486647784710,0.13211642205715,9.84896278381348,1.35337507724762,0.16138562560081,-0.18257373571396
374,1015337729,0.76883780956268,-0.24487353861332,-4.37012529373169,0.05221681669354,0.14155580103397,9.86844062805176,1.32942712306976,0.16460002958775,-0.16815377771854
375,1015354396,0.76929843425751,-0.24577254056931,-4.36942815780640,0.03905811905861,0.14970237016678,9.85556221008301,1.33264172077179,0.05611743032932,-0.20310232043266
376,1015371063,0.77024590969086,-0.24570165574551,-4.36918067932129,0.03915704414248,0.14259645342827,9.85060405731201,1.36246764659882,0.11483454704285,-0.22603850066662
377,1015387730,0.77081120014191,-0.24563588202000,-4.36956310272217,0.05177186056972,0.13174097239971,9.87414455413818,1.33892941474915,0.11334900557995,-0.26552045345306
378,1015404397,0.77082270383835,-0.24533234536648,-4.36837673187256,0.05548377707601,0.12806579470634,9.85304546356201,1.30609405040741,0.12906238436699,-0.16743661463261
379,1015421064,0.77150517702103,-0.24471081793308,-4.36850929260254,0.04283595457673,0.13796119391918,9.87227630615234,1.34662616252899,0.14714495837688,-0.24245621263981
380,1015437731,0.77234876155853,-0.24493874609470,-4.36859798431396,0.05041500926018,0.12796568870544,9.84567356109619,1.35543048381805,0.09692486375570,-0.23383115231991
381,1015454398,0.77187538146973,-0.24431467056274,-4.36949872970581,0.04261398687959,0.13098146021366,9.85953426361084,1.27704274654388,0.14660069346428,-0.28313556313515
382,1015471065,0.77123832702637,-0.24445340037346,-4.36873292922974,0.05422624200583,0.12652023136616,9.87104225158691,1.26711153984070,0.10242518782616,-0.17722706496716
383,1015487732,0.77145338058472,-0.24413926899433,-4.36778306961060,0.03270505741239,0.14190828800201,9.85414981842041,1.31854164600372,0.12974113225937,-0.17232865095139
384,1015504399,0.77151107788086,-0.24318504333496,-4.36751890182495,0.03970653563738,0.13531967997551,9.87053394317627,1.30856573581696,0.16809614002705,-0.23029020428658
385,1015521066,0.77113229036331,-0.24358618259430,-4.36742830276489,0.04325013607740,0.14036400616169,9.84073638916016,1.28261995315552,0.08513662219048,-0.24736106395721
386,1015537733,0.77191483974457,-0.24350956082344,-4.36734342575073,0.03645162284374,0.14232529699802,9.85564994812012,1.35205602645874,0.11487296223640,-0.23515661060810
387,1015554400,0.77230525016785,-0.24360321462154,-4.36805343627930,0.04435251653194,0.14170819520950,9.86748218536377,1.32865869998932,0.10376984626055,-0.28132346272469
388,1015571067,0.77284049987793,-0.24319195747375,-4.36781215667725,0.04411847144365,0.14573402702808,9.85629844665527,1.33757209777832,0.13531188666821,-0.18992456793785
389,1015587734,0.77332401275635,-0.24139948189259,-4.36878156661987,0.03834304958582,0.13600587844849,9.87207412719727,1.33396053314209,0.21736216545105,-0.30206975340843
390,1015604401,0.77373731136322,-0.24058085680008,-4.36935377120972,0.04998500272632,0.13412500917912,9.85639572143555,1.32965767383575,0.15819683670998,-0.27878782153130
391,1015621068,0.77412873506546,-0.23960442841053,-4.36880397796631,0.05429835990071,0.12714055180550,9.86359596252441,1.32909405231476,0.16912063956261,-0.20973597466946
392,1015637735,0.77465623617172,-0.24046614766121,-4.36893892288208,0.03851005807519,0.13044063746929,9.85042953491211,1.33657312393188,0.05770541355014,-0.24985830485821
393,1015654402,0.77424740791321,-0.24018073081970,-4.36942625045776,0.04699884355068,0.13536059856415,9.88646602630615,1.28072452545166,0.12721827626228,-0.26694193482399
394,1015671069,0.77130931615829,-0.24020403623581,-4.37054824829102,0.04100167006254,0.15561470389366,9.85514450073242,1.12841880321503,0.10763737559319,-0.31494015455246
395,1015687736,0.77179604768753,-0.23876921832561,-4.37011003494263,0.04268430173397,0.14839662611485,9.86038684844971,1.33460092544556,0.19607803225517,-0.21343703567982
396,1015704403,0.77168089151382,-0.24023558199406,-4.36945199966431,0.04825623705983,0.13763532042503,9.85431098937988,1.29814124107361,0.02262882143259,-0.19644299149513
397,1015721070,0.77084428071976,-0.24122589826584,-4.36921596527100,0.05648330971599,0.13115756213665,9.87076282501221,1.25527846813202,0.05119978636503,-0.23505416512489
398,1015737737,0.77013105154037,-0.24074424803257,-4.36859846115112,0.04403566569090,0.14605344831944,9.86787319183350,1.26224505901337,0.13897450268269,-0.21702279150486
399,1015754404,0.76978468894958,-0.24063445627689,-4.36856365203857,0.03044640459120,0.13404880464077,9.85890388488770,1.28479695320129,0.11653777956963,-0.22421993315220
400,1015771071,0.76919502019882,-0.24004894495010,-4.36815595626831,0.04041939228773,0.13307355344296,9.84490203857422,1.26968550682068,0.14532645046711,-0.23226878046989
401,1015787738,0.76966166496277,-0.23933283984661,-4.36799621582031,0.04690298065543,0.14847294986248,9.85425758361816,1.33293616771698,0.15327921509743,-0.23575849831104
402,1015804405,0.77088195085526,-0.23883931338787,-4.36809587478638,0.03515898436308,0.13334359228611,9.84768486022949,1.37841153144836,0.13933306932449,-0.24344229698181
403,1015821072,0.77116543054581,-0.23862704634666,-4.36753702163696,0.04956071078777,0.12539435923100,9.86360931396484,1.32244133949280,0.12379258871078,-0.20067550241947
404,1015837739,0.77067863941193,-0.23907105624676,-4.36636447906494,0.04109307751060,0.12743788957596,9.85908794403076,1.27581977844238,0.08417613804340,-0.15190251171589
405,1015854406,0.77063775062561,-0.23906639218330,-4.36562633514404,0.03964301198721,0.13896322250366,9.86242675781250,1.30287957191467,0.11101824045181,-0.19243460893631
406,1015871073,0.77058935165405,-0.23918429017067,-4.36421203613281,0.03880991786718,0.12669706344604,9.86671543121338,1.30270028114319,0.10442297160625,-0.14999437332153
407,1015887740,0.77092850208282,-0.23869371414185,-4.36315917968750,0.04011984914541,0.14155085384846,9.85475826263428,1.32544445991516,0.13969166576862,-0.17642667889595
408,1015904407,0.77039295434952,-0.23823070526123,-4.36304569244385,0.04307445511222,0.14847220480442,9.87373638153076,1.27323281764984,0.13802681863308,-0.23093050718307
409,1015921074,0.76970404386520,-0.23864018917084,-4.36243343353271,0.03738445043564,0.12455078214407,9.84642791748047,1.26388442516327,0.08594342321157,-0.20143748819828
410,1015937741,0.76937490701675,-0.23906396329403,-4.36270856857300,0.03236100822687,0.12538847327232,9.87083435058594,1.28548216819763,0.08487408608198,-0.22915682196617
411,1015954408,0.76867240667343,-0.23778146505356,-4.36332654953003,0.04754466190934,0.13011348247528,9.86901569366455,1.26294302940369,0.18655647337437,-0.26032745838165
412,1015971075,0.76949453353882,-0.23714974522591,-4.36274242401123,0.03796816244721,0.13885034620762,9.85039329528809,1.35438036918640,0.14882899820805,-0.20166158676147
413,1015987742,0.76944625377655,-0.23722581565380,-4.36251449584961,0.05695493891835,0.13239331543446,9.86341857910156,1.30246329307556,0.10556915402412,-0.21996185183525
414,1016004409,0.76912736892700,-0.23616561293602,-4.36334896087646,0.03554498031735,0.14319814741611,9.84151172637939,1.28553354740143,0.17291775345802,-0.28051033616066
415,1016021076,0.76957952976227,-0.23546297848225,-4.36191749572754,0.03793613985181,0.13908135890961,9.85017490386963,1.33266723155975,0.15318956971169,-0.15365698933601
416,1016037743,0.76848971843719,-0.23540110886097,-4.35981178283691,0.05592036247253,0.13978357613087,9.84999942779541,1.23998761177063,0.11529556661844,-0.10768220573664
417,1016054410,0.76861381530762,-0.23448325693607,-4.35914278030396,0.05652133747935,0.13472102582455,9.86616802215576,1.31304788589478,0.16557329893112,-0.19094909727573
418,1016071077,0.76881247758865,-0.23425446450710,-4.36025428771973,0.05195436626673,0.12924882769585,9.84990787506104,1.31676185131073,0.12347882986069,-0.28624758124352
419,1016087744,0.76928687095642,-0.23511226475239,-4.35923576354980,0.05173656716943,0.12637591362000,9.86021137237549,1.33352518081665,0.05916532874107,-0.19876094162464
420,1016104411,0.76823562383652,-0.23422840237617,-4.36001396179199,0.04031589999795,0.13383291661739,9.86126136779785,1.24152433872223,0.16191068291664,-0.29644778370857
421,1016121078,0.76810508966446,-0.23427866399288,-4.36026239395142,0.03147583454847,0.13918453454971,9.87377071380615,1.29710400104523,0.10689461231232,-0.25382825732231
422,1016137745,0.76760089397430,-0.23371306061745,-4.35876178741455,0.04816161841154,0.13164089620113,9.85263919830322,1.27533304691315,0.14524963498116,-0.15180006623268
423,1016154412,0.76775288581848,-0.23343996703625,-4.35776424407959,0.03654709085822,0.14199581742287,9.85595226287842,1.31518650054932,0.12794823944569,-0.16903740167618
424,1016171079,0.76770257949829,-0.23354919254780,-4.35824584960938,0.04448396712542,0.13887444138527,9.86921405792236,1.30130445957184,0.10311671346426,-0.25020405650139
425,1016187746,0.76761299371719,-0.23430670797825,-4.35850191116333,0.04712129756808,0.13591781258583,9.87308692932129,1.30026721954346,0.06390368938446,-0.25690180063248
426,1016204413,0.76658797264099,-0.23402789235115,-4.35885047912598,0.04878915473819,0.14584818482399,9.84794139862061,1.24347090721130,0.12678284943104,-0.25254762172699
427,1016221080,0.76712197065353,-0.23298826813698,-4.35721826553345,0.05354981496930,0.12901614606380,9.84759426116943,1.33736717700958,0.17428161203861,-0.12993963062763
428,1016237747,0.76778686046600,-0.23283864557743,-4.35698795318604,0.03380285575986,0.13255497813225,9.85469436645508,1.34457707405090,0.11906064301729,-0.22323390841484
429,1016254414,0.76736664772034,-0.23340159654617,-4.35638570785522,0.05092992633581,0.12854829430580,9.87109184265137,1.28003311157227,0.07668442279100,-0.19719858467579
430,1016271081,0.76758468151093,-0.23459687829018,-4.35726881027222,0.04959801584482,0.13648167252541,9.88051891326904,1.31819605827332,0.03822695463896,-0.28178453445435
431,1016287748,0.76861494779587,-0.23359896242619,-4.35695075988770,0.03882243484259,0.12878754734993,9.86919498443604,1.36684727668762,0.16976097226143,-0.21083731949329
432,1016304415,0.76796793937683,-0.23234874010086,-4.35728883743286,0.04215058311820,0.13080137968063,9.85654830932617,1.26661205291748,0.18541033565998,-0.25313672423363
433,1016321082,0.76730513572693,-0.23232167959213,-4.35722589492798,0.05051790177822,0.13669282197952,9.87948513031006,1.26508784294128,0.11132558435202,-0.23387594521046
434,1016337749,0.76713436841965,-0.23336341977119,-4.35711145401001,0.04239667952061,0.12923324108124,9.87558174133301,1.29552888870239,0.04852325841784,-0.22270885109901
435,1016354416,0.76710635423660,-0.23359610140324,-4.35715532302856,0.04205013066530,0.13503819704056,9.88259983062744,1.30329585075378,0.09568265080452,-0.25040256977081
436,1016371083,0.76727372407913,-0.23345960676670,-4.35613679885864,0.05243880301714,0.12689130008221,9.85966014862061,1.31478965282440,0.11941921710968,-0.17499238252640
437,1016387750,0.76766985654831,-0.23257698118687,-4.35592126846313,0.05384716391563,0.12962678074837,9.86445140838623,1.32938861846924,0.16339620947838,-0.23203182220459
438,1016404417,0.76856929063797,-0.23120850324631,-4.35613489151001,0.04761409759521,0.13507547974586,9.88073921203613,1.35868978500366,0.19180069863796,-0.24159820377827
439,1016421084,0.76834613084793,-0.23142097890377,-4.35619592666626,0.05193392932415,0.14351379871368,9.85123252868652,1.29178929328918,0.09781489521265,-0.24243062734604
440,1016437751,0.76758897304535,-0.23106831312180,-4.35684919357300,0.04606759920716,0.14423578977585,9.86180686950684,1.25950455665588,0.13066318631172,-0.27670040726662
441,1016454418,0.76751673221588,-0.23063673079014,-4.35691261291504,0.04263094812632,0.12799778580666,9.86041831970215,1.30036962032318,0.13552960753441,-0.24555535614491
442,1016471085,0.76789081096649,-0.23053142428398,-4.35636520385742,0.05022321641445,0.14696495234966,9.84491634368896,1.32749354839325,0.11712687462568,-0.20513853430748
443,1016487752,0.76802492141724,-0.23078647255898,-4.35585737228394,0.03073374740779,0.11008627712727,9.86539459228516,1.31306064128876,0.09526643157005,-0.20834010839462
444,1016504419,0.76847332715988,-0.23024661839008,-4.35587739944458,0.03858499601483,0.11915381252766,9.85715293884277,1.33225739002228,0.14317500591278,-0.22871500253677
445,1016521086,0.76944917440414,-0.23051968216896,-4.35568332672119,0.03902536258101,0.13255171477795,9.84247207641602,1.36417078971863,0.09392176568508,-0.21360349655151
446,1016537753,0.76977366209030,-0.22987987101078,-4.35562562942505,0.04692785069346,0.13925513625145,9.83558464050293,1.32403576374054,0.14856646955013,-0.23171171545982
447,1016554420,0.76879358291626,-0.23000262677670,-4.35404062271118,0.04559728875756,0.13483197987080,9.85739040374756,1.24671089649200,0.10420526564121,-0.14047926664352
448,1016571087,0.76892799139023,-0.22962130606174,-4.35348558425903,0.04536299034953,0.13486185669899,9.85886478424072,1.31404662132263,0.13381354510784,-0.18117780983448
449,1016587754,0.76827305555344,-0.22867919504642,-4.35350894927979,0.04388051107526,0.13794587552547,9.87100601196289,1.26552355289459,0.16640570759773,-0.24357038736343
450,1016604421,0.76838523149490,-0.22756643593311,-4.35283851623535,0.04151658341289,0.11925251036882,9.85526657104492,1.31188261508942,0.17800825834274,-0.19321581721306
451,1016621088,0.76895773410797,-0.22801752388477,-4.35272741317749,0.04445463418961,0.13333784043789,9.85534381866455,1.33994114398956,0.08354862779379,-0.23423455655575
452,1016637755,0.77007228136063,-0.22778625786304,-4.35220193862915,0.04439182952046,0.12652498483658,9.86364936828613,1.37208497524261,0.12408072501421,-0.20871149003506
453,1016654422,0.76947402954102,-0.22813111543655,-4.35231208801270,0.03310765326023,0.12725390493870,9.86769866943359,1.26917326450348,0.08952920138836,-0.23857589066029
454,1016671089,0.76828742027283,-0.22833085060120,-4.35249137878418,0.04761413112283,0.13188086450100,9.85473728179932,1.23384046554565,0.09805821627378,-0.25769576430321
455,1016687756,0.76771521568298,-0.22823405265808,-4.35330057144165,0.04181533679366,0.13136357069016,9.86459064483643,1.27081251144409,0.11520593613386,-0.28442263603210
456,1016704423,0.76773357391357,-0.22872564196587,-4.35318946838379,0.04568620398641,0.12681607902050,9.84373569488525,1.30627334117889,0.08139715343714,-0.22525726258755
457,1016721090,0.76830220222473,-0.22820535302162,-4.35272932052612,0.04079803824425,0.12862832844257,9.84952068328857,1.33983874320984,0.14154858887196,-0.21133039891720
458,1016737757,0.76801675558090,-0.22875638306141,-4.35325336456299,0.04966942220926,0.12818779051304,9.85504531860352,1.28777456283569,0.07676766812801,-0.26530915498734
459,1016754424,0.76777118444443,-0.22925522923470,-4.35306596755981,0.04924711957574,0.13570731878281,9.86083126068115,1.28995800018311,0.07989881932735,-0.23018775880337
460,1016771091,0.76719832420349,-0.22997303307056,-4.35193586349487,0.05072034895420,0.13565790653229,9.88101482391357,1.27158081531525,0.06844993680716,-0.17007473111153
461,1016787758,0.76724696159363,-0.22942410409451,-4.35163927078247,0.03808102384210,0.12981566786766,9.86660099029541,1.30788695812225,0.14366163313389,-0.21922551095486
462,1016804425,0.76784300804138,-0.22821305692196,-4.35207986831665,0.04629959911108,0.12887299060822,9.84428691864014,1.34049189090729,0.18296431005001,-0.25536501407623
463,1016821092,0.76697760820389,-0.22799144685268,-4.35213661193848,0.03345503285527,0.11768314242363,9.84484863281250,1.25326776504517,0.12276165932417,-0.24166220426559
464,1016837759,0.76789546012878,-0.22719658911228,-4.35271120071411,0.05113363265991,0.12545718252659,9.85552692413330,1.36075139045715,0.15768459439278,-0.26532834768295
465,1016854426,0.76813495159149,-0.22676734626293,-4.35283136367798,0.05888453125954,0.12999826669693,9.85738277435303,1.31900286674500,0.13643886148930,-0.24730983376503
466,1016871093,0.76750111579895,-0.22736737132072,-4.35210752487183,0.05873727798462,0.12682911753654,9.85953330993652,1.26766204833984,0.07487872242928,-0.19038559496403
467,1016887760,0.76722508668900,-0.22693923115730,-4.35232734680176,0.05131130665541,0.12651200592518,9.85447883605957,1.28857493400574,0.13549117743969,-0.24336548149586
468,1016904427,0.76707422733307,-0.22663976252079,-4.35200738906860,0.04779987409711,0.13385406136513,9.87511634826660,1.29661726951599,0.12926729023457,-0.20406277477741
469,1016921094,0.76706194877625,-0.22547303140163,-4.35197353363037,0.04603312909603,0.12621782720089,9.86406326293945,1.30430114269257,0.18039023876190,-0.23163487017155
470,1016937761,0.76608538627625,-0.22482696175575,-4.35125780105591,0.05004182085395,0.13839179277420,9.84769916534424,1.24691593647003,0.14901469647884,-0.19552093744278
471,1016954428,0.76659715175629,-0.22468048334122,-4.35213661193848,0.05641523748636,0.12845823168755,9.85485649108887,1.33536922931671,0.11885572224855,-0.29008302092552
472,1016971095,0.76716619729996,-0.22485092282295,-4.35211849212646,0.05343069136143,0.12183032184839,9.87434577941895,1.34010767936707,0.10023529827595,-0.22334913909435
473,1016987762,0.76694196462631,-0.22477146983147,-4.35317277908325,0.03944607079029,0.13417474925518,9.84644222259521,1.29102087020874,0.11433507502079,-0.28671494126320
474,1017004429,0.76699817180634,-0.22368030250072,-4.35266876220703,0.03898937627673,0.13460464775562,9.85909080505371,1.30920588970184,0.17618975043297,-0.20658563077450
475,1017021096,0.76726621389389,-0.22287021577358,-4.35259342193604,0.03266402333975,0.12487059831619,9.84742832183838,1.32119250297546,0.15954148769379,-0.22886864840984
476,1017037763,0.76696223020554,-0.22285564243793,-4.35172891616821,0.04127275943756,0.12830422818661,9.85879802703857,1.28693568706512,0.11223486065865,-0.17298178374767
477,1017054430,0.76695966720581,-0.22257490456104,-4.35224866867065,0.04897540807724,0.13850614428520,9.85770225524902,1.30558180809021,0.12700057029724,-0.26718530058861
478,1017071097,0.76720744371414,-0.22127550840378,-4.35149765014648,0.03859591111541,0.13758850097656,9.85924816131592,1.32046902179718,0.18878479301929,-0.18792037665844
479,1017087764,0.76707512140274,-0.24506145715714,-4.35650825500488,0.06131570413709,0.12964999675751,9.86738681793213,1.29987657070160,0.10390432924032,-0.22148582339287
480,1017104431,0.76741957664490,-0.24491801857948,-4.35637140274048,0.05671183019876,0.12965123355389,9.85304832458496,1.32518827915192,0.12272323668003,-0.22713981568813
481,1017121098,0.76833671331406,-0.24468378722668,-4.35729742050171,0.04652400687337,0.13145780563354,9.83920478820801,1.36030328273773,0.12700058519840,-0.30299183726311
482,1017137765,0.76872539520264,-0.24504800140858,-4.35627269744873,0.04532292857766,0.12597911059856,9.85858154296875,1.32940149307251,0.09229536354542,-0.17408309876919
483,1017154432,0.76927858591080,-0.24458438158035,-4.35537862777710,0.04317787662148,0.12898114323616,9.85957813262939,1.33851969242096,0.14239381253719,-0.17700295150280
484,1017171099,0.76978027820587,-0.24364800751209,-4.35677433013916,0.05934273451567,0.13197053968906,9.85254478454590,1.33513236045837,0.16942159831524,-0.32029962539673
485,1017187766,0.77013033628464,-0.24328713119030,-4.35609722137451,0.05441142991185,0.13025900721550,9.85811233520508,1.32568776607513,0.13609308004379,-0.19876094162464
486,1017204433,0.77094626426697,-0.24371123313904,-4.35546398162842,0.03270687907934,0.11741044372320,9.85238456726074,1.35519349575043,0.08879922330379,-0.19001421332359
487,1017221100,0.77048641443253,-0.24315713346004,-4.35536432266235,0.04671325162053,0.13100396096706,9.85173511505127,1.27722859382629,0.14732424914837,-0.22900956869125
488,1017237767,0.77010804414749,-0.24306197464466,-4.35581159591675,0.05194066837430,0.12904791533947,9.85564422607422,1.28290176391602,0.11934237927198,-0.26507225632668
489,1017254434,0.76986879110336,-0.24321059882641,-4.35488080978394,0.03426565602422,0.13368609547615,9.84855842590332,1.29073917865753,0.10499925911427,-0.18215110898018
490,1017271101,0.76940679550171,-0.24281315505505,-4.35539579391479,0.03823182359338,0.13563603162766,9.87315177917480,1.27771508693695,0.13751457631588,-0.26353546977043
491,1017287768,0.76853561401367,-0.24277651309967,-4.35465192794800,0.04988940432668,0.13453893363476,9.87517833709717,1.25362634658813,0.11661460995674,-0.19261391460896
492,1017304435,0.76836019754410,-0.24265220761299,-4.35445022583008,0.04461892321706,0.13373793661594,9.84324455261230,1.29498445987701,0.12173075228930,-0.22403429448605
493,1017321102,0.76826357841492,-0.24324417114258,-4.35375690460205,0.04920654371381,0.12571486830711,9.84924602508545,1.29953074455261,0.07909841835499,-0.18786917626858
494,1017337769,0.76765769720078,-0.24413764476776,-4.35309553146362,0.02884001471102,0.12656520307064,9.85681247711182,1.26942300796509,0.06068288162351,-0.19463089108467
495,1017354436,0.76739263534546,-0.24454647302628,-4.35225391387939,0.03702593222260,0.12690617144108,9.85289287567139,1.28947782516479,0.09000943601131,-0.18406566977501
496,1017371103,0.76705408096313,-0.24397161602974,-4.35213994979858,0.03822737932205,0.13356663286686,9.86816024780273,1.28483557701111,0.14852805435658,-0.23493890464306
497,1017387770,0.76688140630722,-0.24417923390865,-4.35283327102661,0.04604495689273,0.13969802856445,9.86500358581543,1.29500377178192,0.10083720833063,-0.27068141102791
498,1017404437,0.76673674583435,-0.24501687288284,-4.35164308547974,0.05461966618896,0.13549099862576,9.84147548675537,1.29646360874176,0.06424946337938,-0.17084310948849
499,1017421104,0.76648575067520,-0.24408073723316,-4.35240793228149,0.03974523767829,0.12606714665890,9.86789608001709,1.29072642326355,0.16964571177959,-0.28223276138306
500,1017437771,0.76676386594772,-0.24361790716648,-4.35212850570679,0.03857630863786,0.12401310354471,9.86708545684814,1.32193553447723,0.14198400080204,-0.21510183811188
501,1017454438,0.76717329025269,-0.24383762478828,-4.35210180282593,0.03998926281929,0.13331317901611,9.85668087005615,1.33022105693817,0.10077315568924,-0.23414486646652
502,1017471105,0.76600462198257,-0.24421112239361,-4.35102605819702,0.04259840771556,0.13069373369217,9.86075305938721,1.23509562015533,0.09282042086124,-0.16336420178413
503,1017487772,0.76545816659927,-0.24342589080334,-4.35119199752808,0.05928969755769,0.12239801138639,9.85027122497559,1.27255427837372,0.16050198674202,-0.24532485008240
504,1017504439,0.76505786180496,-0.24352020025253,-4.35191440582275,0.04131432250142,0.12972730398178,9.85288524627686,1.28196680545807,0.10808559507132,-0.27808350324631
505,1017521106,0.76579099893570,-0.24326482415199,-4.35179853439331,0.04907805845141,0.13248960673809,9.86623382568359,1.34881603717804,0.12901116907597,-0.23506693542004
506,1017537773,0.76567131280899,-0.24308374524117,-4.35125970840454,0.03886819258332,0.13252936303616,9.85741329193115,1.29920423030853,0.12534855306149,-0.20466469228268
507,1017554440,0.76574575901031,-0.24307575821877,-4.35131406784058,0.03398437052965,0.13319112360477,9.86160373687744,1.30962216854095,0.11388046294451,-0.23970927298069
508,1017571107,0.76626652479172,-0.24364960193634,-4.35115051269531,0.04121510684490,0.12835429608822,9.86898040771484,1.33652198314667,0.07927130162716,-0.23612989485264
509,1017587774,0.76614987850189,-0.24399717152119,-4.35143041610718,0.05240544676781,0.12567275762558,9.85271739959717,1.29776990413666,0.09342232346535,-0.25348246097565
510,1017604441,0.76703727245331,-0.24310275912285,-4.35151195526123,0.03125145286322,0.13516302406788,9.88562965393066,1.35879206657410,0.16753263771534,-0.21325770020485
511,1017621108,0.76796483993530,-0.24199613928795,-4.35136795043945,0.05069097504020,0.12651079893112,9.86605548858643,1.36119973659515,0.18035182356834,-0.22602568566799
512,1017637775,0.76811629533768,-0.24218618869781,-4.35112714767456,0.03652541711926,0.13362240791321,9.85577583312988,1.31472551822662,0.10325760394335,-0.22299057245255
513,1017654442,0.76765555143356,-0.24139785766602,-4.35119485855103,0.04703756794333,0.13923043012619,9.85839271545410,1.27844512462616,0.16089898347855,-0.23390159010887
514,1017671109,0.76826649904251,-0.24189363420010,-4.35057306289673,0.04601622745395,0.13655506074429,9.85490989685059,1.34206688404083,0.08462435007095,-0.19951009750366
515,1017687776,0.76811492443085,-0.24216240644455,-4.34913253784180,0.04959789291024,0.13197247684002,9.86315631866455,1.29614341259003,0.09842960536480,-0.15185128152370
516,1017704443,0.76815074682236,-0.24127881228924,-4.34993886947632,0.04069642722607,0.13764490187168,9.87933254241943,1.30763065814972,0.16682831943035,-0.27874937653542
517,1017721110,0.76947408914566,-0.24100747704506,-4.34874010086060,0.04365275800228,0.12658637762070,9.87016391754150,1.38466095924377,0.13150840997696,-0.15763977169991
518,1017737777,0.76980286836624,-0.24167570471764,-4.34894990921021,0.05068657547235,0.13786505162716,9.84920501708984,1.32539331912994,0.07312425971031,-0.23805084824562
519,1017754444,0.76975589990616,-0.24159212410450,-4.34796905517578,0.04569737613201,0.13975450396538,9.86345577239990,1.30266189575195,0.12029004842043,-0.17372454702854
520,1017771111,0.77107822895050,-0.24119628965855,-4.34909343719482,0.03743510693312,0.13876080513000,9.85108757019043,1.38504505157471,0.13643886148930,-0.29900905489922
521,1017787778,0.77129983901978,-0.23985284566879,-4.34874153137207,0.04253526031971,0.13601489365101,9.86278915405273,1.31842648983002,0.19452846050262,-0.23369665443897
522,1017804445,0.77082276344299,-0.24081577360630,-4.34836530685425,0.04883978515863,0.13024985790253,9.86481094360352,1.27689552307129,0.05683458596468,-0.20305109024048
523,1017821112,0.77173334360123,-0.24103918671608,-4.34797286987305,0.04153485223651,0.13263365626335,9.85084629058838,1.36021363735199,0.10090123116970,-0.20508728921413
524,1017837779,0.77129304409027,-0.24210317432880,-4.34829330444336,0.03817709907889,0.12443844974041,9.84197616577148,1.27910459041595,0.05041219294071,-0.25099164247513
525,1017854446,0.77170848846436,-0.24219524860382,-4.34842538833618,0.05349209159613,0.14806056022644,9.85969352722168,1.32999694347382,0.10784868150949,-0.24558737874031
526,1017871113,0.77328091859818,-0.24231509864330,-4.34877061843872,0.04263291880488,0.14117462933064,9.85503101348877,1.39931142330170,0.10690741986036,-0.25066509842873
527,1017887780,0.77222949266434,-0.24202039837837,-4.34837913513184,0.04520877823234,0.13615506887436,9.86437797546387,1.24284338951111,0.13200783729553,-0.21172736585140
528,1017904447,0.77192121744156,-0.24210140109062,-4.34871625900269,0.02724876441061,0.12816858291626,9.84294033050537,1.28642332553864,0.10871309787035,-0.24608038365841
529,1017921114,0.77192723751068,-0.24166698753834,-4.34837388992310,0.05160950496793,0.12775568664074,9.85546875000000,1.30619657039642,0.14042162895203,-0.21287356317043
530,1017937781,0.77169507741928,-0.24111491441727,-4.34853887557983,0.04018401727080,0.13502372801304,9.84699249267578,1.29072642326355,0.14687600731850,-0.24414663016796
531,1017954448,0.77085214853287,-0.24135594069958,-4.34853553771973,0.03328248858452,0.13538688421249,9.86338424682617,1.25522708892822,0.09941568970680,-0.23468276858330
532,1017971115,0.77034294605255,-0.24075856804848,-4.34878492355347,0.03799886256456,0.13132722675800,9.84818744659424,1.27428317070007,0.14960378408432,-0.24704089760780
533,1017987782,0.77177047729492,-0.23990590870380,-4.34851646423340,0.04404748603702,0.13260453939438,9.84967613220215,1.39160192012787,0.16525313258171,-0.21876446902752
534,1018004449,0.77149885892868,-0.23981180787086,-4.34885215759277,0.04881830886006,0.13823685050011,9.86531257629395,1.28888237476349,0.11991865932941,-0.24967901408672
535,1018021116,0.77106267213821,-0.24010004103184,-4.34909486770630,0.03432822972536,0.12956207990646,9.86190223693848,1.27940559387207,0.09625253081322,-0.24569623172283
536,1018037783,0.77131539583206,-0.24055889248848,-4.34962272644043,0.03837678954005,0.14247164130211,9.85628890991211,1.32009136676788,0.08587938547134,-0.25746527314186
537,1018054450,0.77122396230698,-0.24164116382599,-4.34810924530029,0.05323783308268,0.13114406168461,9.86625289916992,1.30071544647217,0.05067472904921,-0.13946755230427
538,1018071117,0.77032905817032,-0.24148578941822,-4.34779548645020,0.04297178611159,0.13714212179184,9.85616207122803,1.25153887271881,0.12363248318434,-0.21499939262867
539,1018087784,0.77052998542786,-0.24182367324829,-4.34899234771729,0.04028718173504,0.13153423368931,9.85328006744385,1.31718432903290,0.09253868460655,-0.30433651804924
540,1018104451,0.77039325237274,-0.24201531708241,-4.34948778152466,0.05584336444736,0.13066765666008,9.84614181518555,1.29760336875916,0.10179767757654,-0.25107488036156
541,1018121118,0.77084034681320,-0.24105730652809,-4.35034084320068,0.04348888993263,0.13236254453659,9.85653209686279,1.33129668235779,0.17083668708801,-0.28264254331589
542,1018137785,0.77001595497131,-0.23994649946690,-4.35113477706909,0.05748216807842,0.13423883914948,9.87125015258789,1.25617480278015,0.18003165721893,-0.28426891565323
543,1018154452,0.76846945285797,-0.23959754407406,-4.35097169876099,0.05341456457973,0.14002810418606,9.85945987701416,1.21270370483398,0.13519024848938,-0.21655538678169
544,1018171119,0.76900953054428,-0.23856137692928,-4.35139560699463,0.04512487351894,0.13791632652283,9.84821605682373,1.33680355548859,0.17635624110699,-0.25434052944183
545,1018187786,0.76857668161392,-0.23847982287407,-4.35117292404175,0.04853865504265,0.12957642972469,9.86486721038818,1.27991771697998,0.11879169195890,-0.22743433713913
546,1018204453,0.76760172843933,-0.23981533944607,-4.35106754302979,0.03785707056522,0.13947652280331,9.87357902526855,1.24677491188049,0.03428260236979,-0.21809855103493
547,1018221120,0.76783436536789,-0.24081398546696,-4.35203027725220,0.05636500194669,0.13623873889446,9.86974716186523,1.31954073905945,0.05378667265177,-0.28046545386314
548,1018237787,0.76798605918884,-0.24179126322269,-4.35195922851562,0.04509073495865,0.12733036279678,9.84686374664307,1.31416201591492,0.05538745969534,-0.23288346827030
549,1018254454,0.76702290773392,-0.24149969220161,-4.35224676132202,0.04260597005486,0.13956832885742,9.85153579711914,1.24710798263550,0.13068878650665,-0.25788787007332
550,1018271121,0.76697373390198,-0.24158497154713,-4.35305213928223,0.05193210020661,0.13482719659805,9.83753681182861,1.30217528343201,0.10850819200277,-0.28227114677429
551,1018287788,0.76655381917953,-0.24109034240246,-4.35317754745483,0.04473289847374,0.14600270986557,9.84699440002441,1.28051960468292,0.14414826035500,-0.23756414651871
552,1018304455,0.76528406143188,-0.24003081023693,-4.35335922241211,0.04846266657114,0.13029101490974,9.86054515838623,1.22891020774841,0.17690692842007,-0.24645182490349
553,1018321122,0.76435858011246,-0.23945602774620,-4.35362482070923,0.04810265451670,0.13387796282768,9.85205173492432,1.25004065036774,0.14884820580482,-0.24246905744076
554,1018337789,0.76469188928604,-0.24039734899998,-4.35402679443359,0.04502873122692,0.13920381665230,9.84781455993652,1.32522034645081,0.05719956755638,-0.25681856274605
555,1018354456,0.76478016376495,-0.24102523922920,-4.35359859466553,0.04248005151749,0.13028174638748,9.85418415069580,1.31043529510498,0.07696615904570,-0.20794311165810
556,1018371123,0.76464730501175,-0.24107559025288,-4.35434293746948,0.03970216214657,0.13110227882862,9.84533691406250,1.29721915721893,0.10995531827211,-0.26764631271362
557,1018387790,0.76495999097824,-0.24075061082840,-4.35425567626953,0.05052613094449,0.14148925244808,9.87876224517822,1.32370257377625,0.13392882049084,-0.23285147547722
558,1018404457,0.76538538932800,-0.24122612178326,-4.35327577590942,0.03787654265761,0.14070735871792,9.85506534576416,1.33134806156158,0.08641723543406,-0.16177619993687
559,1018421124,0.76532900333405,-0.24040636420250,-4.35242033004761,0.04606620222330,0.13247504830360,9.86717700958252,1.30211114883423,0.16434387862682,-0.18354700505733
560,1018437791,0.76436489820480,-0.24070405960083,-4.35256767272949,0.04493672400713,0.13138021528721,9.86629676818848,1.24776113033295,0.09595797955990,-0.22786976397038
561,1018454458,0.76465243101120,-0.24087986350060,-4.35294532775879,0.05419370159507,0.12621127068996,9.86365699768066,1.32212758064270,0.10328321158886,-0.25682497024536
562,1018471125,0.76511079072952,-0.24069149792194,-4.35249567031860,0.04577304422855,0.12421371787786,9.86843299865723,1.33356356620789,0.12610411643982,-0.19981105625629
563,1018487792,0.76506018638611,-0.24166317284107,-4.35290670394897,0.04130594059825,0.11817308515310,9.86669254302979,1.30165016651154,0.05555394664407,-0.26014178991318
564,1018504459,0.76529091596603,-0.24230854213238,-4.35352039337158,0.05341292917728,0.14079840481281,9.85250282287598,1.31955325603485,0.07467381656170,-0.26943916082382
565,1018521126,0.76556807756424,-0.24224685132504,-4.35423374176025,0.04578929021955,0.12113036960363,9.85364246368408,1.32130789756775,0.11725494265556,-0.27238464355469
566,1018537793,0.76601183414459,-0.24128751456738,-4.35375690460205,0.04888441786170,0.12302638590336,9.87002849578857,1.33202695846558,0.17259116470814,-0.20488238334656
567,1018554460,0.76591795682907,-0.24028755724430,-4.35360097885132,0.05968959257007,0.12347612529993,9.85693645477295,1.30012619495392,0.17385900020599,-0.23336365818977
568,1018571127,0.76576626300812,-0.24000829458237,-4.35375261306763,0.04463447630405,0.12745165824890,9.85181427001953,1.29605376720428,0.13059915602207,-0.23612986505032
569,1018587794,0.76742440462112,-0.24044699966908,-4.35162830352783,0.04251429066062,0.14650149643421,9.87083530426025,1.40529191493988,0.08970847725868,-0.10779744386673
570,1018604461,0.76662421226501,-0.24062997102737,-4.35167217254639,0.03014879673719,0.13080596923828,9.87205696105957,1.25778841972351,0.10346249490976,-0.22861254215240
571,1018621128,0.76671284437180,-0.24095477163792,-4.35267734527588,0.04386083781719,0.13400529325008,9.85552597045898,1.30979514122009,0.09360162168741,-0.29797175526619
572,1018637795,0.76726996898651,-0.24022634327412,-4.35349702835083,0.06320916861296,0.12748266756535,9.85258007049561,1.33885264396667,0.15747970342636,-0.26922148466110
573,1018654462,0.76784539222717,-0.24026498198509,-4.35342741012573,0.04241450130939,0.13243156671524,9.86494159698486,1.34018445014954,0.11154329776764,-0.22954739630222
574,1018671129,0.76775616407394,-0.23958778381348,-4.35171985626221,0.03749829530716,0.13099882006645,9.87534713745117,1.30052328109741,0.15598134696484,-0.13335891067982
575,1018687796,0.76877862215042,-0.23888213932514,-4.35164403915405,0.05625125020742,0.14205020666122,9.85910129547119,1.36653995513916,0.15731321275234,-0.22277286648750
576,1018704463,0.76919049024582,-0.23903773725033,-4.35103225708008,0.05445636436343,0.12939162552357,9.87303924560547,1.33018279075623,0.10542186349630,-0.19349755346775
577,1018721130,0.76954525709152,-0.23911935091019,-4.35082101821899,0.04635881260037,0.12395032495260,9.86642360687256,1.32701957225800,0.10962235182524,-0.21461521089077
578,1018737797,0.77056205272675,-0.23900961875916,-4.35108757019043,0.04458892345428,0.12521971762180,9.84719467163086,1.36598932743073,0.12011074274778,-0.25335440039635
579,1018754464,0.77171248197556,-0.23805131018162,-4.35129451751709,0.05435183644295,0.12615409493446,9.84899044036865,1.37477457523346,0.17142578959465,-0.23831976950169
580,1018771131,0.77223527431488,-0.23842963576317,-4.35088300704956,0.04502031207085,0.12167263776064,9.85438632965088,1.33645784854889,0.09234658628702,-0.20848096907139
581,1018787798,0.77174371480942,-0.23982819914818,-4.35166549682617,0.05237077549100,0.12245164811611,9.84770488739014,1.27567899227142,0.02912164293230,-0.27712303400040
582,1018804465,0.77129960060120,-0.23986610770226,-4.35134029388428,0.05570106953382,0.12580113112926,9.85814285278320,1.27920079231262,0.11268306523561,-0.20883955061436
583,1018821132,0.77089583873749,-0.23874971270561,-4.35186338424683,0.05217243731022,0.13866220414639,9.85782432556152,1.28068625926971,0.18114581704140,-0.23874238133430
584,1018837799,0.77072191238403,-0.23890897631645,-4.35140275955200,0.04675770550966,0.12452584505081,9.87106513977051,1.29563128948212,0.10534504055977,-0.18148517608643
585,1018854466,0.77133995294571,-0.23844014108181,-4.35145616531372,0.05124726891518,0.14790642261505,9.86198234558105,1.34247672557831,0.14247064292431,-0.23383753001690
586,1018871133,0.77152872085571,-0.23805786669254,-4.35191726684570,0.04410240054131,0.13376167416573,9.87053680419922,1.31641602516174,0.13722005486488,-0.25414842367172
587,1018887800,0.77104926109314,-0.23767845332623,-4.35230064392090,0.04565065354109,0.11966618150473,9.84925079345703,1.27686989307404,0.13631080091000,-0.25524973869324
588,1018904467,0.77112615108490,-0.23733693361282,-4.35389089584351,0.04211874306202,0.12867072224617,9.86105155944824,1.30975675582886,0.13391600549221,-0.31901258230209
589,1018921134,0.77092951536179,-0.23777134716511,-4.35453748703003,0.04722615703940,0.13476631045341,9.85779094696045,1.29367816448212,0.08732010424137,-0.26854914426804
590,1018937801,0.77224642038345,-0.23734907805920,-4.35393571853638,0.05018865689635,0.13128978013992,9.84254074096680,1.38432157039642,0.14070975780487,-0.19118598103523
591,1018954468,0.77229911088943,-0.23773901164532,-4.35457897186279,0.05823713168502,0.12113024294376,9.86942481994629,1.30768203735352,0.08978532254696,-0.26374039053917
592,1018971135,0.77278566360474,-0.23762266337872,-4.35539913177490,0.05145165324211,0.13526174426079,9.84616661071777,1.33515167236328,0.12146821618080,-0.26543080806732
593,1018987802,0.77269738912582,-0.23562888801098,-4.35540914535522,0.03362146764994,0.13399322330952,9.85532474517822,1.29961407184601,0.23401042819023,-0.22739593684673
594,1019004469,0.77290952205658,-0.23556602001190,-4.35609626770020,0.04806256294250,0.13154260814190,9.85048675537109,1.31869542598724,0.11728055030107,-0.25601813197136
595,1019021136,0.77324157953262,-0.23609746992588,-4.35611581802368,0.04063047468662,0.12453339248896,9.86590480804443,1.32504105567932,0.08285067230463,-0.24049043655396
596,1019037803,0.77277970314026,-0.23635621368885,-4.35684967041016,0.03345430642366,0.12018727511168,9.86004924774170,1.27720284461975,0.09763560444117,-0.26905503869057
597,1019054470,0.77286243438721,-0.23765170574188,-4.35697793960571,0.05063308030367,0.12503254413605,9.85828399658203,1.31111407279968,0.03688228502870,-0.23621951043606
598,1019071137,0.77332115173340,-0.23879115283489,-4.35616350173950,0.05655592307448,0.15016855299473,9.88445758819580,1.33269286155701,0.04682001844049,-0.18185658752918
599,1019087804,0.77067840099335,-0.24592576920986,-4.35057401657104,0.03968168422580,0.14333719015121,9.86953830718994,1.30212390422821,0.03369349986315,-0.23347891867161
600,1019104471,0.77143651247025,-0.24507316946983,-4.35023832321167,0.04048496857285,0.12287846207619,9.86665248870850,1.35126197338104,0.16636729240417,-0.20776380598545
601,1019121138,0.77219641208649,-0.24507425725460,-4.35002613067627,0.03417602926493,0.13934071362019,9.85695171356201,1.35072422027588,0.11535960435867,-0.21348826587200
602,1019137805,0.77252954244614,-0.24649205803871,-4.35081481933594,0.05749758705497,0.12895278632641,9.85235691070557,1.32575166225433,0.02953143976629,-0.26657056808472
603,1019154472,0.77117079496384,-0.24614748358727,-4.35193777084351,0.05370017513633,0.13301575183868,9.84558963775635,1.22401809692383,0.13506858050823,-0.28553679585457
604,1019171139,0.77036106586456,-0.24716563522816,-4.35135984420776,0.05092539638281,0.12073843926191,9.87081050872803,1.25764751434326,0.05482397973537,-0.18599300086498
605,1019187806,0.76932114362717,-0.24665638804436,-4.35156726837158,0.05458044260740,0.11621005833149,9.87559032440186,1.24306106567383,0.14568503201008,-0.22555181384087
606,1019204473,0.76938241720200,-0.24592696130276,-4.35220766067505,0.04344606027007,0.12249402701855,9.84922695159912,1.30919313430786,0.15803036093712,-0.25850257277489
607,1019221140,0.76919591426849,-0.24587251245975,-4.35133075714111,0.04129511862993,0.13841916620731,9.86886692047119,1.29511904716492,0.11886854469776,-0.17404471337795
608,1019237807,0.76878941059113,-0.24507738649845,-4.35132551193237,0.04456354305148,0.14044709503651,9.87306976318359,1.28140330314636,0.16322973370552,-0.20904444158077
609,1019254474,0.76850700378418,-0.24430134892464,-4.35130739212036,0.06614995747805,0.14630064368248,9.86271762847900,1.28897190093994,0.16171859204769,-0.21622879803181
610,1019271141,0.76865249872208,-0.24432976543903,-4.35228776931763,0.04607062414289,0.13064596056938,9.88366317749023,1.31443095207214,0.11316972225904,-0.26891416311264
611,1019287808,0.76989138126373,-0.24479411542416,-4.35350179672241,0.03977628424764,0.13488340377808,9.85510826110840,1.37970495223999,0.08631480485201,-0.29813820123672
612,1019304475,0.76951968669891,-0.24562934041023,-4.35283327102661,0.05591831356287,0.13917522132397,9.86107063293457,1.28400301933289,0.06545325368643,-0.17782254517078
613,1019321142,0.76949793100357,-0.24465681612492,-4.35360479354858,0.05665287002921,0.13535748422146,9.87316703796387,1.30427551269531,0.17306502163410,-0.27028444409370
614,1019337809,0.76958185434341,-0.24513290822506,-4.35378646850586,0.06884338706732,0.12392382323742,9.87046813964844,1.31057643890381,0.08707037568092,-0.23043107986450
615,1019354476,0.76829010248184,-0.24459764361382,-4.35287380218506,0.03814124315977,0.13439165055752,9.85960006713867,1.22841072082520,0.14836156368256,-0.14437238872051
616,1019371143,0.76857030391693,-0.24471530318260,-4.35265064239502,0.05073776096106,0.12442976981401,9.82917785644531,1.32321608066559,0.10781666636467,-0.21045316755772
617,1019387810,0.76942574977875,-0.24443966150284,-4.35339164733887,0.04782608896494,0.13328866660595,9.86268234252930,1.35707604885101,0.13134191930294,-0.25499364733696
618,1019404477,0.76952850818634,-0.24461719393730,-4.35350131988525,0.06130225211382,0.14293071627617,9.84090709686279,1.31185686588287,0.10510170459747,-0.21768231689930
619,1019421144,0.76924228668213,-0.24590431153774,-4.35391712188721,0.04967538639903,0.12397397309542,9.86956214904785,1.28862619400024,0.03798363730311,-0.22979074716568
620,1019437811,0.76825934648514,-0.24592085182667,-4.35408544540405,0.04253592342138,0.11921913176775,9.86666584014893,1.24660861492157,0.11423264443874,-0.22688370943069
621,1019454478,0.76868325471878,-0.24552702903748,-4.35438442230225,0.03788767382503,0.13649210333824,9.86978721618652,1.33115601539612,0.13903853297234,-0.22731913626194
622,1019471145,0.76838052272797,-0.24558100104332,-4.35489511489868,0.03805354610085,0.13408225774765,9.85148334503174,1.28822922706604,0.11099264025688,-0.24754035472870
623,1019487812,0.76897060871124,-0.24414703249931,-4.35496854782104,0.05717508867383,0.12532305717468,9.86717891693115,1.34133708477020,0.20204578340054,-0.21326416730881
624,1019504479,0.76937943696976,-0.24401265382767,-4.35592889785767,0.06308697909117,0.13218735158443,9.85903835296631,1.32960641384125,0.12209572643042,-0.27235901355743
625,1019521146,0.76990616321564,-0.24421152472496,-4.35637474060059,0.05503208190203,0.14388784766197,9.86158657073975,1.33787941932678,0.10366740822792,-0.23458030819893
626,1019537813,0.77078878879547,-0.24386145174503,-4.35614395141602,0.04280347377062,0.10881432145834,9.85087299346924,1.35909950733185,0.13625957071781,-0.19368965923786
627,1019554480,0.77162843942642,-0.24393023550510,-4.35561704635620,0.03542077541351,0.12032437324524,9.86764335632324,1.35610282421112,0.11247816681862,-0.17106081545353
628,1019571147,0.77191013097763,-0.24336460232735,-4.35580968856812,0.04051744565368,0.14377379417419,9.87335586547852,1.32289588451385,0.14914275705814,-0.22452731430531
629,1019587814,0.77270781993866,-0.24456351995468,-4.35595226287842,0.05521016940475,0.14360421895981,9.86240386962891,1.35400271415710,0.04282443970442,-0.22133857011795
630,1019604481,0.77322232723236,-0.24452051520348,-4.35531711578369,0.04512312263250,0.12782108783722,9.84521579742432,1.33627855777740,0.11911185830832,-0.17455692589283
631,1019621148,0.77403068542480,-0.24509511888027,-4.35691690444946,0.04516255110502,0.13190330564976,9.88092899322510,1.35422027111053,0.07937375456095,-0.30831927061081
632,1019637815,0.77326834201813,-0.24545373022556,-4.35778474807739,0.04344457387924,0.13840571045876,9.84910678863525,1.26036250591278,0.09319180995226,-0.28041425347328
633,1019654482,0.77396154403687,-0.24694909155369,-4.35830736160278,0.05437053367496,0.13551232218742,9.85942268371582,1.34657490253448,0.02510044723749,-0.25061386823654
634,1019671149,0.77367722988129,-0.24671718478203,-4.35877990722656,0.04969142749906,0.13611240684986,9.86194610595703,1.28902316093445,0.12875503301620,-0.24400576949120
635,1019687816,0.77345234155655,-0.24724793434143,-4.35881233215332,0.03947973623872,0.15628385543823,9.86135292053223,1.29227590560913,0.08331811428070,-0.22439925372601
636,1019704483,0.77339804172516,-0.24700707197189,-4.35917901992798,0.04140679538250,0.12111363559961,9.88697624206543,1.30217540264130,0.13004848361015,-0.23578414320946
637,1019721150,0.77337074279785,-0.24755428731441,-4.35961437225342,0.03875771909952,0.12526188790798,9.85847187042236,1.30410897731781,0.08230641484261,-0.24149572849274
638,1019737817,0.77314615249634,-0.24738879501820,-4.35993146896362,0.04987615719438,0.14397767186165,9.84842109680176,1.29254484176636,0.12437527626753,-0.24677193164825
639,1019754484,0.77339738607407,-0.24840506911278,-4.35959815979004,0.06182778254151,0.13331250846386,9.86829853057861,1.32075726985931,0.05532343685627,-0.19507272541523
640,1019771151,0.77338063716888,-0.24863553047180,-4.35881996154785,0.04589014127851,0.14242956042290,9.86179161071777,1.30551767349243,0.10220747441053,-0.17375014722347
641,1019787818,0.77399468421936,-0.24919927120209,-4.35796689987183,0.04079065844417,0.13148178160191,9.86053562164307,1.34312367439270,0.08199266344309,-0.17002992331982
642,1019804485,0.77347725629807,-0.24974533915520,-4.35880994796753,0.04045704379678,0.11714606732130,9.85936069488525,1.27395009994507,0.08156364411116,-0.26240852475166
643,1019821152,0.77243071794510,-0.25013852119446,-4.35954332351685,0.05146823450923,0.13645631074905,9.85572338104248,1.24306118488312,0.09142453223467,-0.25074189901352
644,1019837819,0.77219462394714,-0.24986566603184,-4.36010217666626,0.05941202491522,0.13124042749405,9.87979221343994,1.29175090789795,0.13195662200451,-0.24532485008240
645,1019854486,0.77215349674225,-0.24890191853046,-4.36067724227905,0.04584250971675,0.12676906585693,9.86443424224854,1.30343031883240,0.17211735248566,-0.25676092505455
646,1019871153,0.77189546823502,-0.24786596000195,-4.36057186126709,0.04428664967418,0.11381788551807,9.86194419860840,1.29051518440247,0.17755365371704,-0.21709322929382
647,1019887820,0.77234107255936,-0.24774940311909,-4.36083936691284,0.03646047413349,0.13451933860779,9.87442588806152,1.33235967159271,0.12300498783588,-0.23136588931084
648,1019904487,0.77161771059036,-0.24841825664043,-4.36126852035522,0.03681904822588,0.13106751441956,9.85263442993164,1.26252675056458,0.07446891814470,-0.24430032074451
649,1019921154,0.77180981636047,-0.24764116108418,-4.36143636703491,0.05878054350615,0.12652575969696,9.85807037353516,1.31746602058411,0.16221803426743,-0.22569271922112
650,1019937821,0.77237254381180,-0.24806514382362,-4.36142492294312,0.06346581876278,0.13545852899551,9.87008380889893,1.33887815475464,0.08958040922880,-0.22222216427326
651,1019954488,0.77255153656006,-0.24805881083012,-4.36168050765991,0.05116706341505,0.14144887030125,9.86916446685791,1.31683862209320,0.11555168777704,-0.22237586975098
652,1019971155,0.77244383096695,-0.24868506193161,-4.36187458038330,0.04541730880737,0.12191136181355,9.87486648559570,1.29884564876556,0.07790102809668,-0.23606584966183
653,1019987822,0.77316248416901,-0.24868814647198,-4.36273050308228,0.04680199548602,0.13667494058609,9.85504817962646,1.34889280796051,0.11413018405437,-0.27226936817169
654,1020004489,0.77390289306641,-0.24903841316700,-4.36322927474976,0.04255568981171,0.14396865665913,9.86157798767090,1.35000681877136,0.09462612122297,-0.25660723447800
655,1020021156,0.77403908967972,-0.24926616251469,-4.36233282089233,0.06152730435133,0.13095179200172,9.85124683380127,1.31496870517731,0.10220746695995,-0.16374838352203
656,1020037823,0.77428847551346,-0.25050243735313,-4.36268329620361,0.04326184093952,0.12109419703484,9.87117958068848,1.32043719291687,0.04127486795187,-0.23537433147430
657,1020054490,0.77363121509552,-0.25147143006325,-4.36352014541626,0.03955567255616,0.12604810297489,9.86129760742188,1.26668882369995,0.05661687254906,-0.26184505224228
658,1020071157,0.77322900295258,-0.25189685821533,-4.36412143707275,0.04240515828133,0.11920437961817,9.87157058715820,1.28158891201019,0.08910018205643,-0.24924999475479
659,1020087824,0.77214592695236,-0.25190231204033,-4.36462354660034,0.06366843730211,0.12909692525864,9.88095188140869,1.24038469791412,0.11512909829617,-0.23235201835632
660,1020104491,0.77155554294586,-0.25272223353386,-4.36441278457642,0.05317273363471,0.13966082036495,9.86937046051025,1.27092778682709,0.06624725461006,-0.20599655807018
661,1020121158,0.77173793315887,-0.25289526581764,-4.36532831192017,0.04630674421787,0.13173769414425,9.85884475708008,1.31633913516998,0.10410282015800,-0.27392143011093
662,1020137825,0.77306139469147,-0.25216811895370,-4.36496639251709,0.04140827804804,0.11676124483347,9.85308170318604,1.38537812232971,0.15992569923401,-0.19760838150978
663,1020154492,0.77331095933914,-0.25278043746948,-4.36448907852173,0.06634427607059,0.11167130619287,9.84285736083984,1.32101333141327,0.07842607796192,-0.19046242535114
664,1020171159,0.77446109056473,-0.25378358364105,-4.36542224884033,0.05504593253136,0.12885497510433,9.86739921569824,1.37458240985870,0.05467031151056,-0.27612411975861
665,1020187826,0.77426928281784,-0.25299155712128,-4.36577844619751,0.05321257933974,0.12246055155993,9.87851238250732,1.29488849639893,0.16306325793266,-0.23541274666786
666,1020204493,0.77403980493546,-0.25368946790695,-4.36531877517700,0.05176392942667,0.13688467442989,9.85770130157471,1.29205822944641,0.07446892559528,-0.17126572132111
667,1020221160,0.77425283193588,-0.25333842635155,-4.36495971679688,0.03602057322860,0.13847331702709,9.85586071014404,1.31907951831818,0.13636200129986,-0.19623807072639
668,1020237827,0.77380907535553,-0.25414824485779,-4.36489200592041,0.04117558896542,0.11954141408205,9.86566162109375,1.27875244617462,0.06672107428312,-0.21672825515270
669,1020254494,0.77330011129379,-0.25478488206863,-4.36530351638794,0.05659731477499,0.12690241634846,9.85184955596924,1.27551233768463,0.07756806164980,-0.24129082262516
670,1020271161,0.77339661121368,-0.25448653101921,-4.36544466018677,0.04538211226463,0.13638605177402,9.88687705993652,1.31218981742859,0.13275061547756,-0.22977791726589
671,1020287828,0.77358323335648,-0.25374546647072,-4.36606931686401,0.05341566354036,0.11974440515041,9.87629032135010,1.31687057018280,0.16002173721790,-0.25637033581734
672,1020304495,0.77378827333450,-0.25415158271790,-4.36621713638306,0.03962624818087,0.12271270900965,9.85715675354004,1.31801044940948,0.09084185212851,-0.21604314446449
673,1020321162,0.77272641658783,-0.25271913409233,-4.36594867706299,0.03233222290874,0.13388565182686,9.86446094512939,1.24183166027069,0.20130302011967,-0.19891461730003
674,1020337829,0.77286309003830,-0.25256735086441,-4.36535310745239,0.06106512993574,0.14137989282608,9.86042404174805,1.31444382667542,0.12507963180542,-0.18081925809383
675,1020354496,0.77292096614838,-0.25045874714851,-4.36512422561646,0.04524214938283,0.11566161364317,9.87333869934082,1.30969262123108,0.24211683869362,-0.20841693878174
676,1020371163,0.77376961708069,-0.25075265765190,-4.36452484130859,0.05454662069678,0.13484364748001,9.84395599365234,1.35644853115082,0.09882660210133,-0.18025577068329
677,1020387830,0.77287012338638,-0.25061106681824,-4.36457443237305,0.04182014986873,0.12849986553192,9.84626674652100,1.25210249423981,0.12428563088179,-0.21449995040894
678,1020404497,0.77339541912079,-0.24919030070305,-4.36461877822876,0.04539625719190,0.11605647951365,9.87137508392334,1.33731591701508,0.20000956952572,-0.21923829615116
679,1020421164,0.77326679229736,-0.24781481921673,-4.36402988433838,0.04443299025297,0.13625824451447,9.84711742401123,1.29898655414581,0.19844719767570,-0.18640281260014
680,1020437831,0.77366662025452,-0.24848937988281,-4.36377334594727,0.04614514112473,0.15040963888168,9.85384941101074,1.32986259460449,0.07613375037909,-0.18500694632530
681,1020454498,0.77337604761124,-0.24773696064949,-4.36342573165894,0.05128042772412,0.14557455480099,9.88087940216064,1.28842127323151,0.16063006222248,-0.19567464292049
682,1020471165,0.77273571491241,-0.24702142179012,-4.36384773254395,0.05232351273298,0.11286700516939,9.89337539672852,1.26752138137817,0.15823526680470,-0.24190554022789
683,1020487832,0.77262407541275,-0.24621590971947,-4.36338472366333,0.04466441273689,0.12690015137196,9.85530090332031,1.29984462261200,0.16402372717857,-0.18443064391613
684,1020504499,0.77324682474136,-0.24743828177452,-4.36274051666260,0.03375221788883,0.13270851969719,9.87902545928955,1.34310448169708,0.04314459487796,-0.18051192164421
685,1020521166,0.77337163686752,-0.24739663302898,-4.36242437362671,0.05601649358869,0.10719183087349,9.87893390655518,1.31349599361420,0.11820260435343,-0.19566179811954
686,1020537833,0.77366977930069,-0.24713532626629,-4.36137056350708,0.05520147830248,0.14599859714508,9.86100196838379,1.32433032989502,0.13193102180958,-0.15600055456161
687,1020554500,0.77470785379410,-0.24689538776875,-4.36236953735352,0.04553497582674,0.13157184422016,9.86552047729492,1.36789751052856,0.12889590859413,-0.26840189099312
688,1020571167,0.77503991127014,-0.24726355075836,-4.36238956451416,0.04904413223267,0.11430686712265,9.85990238189697,1.32520115375519,0.09372967481613,-0.22042928636074
689,1020587834,0.77561455965042,-0.24606098234653,-4.36373186111450,0.05063942074776,0.13648499548435,9.85402107238770,1.34059417247772,0.18637080490589,-0.30443891882896
690,1020604501,0.77513736486435,-0.24765898287296,-4.36423778533936,0.05107017979026,0.13722731173038,9.87002849578857,1.27683150768280,0.01887655816972,-0.24665670096874
691,1020621168,0.77510923147202,-0.24650411307812,-4.36449384689331,0.05923093110323,0.13852246105671,9.86706256866455,1.30431401729584,0.18509018421173,-0.23277463018894
692,1020637835,0.77502483129501,-0.24631340801716,-4.36527633666992,0.04420074075460,0.13875605165958,9.87036800384521,1.30025434494019,0.12591202557087,-0.26055157184601
693,1020654502,0.77472019195557,-0.24685654044151,-4.36482048034668,0.04838056489825,0.13130018115044,9.85261726379395,1.28797304630280,0.08349739760160,-0.18559601902962
694,1020671169,0.77434593439102,-0.24677878618240,-4.36495304107666,0.04654566571116,0.14275763928890,9.86750030517578,1.28352940082550,0.11986744403839,-0.22852292656898
695,1020687836,0.77452307939529,-0.24658317863941,-4.36446285247803,0.03708792105317,0.12555289268494,9.86902332305908,1.31686425209045,0.12797385454178,-0.19199922680855
696,1020704503,0.77453362941742,-0.24632938206196,-4.36401605606079,0.05908652395010,0.14652231335640,9.85171031951904,1.30697762966156,0.13103456795216,-0.19833834469318
697,1020721170,0.77445805072784,-0.24624401330948,-4.36360406875610,0.05514509603381,0.14076989889145,9.87310886383057,1.30154776573181,0.12089195102453,-0.20531779527664
698,1020737837,0.77443116903305,-0.24387870728970,-4.36314821243286,0.03475495055318,0.12139706313610,9.86828327178955,1.30405783653259,0.25813761353493,-0.19386893510818
699,1020754504,0.77373099327087,-0.24313305318356,-4.36287164688110,0.03463787958026,0.13448867201805,9.86383914947510,1.26425564289093,0.16028429567814,-0.20109172165394
