sep=,
DeviceTag:,Xsens DOT
FirmwareVersion:,3.0.0
AppVersion:,2023.6.0
StartTime: ,2025-03-06_12:40:59_000 PST
© Movella Technologies B. V. 2005-2025

PacketCounter,SampleTimeFine,Euler_X,Euler_Y,Euler_Z,Acc_X,Acc_Y,Acc_Z,Gyr_X,Gyr_Y,Gyr_Z
0,1882967684,3.16254830360413,0.33471024036407,15.71109199523926,0.00000000000000,0.00000000000000,0.00000000000000,0.00000000000000,0.00000000000000,0.00000000000000
1,1882976017,3.16296076774597,0.33487904071808,15.71036720275879,-0.06253730505705,0.56937342882156,9.83113193511963,1.33876633644104,0.09091771394014,-0.42178958654404
2,1882984350,3.16226553916931,0.33430141210556,15.70955848693848,-0.06434697657824,0.52870953083038,9.84854221343994,1.20552134513855,-0.00064035592368,-0.41267096996307
3,1882992683,3.16189575195312,0.33443450927734,15.70924758911133,-0.05219429358840,0.55820786952972,9.85774040222168,1.24404501914978,0.08858682960272,-0.37138080596924
4,1883001016,3.16207981109619,0.33405959606171,15.70998477935791,-0.05304564163089,0.54121977090836,9.84243202209473,1.31097495555878,0.02785548008978,-0.34615078568459
5,1883009349,3.16232943534851,0.33465471863747,15.71029281616211,-0.04733023047447,0.54704952239990,9.84822845458984,1.31714797019958,0.14924132823944,-0.29866197705269
6,1883017682,3.16262888908386,0.33456280827522,15.71075725555420,-0.06646421551704,0.54201382398605,9.85024452209473,1.32552385330200,0.05864379182458,-0.39717429876328
7,1883026015,3.16309428215027,0.33458238840103,15.71141910552979,-0.06453295052052,0.54560452699661,9.85326290130615,1.34342837333679,0.08190152049065,-0.25268444418907
8,1883034348,3.16365456581116,0.33471491932869,15.71134090423584,-0.06513378769159,0.56628340482712,9.86266899108887,1.35464727878571,0.08838192373514,-0.36059716343880
9,1883042681,3.16349744796753,0.33543238043785,15.71128940582275,-0.06979744136333,0.52785122394562,9.84111690521240,1.27006912231445,0.16056282818317,-0.34235987067223
10,1883051014,3.16360902786255,0.33537876605988,15.71247100830078,-0.06471177190542,0.55625516176224,9.86290454864502,1.30062675476074,0.07009334862232,-0.28116744756699
11,1883059347,3.16394567489624,0.33581525087357,15.71288299560547,-0.08325909078121,0.55949538946152,9.81396484375000,1.32893049716949,0.12905731797218,-0.28726363182068
12,1883067680,3.16400027275085,0.33685976266861,15.71298694610596,-0.06954709440470,0.54392361640930,9.83351421356201,1.29586255550385,0.19842065870762,-0.35949578881264
13,1883076013,3.16460323333740,0.33630400896072,15.71282482147217,-0.07112803310156,0.54520392417908,9.85494995117188,1.36005175113678,0.00779953412712,-0.34686794877052
14,1883084346,3.16433691978455,0.33589026331902,15.71207523345947,-0.07680723071098,0.53988945484161,9.84420013427734,1.25710821151733,0.02175929024816,-0.36164736747742
15,1883092679,3.16423368453979,0.33605429530144,15.71211910247803,-0.07071300595999,0.52908146381378,9.83402919769287,1.27508938312531,0.09568197280169,-0.32724744081497
16,1883101012,3.16378021240234,0.33588993549347,15.71046161651611,-0.05279513448477,0.55934518575668,9.84428596496582,1.23482382297516,0.05395638570189,-0.32655584812164
17,1883109345,3.16348075866699,0.33514252305031,15.70987606048584,-0.05044184997678,0.55398052930832,9.84430027008057,1.25254881381989,-0.01785311847925,-0.39837816357613
18,1883117678,3.16327524185181,0.33519685268402,15.70833015441895,-0.05779515579343,0.54790771007538,9.83392715454102,1.26389586925507,0.07462707161903,-0.43195843696594
19,1883126011,3.16300535202026,0.33533799648285,15.70788478851318,-0.04718031734228,0.55101925134659,9.85938644409180,1.25700581073761,0.08930402994156,-0.38843989372253
20,1883134344,3.16271924972534,0.33550873398781,15.70849609375000,-0.03431918844581,0.53755766153336,9.85904979705811,1.25377833843231,0.09196790307760,-0.36700075864792
21,1883142677,3.16241049766541,0.33541336655617,15.70908355712891,-0.04490554705262,0.54914522171021,9.87227535247803,1.25144743919373,0.06763438135386,-0.26195678114891
22,1883151010,3.16193723678589,0.33510369062424,15.70893669128418,-0.05768767744303,0.54072630405426,9.83226203918457,1.23000824451447,0.04414612799883,-0.20184016227722
23,1883159343,3.16188597679138,0.33606293797493,15.70920276641846,-0.06215118244290,0.56733483076096,9.86130905151367,1.28231251239777,0.19165851175785,-0.30770379304886
24,1883167676,3.16169476509094,0.33576321601868,15.70907688140869,-0.06899632513523,0.55244982242584,9.84017276763916,1.26494610309601,0.03556536510587,-0.37394222617149
25,1883176009,3.16098117828369,0.33517062664032,15.70813083648682,-0.09860193729401,0.54613387584686,9.87454223632812,1.20329284667969,-0.00230528111570,-0.44243466854095
26,1883184342,3.16028618812561,0.33584743738174,15.70854377746582,-0.08624897897243,0.54970312118530,9.87072277069092,1.20426607131958,0.15659262239933,-0.28944084048271
27,1883192675,3.16031694412231,0.33596247434616,15.70901393890381,-0.06358864903450,0.55008947849274,9.85529518127441,1.29266083240509,0.09291564673185,-0.27740219235420
28,1883201008,3.16004490852356,0.33609688282013,15.70921707153320,-0.07303052395582,0.55288612842560,9.84998703002930,1.25513601303101,0.09109702706337,-0.30150517821312
29,1883209341,3.15991330146790,0.33542943000793,15.70954132080078,-0.07562700659037,0.55915921926498,9.88346195220947,1.27222061157227,-0.00320177944377,-0.28997874259949
30,1883217674,3.15982103347778,0.33484545350075,15.70966720581055,-0.05243733152747,0.54797220230103,9.84086132049561,1.27711296081543,0.00277914432809,-0.36766675114632
31,1883226007,3.15995335578918,0.33456572890282,15.70993518829346,-0.04602125659585,0.54445302486420,9.86312103271484,1.30480194091797,0.04304471984506,-0.29838019609451
32,1883234340,3.16018795967102,0.33504319190979,15.70933246612549,-0.04700848460197,0.55233538150787,9.84955024719238,1.31596970558167,0.12892924249172,-0.38464897871017
33,1883242673,3.15972113609314,0.33551031351089,15.70817470550537,-0.03441967815161,0.54070484638214,9.86997222900391,1.23379921913147,0.12214147299528,-0.47540020942688
34,1883251006,3.15985441207886,0.33647286891937,15.70892143249512,-0.05848164483905,0.55864417552948,9.86695384979248,1.30329072475433,0.19147923588753,-0.29402583837509
35,1883259339,3.16005182266235,0.33543062210083,15.70878314971924,-0.04716599732637,0.56228488683701,9.84968566894531,1.31194829940796,-0.05048565194011,-0.34218055009842
36,1883267672,3.15960717201233,0.33477652072906,15.70806884765625,-0.04632180929184,0.53608411550522,9.86440658569336,1.23541295528412,-0.00799164082855,-0.39766097068787
37,1883276005,3.15926432609558,0.33496880531311,15.70754814147949,-0.04971225932240,0.56758522987366,9.85885620117188,1.24727213382721,0.09442686289549,-0.39714869856834
38,1883284338,3.15956425666809,0.33414652943611,15.70766925811768,-0.06750853359699,0.53201413154602,9.84552383422852,1.32503712177277,-0.02336017973721,-0.28767344355583
39,1883292671,3.15984487533569,0.33395612239838,15.70923709869385,-0.07559124380350,0.56577557325363,9.83972263336182,1.32045233249664,0.06304943561554,-0.14382392168045
40,1883301004,3.15973281860352,0.33417570590973,15.70869731903076,-0.07674982398748,0.54998934268951,9.84352207183838,1.27478218078613,0.09750058501959,-0.40099087357521
41,1883309337,3.15887808799744,0.33433923125267,15.70779609680176,-0.04586403071880,0.55471014976501,9.87427806854248,1.18738639354706,0.08776717633009,-0.44082102179527
42,1883317670,3.15872359275818,0.33380499482155,15.70804882049561,-0.04764508828521,0.54194945096970,9.86163902282715,1.26996648311615,0.00741532165557,-0.37517169117928
43,1883326003,3.15835428237915,0.33384898304939,15.70885086059570,-0.06971161067486,0.55326527357101,9.84704017639160,1.24343013763428,0.08543627709150,-0.23695729672909
44,1883334336,3.15848159790039,0.33407676219940,15.70921707153320,-0.05810254439712,0.54698503017426,9.85229682922363,1.30290651321411,0.10385292023420,-0.28841629624367
45,1883342669,3.15950846672058,0.33470651507378,15.70972347259521,-0.05862469971180,0.54772895574570,9.84872817993164,1.41112661361694,0.15380066633224,-0.27542987465858
46,1883351002,3.15954637527466,0.33438628911972,15.71144008636475,-0.05158640816808,0.56390863656998,9.88776683807373,1.29263508319855,0.04040645062923,-0.23754639923573
47,1883359335,3.16013741493225,0.33467745780945,15.71205806732178,-0.05688668042421,0.54568314552307,9.86764621734619,1.35951399803162,0.11330458521843,-0.26077854633331
48,1883367668,3.15900659561157,0.33400884270668,15.71304035186768,-0.05258082225919,0.54982465505600,9.85478496551514,1.15249967575073,-0.00686461431906,-0.34522864222527
49,1883376001,3.15853595733643,0.33420678973198,15.71285247802734,-0.04147218167782,0.54779332876205,9.85481548309326,1.23192942142487,0.09760303795338,-0.35624277591705
50,1883384334,3.15824651718140,0.33380535244942,15.71344089508057,-0.07044119387865,0.56061124801636,9.84808444976807,1.25216448307037,0.03069865889847,-0.24617837369442
51,1883392667,3.15794920921326,0.33387103676796,15.71338176727295,-0.03562115877867,0.56019634008408,9.84144687652588,1.25313806533813,0.08243942260742,-0.33895319700241
52,1883401000,3.15766024589539,0.33385765552521,15.71360301971436,-0.04713723435998,0.55845820903778,9.83779811859131,1.25244641304016,0.07467830181122,-0.31128978729248
53,1883409333,3.15754175186157,0.33452436327934,15.71363067626953,-0.06184362247586,0.56394439935684,9.84950637817383,1.27465403079987,0.15380068123341,-0.33467561006546
54,1883417666,3.15681576728821,0.33388960361481,15.71446609497070,-0.05280228704214,0.52888834476471,9.84318447113037,1.20029580593109,0.00190826039761,-0.26428765058517
55,1883425999,3.15648031234741,0.33348402380943,15.71568298339844,-0.07881717383862,0.53956753015518,9.84654617309570,1.24775898456573,0.03436149656773,-0.18455053865910
56,1883434332,3.15683054924011,0.33261430263519,15.71652126312256,-0.07014077901840,0.53993237018585,9.85768318176270,1.33021128177643,-0.03155673667789,-0.35509011149406
57,1883442665,3.15722012519836,0.33233121037483,15.71676063537598,-0.06599928438663,0.56344372034073,9.85588073730469,1.33392524719238,0.04166155308485,-0.30181252956390
58,1883450998,3.15631556510925,0.33205753564835,15.71388816833496,-0.07853821665049,0.55685597658157,9.85784053802490,1.18116199970245,0.03789625316858,-0.39743044972420
59,1883459331,3.15598702430725,0.33199873566628,15.71311378479004,-0.06937542557716,0.54341578483582,9.87729644775391,1.24850177764893,0.06258837878704,-0.42514508962631
60,1883467664,3.15504980087280,0.33185943961143,15.71323299407959,-0.06373898684978,0.54923105239868,9.88307571411133,1.17591106891632,0.05902800336480,-0.29156681895256
61,1883475997,3.15589427947998,0.33175924420357,15.71386814117432,-0.06623532623053,0.55563998222351,9.86035156250000,1.38873994350433,0.06676350533962,-0.25621920824051
62,1883484330,3.15633606910706,0.33094698190689,15.71432209014893,-0.05913970619440,0.57410866022110,9.83668231964111,1.34117400646210,-0.02061945758760,-0.28731483221054
63,1883492663,3.15717077255249,0.33046787977219,15.71493148803711,-0.06351009011269,0.55234253406525,9.85255432128906,1.38779199123383,0.02211789041758,-0.25785848498344
64,1883500996,3.15706133842468,0.33082953095436,15.71506309509277,-0.05584939941764,0.55465292930603,9.87095165252686,1.27601134777069,0.11835057288408,-0.30949676036835
65,1883509329,3.15737819671631,0.33116978406906,15.71498489379883,-0.06787317246199,0.54999649524689,9.85089683532715,1.32547247409821,0.11494388431311,-0.34356373548508
66,1883517662,3.15778040885925,0.33080005645752,15.71575641632080,-0.05131460353732,0.55410921573639,9.82131671905518,1.33661484718323,0.03382360190153,-0.23795627057552
67,1883525995,3.15762138366699,0.33044135570526,15.71592521667480,-0.07791592180729,0.56840783357620,9.83710479736328,1.26901888847351,0.03338815271854,-0.31034204363823
68,1883534328,3.15753197669983,0.33053341507912,15.71589660644531,-0.08290144801140,0.54604804515839,9.85903549194336,1.27680552005768,0.08415556699038,-0.33897876739502
69,1883542661,3.15747594833374,0.33051607012749,15.71514034271240,-0.05837416648865,0.56913030147552,9.84176921844482,1.28195393085480,0.06847965717316,-0.42417171597481
70,1883550994,3.15732049942017,0.33033502101898,15.71507740020752,-0.07715786248446,0.53644168376923,9.84715270996094,1.26960790157318,0.05224023014307,-0.33600753545761
71,1883559327,3.15726709365845,0.33029553294182,15.71469783782959,-0.07301605492830,0.54622691869736,9.86143302917480,1.28200531005859,0.06725017726421,-0.37745139002800
72,1883567660,3.15701103210449,0.32997760176659,15.71187019348145,-0.06004079058766,0.55097639560699,9.85329151153564,1.25795340538025,0.03264534100890,-0.39550936222076
73,1883575993,3.15629863739014,0.32983824610710,15.71202087402344,-0.05622109398246,0.55172032117844,9.85122585296631,1.20334386825562,0.05818273499608,-0.31290352344513
74,1883584326,3.15642309188843,0.32945922017097,15.71167945861816,-0.05191533267498,0.54893779754639,9.83669662475586,1.30282962322235,0.02575511299074,-0.39189776778221
75,1883592659,3.15664505958557,0.32982170581818,15.71167945861816,-0.05808823928237,0.54322981834412,9.86100959777832,1.31507337093353,0.11911899596453,-0.33436819911003
76,1883600992,3.15676045417786,0.32988011837006,15.71153259277344,-0.04825323075056,0.58911520242691,9.82980060577393,1.30101096630096,0.07931447774172,-0.35206764936447
77,1883609325,3.15710902214050,0.33017337322235,15.71168231964111,-0.06767304986715,0.54267191886902,9.83794116973877,1.33008313179016,0.11140911281109,-0.31641262769699
78,1883617658,3.15625953674316,0.33016109466553,15.71209239959717,-0.04870370775461,0.54996776580811,9.84387874603271,1.18615674972534,0.07239863276482,-0.30903571844101
79,1883625991,3.15663766860962,0.33115792274475,15.71236515045166,-0.06665734201670,0.55088335275650,9.85157489776611,1.33436071872711,0.19598729908466,-0.30714026093483
80,1883634324,3.15661144256592,0.33212229609489,15.71353340148926,-0.06964729726315,0.55270010232925,9.84787559509277,1.28336274623871,0.20046980679035,-0.16411039233208
81,1883642657,3.15665864944458,0.33177161216736,15.71379280090332,-0.03506323695183,0.55627661943436,9.84770488739014,1.29453063011169,0.03482255339622,-0.29853388667107
82,1883650990,3.15637969970703,0.33171787858009,15.71375560760498,-0.07358147948980,0.51985430717468,9.84664726257324,1.25421392917633,0.06174311041832,-0.41879272460938
83,1883659323,3.15720534324646,0.33214667439461,15.71422672271729,-0.04969795420766,0.55008220672607,9.87545108795166,1.38766396045685,0.12990258634090,-0.27845233678818
84,1883667656,3.15751934051514,0.33199107646942,15.71535015106201,-0.07456123828888,0.55254280567169,9.86203193664551,1.32583117485046,0.05802904069424,-0.26982033252716
85,1883675989,3.15786004066467,0.33207237720490,15.71611499786377,-0.06664292514324,0.56581139564514,9.83408737182617,1.32905864715576,0.09058474749327,-0.24051764607430
86,1883684322,3.15724205970764,0.33222493529320,15.71620082855225,-0.07252983003855,0.56011050939560,9.85065174102783,1.21353828907013,0.09068719297647,-0.35345083475113
87,1883692655,3.15746116638184,0.33235862851143,15.71626186370850,-0.03782437369227,0.54549002647400,9.85848999023438,1.31443285942078,0.09155808389187,-0.32550567388535
88,1883700988,3.15690875053406,0.33172026276588,15.71670055389404,-0.06237278878689,0.58107548952103,9.85330581665039,1.22204232215881,-0.00028175656917,-0.30199182033539
89,1883709321,3.15701937675476,0.33107665181160,15.71669197082520,-0.06036269292235,0.53165656328201,9.86435794830322,1.30129265785217,-0.00215159566142,-0.32914289832115
90,1883717654,3.15636944770813,0.33211040496826,15.71650123596191,-0.06552004069090,0.56262117624283,9.85886383056641,1.20967054367065,0.19857433438301,-0.31505507230759
91,1883725987,3.15670013427734,0.33172735571861,15.71694469451904,-0.05537731200457,0.54422408342361,9.86646747589111,1.32795715332031,0.03218428045511,-0.27688986063004
92,1883734320,3.15632820129395,0.33161634206772,15.71760749816895,-0.06295194476843,0.57233482599258,9.85439395904541,1.24248266220093,0.06374102830887,-0.25962588191032
93,1883742653,3.15636181831360,0.33201462030411,15.71656608581543,-0.08697856962681,0.53853040933609,9.87048721313477,1.29378783702850,0.11578914523125,-0.46056947112083
94,1883750986,3.18288946151733,0.33816474676132,15.71744346618652,-0.06747992336750,0.53087687492371,9.87363433837891,1.27877783775330,0.09642478823662,-0.22937546670437
95,1883759319,3.18351244926453,0.33772951364517,15.71714973449707,-0.06648567318916,0.55047565698624,9.84221935272217,1.36312544345856,0.01991506852210,-0.36602741479874
96,1883767652,3.18395614624023,0.33692488074303,15.71928787231445,-0.03842507302761,0.54044020175934,9.85314846038818,1.33825409412384,-0.01270466018468,-0.15478681027889
97,1883775985,3.18440556526184,0.33668616414070,15.71899795532227,-0.04605000466108,0.56443798542023,9.86185359954834,1.33989334106445,0.04437666013837,-0.36579686403275
98,1883784318,3.18463730812073,0.33598864078522,15.71842384338379,-0.05715121701360,0.55249273777008,9.87135219573975,1.31489396095276,-0.01137271989137,-0.34937816858292
99,1883792651,3.18515634536743,0.33622154593468,15.71810245513916,-0.08184998482466,0.55033975839615,9.82258415222168,1.34931945800781,0.09990832209587,-0.37286642193794
100,1883800984,3.18532538414001,0.33546733856201,15.71689414978027,-0.07083460688591,0.55130535364151,9.81784248352051,1.30692791938782,-0.02420544996858,-0.47686013579369
101,1883809317,3.18592309951782,0.33490377664566,15.71757698059082,-0.05923280864954,0.56845784187317,9.85997104644775,1.35682451725006,0.01095008570701,-0.24717737734318
102,1883817650,3.18586206436157,0.33429756760597,15.71821403503418,-0.07735799998045,0.55176317691803,9.85626697540283,1.28059649467468,-0.00087088393047,-0.35693433880806
103,1883825983,3.18573403358459,0.33429276943207,15.71894645690918,-0.06384627521038,0.53745746612549,9.86614513397217,1.27009463310242,0.07805937528610,-0.24517942965031
104,1883834316,3.18508291244507,0.33471694588661,15.71883392333984,-0.06006242334843,0.55054003000259,9.80943775177002,1.20787763595581,0.12547130882740,-0.32911726832390
105,1883842649,3.18472242355347,0.33430626988411,15.71829414367676,-0.05170790106058,0.54422408342361,9.84618854522705,1.24327647686005,0.02219473384321,-0.39584240317345
106,1883850982,3.18452596664429,0.33436682820320,15.71880626678467,-0.05672945454717,0.56820744276047,9.85845470428467,1.26307630538940,0.08249064534903,-0.30040374398232
107,1883859315,3.18444013595581,0.33420178294182,15.72000503540039,-0.04138635098934,0.56042522192001,9.86011505126953,1.27521753311157,0.06292136758566,-0.18721443414688
108,1883867648,3.18456387519836,0.33394610881805,15.71971797943115,-0.05378952622414,0.56178420782089,9.84776115417480,1.30129277706146,0.04266050830483,-0.33172994852066
109,1883875981,3.18481206893921,0.33380261063576,15.71915626525879,-0.07595603913069,0.57419449090958,9.84424304962158,1.31599545478821,0.05382831767201,-0.39917221665382
110,1883884314,3.18499088287354,0.33449923992157,15.71808242797852,-0.05258055031300,0.54156321287155,9.83419322967529,1.30977106094360,0.14954869449139,-0.45203995704651
111,1883892647,3.18483448028564,0.33466446399689,15.71768569946289,-0.07032675296068,0.56375849246979,9.87740421295166,1.26694405078888,0.09207036346197,-0.38111415505409
112,1883900980,3.18609929084778,0.33361172676086,15.71803665161133,-0.08622736483812,0.53735023736954,9.83209133148193,1.43912291526794,-0.05125408247113,-0.31103363633156
113,1883909313,3.18653774261475,0.33340930938721,15.71848869323730,-0.06845283508301,0.55077600479126,9.85941982269287,1.33702456951141,0.05267567187548,-0.27858042716980
114,1883917646,3.18699312210083,0.33331352472305,15.71932220458984,-0.06135696172714,0.55143421888351,9.87266254425049,1.34119975566864,0.06555964052677,-0.27650567889214
115,1883925979,3.18703818321228,0.33452123403549,15.71920585632324,-0.07041273266077,0.55535382032394,9.87077903747559,1.29179000854492,0.21763134002686,-0.35514137148857
116,1883934312,3.18733978271484,0.33444243669510,15.71780872344971,-0.04377539828420,0.54515391588211,9.87609481811523,1.32411491870880,0.05928414314985,-0.44873574376106
117,1883942645,3.18763351440430,0.33438876271248,15.71812534332275,-0.08128504455090,0.52631324529648,9.87110805511475,1.32073402404785,0.07001651823521,-0.29348793625832
118,1883950978,3.18774056434631,0.33394524455070,15.71888160705566,-0.06862422078848,0.55404496192932,9.82403755187988,1.29957664012909,0.01853189803660,-0.35314345359802
119,1883959311,3.18717312812805,0.33393785357475,15.71835422515869,-0.05509867891669,0.55445253849030,9.84837627410889,1.21881496906281,0.06991405040026,-0.39699500799179
120,1883967644,3.18701052665710,0.33427426218987,15.71899890899658,-0.04971225932240,0.56445229053497,9.84103870391846,1.26661121845245,0.11645513027906,-0.29323175549507
121,1883975977,3.18753170967102,0.33414375782013,15.71887111663818,-0.04332492873073,0.55125522613525,9.85710239410400,1.34857666492462,0.05810589343309,-0.34766203165054
122,1883984310,3.18633937835693,0.33474507927895,15.71821689605713,-0.04886081069708,0.55426675081253,9.86103916168213,1.14332973957062,0.14601394534111,-0.34348687529564
123,1883992643,3.18628406524658,0.33544015884399,15.71857738494873,-0.05965470895171,0.55064016580582,9.83071708679199,1.27900838851929,0.15923088788986,-0.29379528760910
124,1884000976,3.18639564514160,0.33529013395309,15.72043323516846,-0.05833143368363,0.53706407546997,9.83185482025146,1.29996073246002,0.06440699100494,-0.16095983982086
125,1884009309,3.18569517135620,0.33527797460556,15.72035312652588,-0.04995545372367,0.57187694311142,9.84101009368896,1.20165348052979,0.07319267839193,-0.34125843644142
126,1884017642,3.18574786186218,0.33541709184647,15.72121238708496,-0.05742302164435,0.54477483034134,9.84372806549072,1.29358303546906,0.08848438411951,-0.35678073763847
127,1884025975,3.18538498878479,0.33578562736511,15.72057151794434,-0.06969729810953,0.56875830888748,9.83134651184082,1.24232876300812,0.11489265412092,-0.41074991226196
128,1884034308,3.18497467041016,0.33569452166557,15.72031211853027,-0.05578468739986,0.53747183084488,9.87237644195557,1.23751318454742,0.05851572006941,-0.39909535646439
129,1884042641,3.18443179130554,0.33522230386734,15.72117805480957,-0.06248008459806,0.52815878391266,9.85144615173340,1.22058236598969,0.02421825937927,-0.22635297477245
130,1884050974,3.18447160720825,0.33581027388573,15.72150421142578,-0.06923951953650,0.54693496227264,9.82861423492432,1.29076528549194,0.14340129494667,-0.33890193700790
131,1884059307,3.18438315391541,0.33594447374344,15.72192764282227,-0.06677894294262,0.53488242626190,9.84666824340820,1.27598583698273,0.09360720962286,-0.28114181756973
132,1884067640,3.18378853797913,0.33649834990501,15.72136402130127,-0.06058457866311,0.57061803340912,9.87511444091797,1.21584379673004,0.13538403809071,-0.41694849729538
133,1884075973,3.18396306037903,0.33709686994553,15.72110462188721,-0.07108478993177,0.52883833646774,9.84044647216797,1.30667173862457,0.14422093331814,-0.36669337749481
134,1884084306,3.18376541137695,0.33744245767593,15.72106361389160,-0.05981207266450,0.53893095254898,9.85196113586426,1.26258969306946,0.11309966444969,-0.39189779758453
135,1884092639,3.18394136428833,0.33771565556526,15.72105693817139,-0.05204394087195,0.52517610788345,9.86426544189453,1.30808055400848,0.10643994808197,-0.33472684025764
136,1884100972,3.18362903594971,0.33760267496109,15.72212600708008,-0.04882530495524,0.55224239826202,9.82788467407227,1.24781024456024,0.06407400220633,-0.25501531362534
137,1884109305,3.18410658836365,0.33788305521011,15.72157287597656,-0.06887491047382,0.56424480676651,9.83392715454102,1.34463214874268,0.10469818860292,-0.40183612704277
138,1884117638,3.18411374092102,0.33871871232986,15.72223854064941,-0.05852456018329,0.53476798534393,9.85146045684814,1.28638529777527,0.17634120583534,-0.27706915140152
139,1884125971,3.18415379524231,0.33869749307632,15.72193431854248,-0.05785202980042,0.53753620386124,9.86651802062988,1.29122650623322,0.07032389193773,-0.36951097846031
140,1884134304,3.18394637107849,0.33903804421425,15.72103977203369,-0.06211528927088,0.52651363611221,9.86347675323486,1.26230788230896,0.10979541391134,-0.41904890537262
141,1884142637,3.18363785743713,0.33818358182907,15.72139358520508,-0.07234385609627,0.55748540163040,9.84450817108154,1.24850189685822,-0.02551177889109,-0.28513768315315
142,1884150970,3.18377041816711,0.33776208758354,15.72177219390869,-0.06013381481171,0.53983229398727,9.85192680358887,1.30336761474609,0.02462808787823,-0.30229920148849
143,1884159303,3.18353104591370,0.33733868598938,15.72253417968750,-0.06945410370827,0.53443181514740,9.83382129669189,1.25598120689392,0.02859829179943,-0.23931379616261
144,1884167636,3.18331384658813,0.33755731582642,15.72224521636963,-0.07068439573050,0.56283575296402,9.86155986785889,1.26115524768829,0.09842269867659,-0.36110946536064
145,1884175969,3.18360114097595,0.33707225322723,15.72129917144775,-0.06111389026046,0.53624147176743,9.84315586090088,1.32119500637054,0.01020727306604,-0.44243466854095
146,1884184302,3.18449735641479,0.33630907535553,15.72250461578369,-0.05137171968818,0.55981010198593,9.84042358398438,1.39322245121002,-0.01393414475024,-0.24909844994545
147,1884192635,3.18474984169006,0.33640506863594,15.72263431549072,-0.06711512804031,0.55148416757584,9.86097335815430,1.31645643711090,0.08758787065744,-0.31943511962891
148,1884200968,3.18563485145569,0.33559784293175,15.72329711914062,-0.06084923446178,0.57464510202408,9.88788986206055,1.39286351203918,-0.02523002028465,-0.35616591572762
149,1884209301,3.18541717529297,0.33415526151657,15.72305488586426,-0.04828884452581,0.56031793355942,9.86500740051270,1.26005375385284,-0.10002359002829,-0.35199084877968
150,1884217634,3.18521332740784,0.33389893174171,15.72315883636475,-0.05552751943469,0.52991837263107,9.84374237060547,1.26294815540314,0.04412051290274,-0.30611571669579
151,1884225967,3.18611454963684,0.33401656150818,15.72361469268799,-0.07755814492702,0.54682773351669,9.84824275970459,1.39329922199249,0.09140439331532,-0.27811938524246
152,1884234300,3.18684530258179,0.33347231149673,15.72404861450195,-0.05572793260217,0.56506735086441,9.83841991424561,1.37403714656830,0.01020727306604,-0.28516325354576
153,1884242633,3.18663573265076,0.33321654796600,15.72443962097168,-0.06331696361303,0.54632699489594,9.83457279205322,1.26102721691132,0.04716860875487,-0.28498396277428
154,1884250966,3.18616557121277,0.33310240507126,15.72525024414062,-0.06973326951265,0.56563246250153,9.83285427093506,1.22867631912231,0.06507296115160,-0.24210573732853
155,1884259299,3.18630266189575,0.33280977606773,15.72493934631348,-0.08357381820679,0.55888736248016,9.85650348663330,1.30326497554779,0.03664116561413,-0.36787161231041
156,1884267632,3.18593573570251,0.33251169323921,15.72404193878174,-0.07524790614843,0.54767173528671,9.85628890991211,1.24319970607758,0.03479693457484,-0.41561657190323
157,1884275965,3.18611335754395,0.33221709728241,15.72375679016113,-0.06901063024998,0.54669892787933,9.87212467193604,1.30790114402771,0.03676922991872,-0.36469545960426
158,1884284298,3.18693614006042,0.33192384243011,15.72244644165039,-0.06838117539883,0.54958152770996,9.86770439147949,1.38482081890106,0.03679484874010,-0.35493648052216
159,1884292631,3.18662500381470,0.33119863271713,15.72205066680908,-0.06594920903444,0.55516076087952,9.87583732604980,1.24978256225586,-0.01518924161792,-0.37704151868820
160,1884300964,3.18694901466370,0.33114483952522,15.72259712219238,-0.06548427790403,0.55795753002167,9.85196113586426,1.32396149635315,0.07209126651287,-0.26036870479584
161,1884309297,3.18661260604858,0.33096310496330,15.72121238708496,-0.07072731107473,0.54152745008469,9.87240409851074,1.24681138992310,0.04250682517886,-0.49735164642334
162,1884317630,3.18674373626709,0.33089357614517,15.72107887268066,-0.05323145911098,0.52928179502487,9.83076000213623,1.30288076400757,0.06345926225185,-0.35672944784164
163,1884325963,3.18698716163635,0.33124238252640,15.72125816345215,-0.06738707423210,0.53217858076096,9.85890483856201,1.31540620326996,0.11812003701925,-0.31400489807129
164,1884334296,3.18696928024292,0.33080849051476,15.72194099426270,-0.04902558401227,0.54246443510056,9.84824180603027,1.28413116931915,0.02467931434512,-0.27970743179321
165,1884342629,3.18692159652710,0.33061525225639,15.72169876098633,-0.06652859598398,0.55813634395599,9.86245441436768,1.28051960468292,0.04929459467530,-0.35998246073723
166,1884350962,3.18644881248474,0.33059608936310,15.72157764434814,-0.06963292509317,0.53977501392365,9.83466529846191,1.23052084445953,0.06671228259802,-0.41044253110886
167,1884359295,3.18633127212524,0.33089166879654,15.72106742858887,-0.05046314001083,0.55843681097031,9.85017395019531,1.27170836925507,0.10661926120520,-0.39492028951645
168,1884367628,3.18577027320862,0.33066591620445,15.72066783905029,-0.06848847121000,0.55284321308136,9.85632419586182,1.21983945369720,0.04745036363602,-0.32524952292442
169,1884375961,3.18590784072876,0.32977929711342,15.72066116333008,-0.07582028210163,0.55307203531265,9.84769630432129,1.30259907245636,-0.03135182335973,-0.32834887504578
170,1884384294,3.18583488464355,0.33027347922325,15.72156238555908,-0.04837467521429,0.56104755401611,9.88378429412842,1.27762520313263,0.13786861300468,-0.22356103360653
171,1884392627,3.18612575531006,0.32996448874474,15.72148036956787,-0.08215770870447,0.55280739068985,9.84946346282959,1.32055449485779,0.03687169030309,-0.34077176451683
172,1884400960,3.18592119216919,0.33019560575485,15.72130107879639,-0.06785886734724,0.54989635944366,9.88089561462402,1.26264095306396,0.09962657094002,-0.36098140478134
173,1884409293,3.18602919578552,0.33037215471268,15.72114753723145,-0.05549875646830,0.55327963829041,9.84979534149170,1.29842400550842,0.09442687779665,-0.35201641917229
174,1884417626,3.18655252456665,0.32972908020020,15.72150897979736,-0.04938308894634,0.52835196256638,9.85467338562012,1.34885823726654,-0.00043544196524,-0.29991707205772
175,1884425959,3.18701505661011,0.32991015911102,15.72170352935791,-0.05744448304176,0.55792891979218,9.86114501953125,1.34168624877930,0.09701391309500,-0.31052133440971
176,1884434292,3.18688821792603,0.32985725998878,15.72209835052490,-0.04351789504290,0.54166334867477,9.87005043029785,1.27160573005676,0.07101546227932,-0.27458459138870
177,1884442625,3.18609356880188,0.33012282848358,15.72197532653809,-0.04583513364196,0.55092632770538,9.84410858154297,1.19048559665680,0.10515923798084,-0.34922444820404
178,1884450958,3.18631672859192,0.32980364561081,15.72165107727051,-0.05866745114326,0.53828728199005,9.85420131683350,1.31317770481110,0.03259411454201,-0.37312257289886
179,1884459291,3.18607950210571,0.32963398098946,15.72239398956299,-0.04042071476579,0.54271483421326,9.85146045684814,1.25733876228333,0.05825957283378,-0.24154224991798
180,1884467624,3.18598580360413,0.32924368977547,15.72327995300293,-0.04311733692884,0.55624085664749,9.83963680267334,1.27557599544525,0.02957163378596,-0.29090088605881
181,1884475957,3.18604397773743,0.32956397533417,15.72330093383789,-0.05651461333036,0.54941701889038,9.85556602478027,1.29363405704498,0.11356071382761,-0.33129450678825
182,1884484290,3.18543815612793,0.33015626668930,15.72358417510986,-0.05227274820209,0.53406709432602,9.86701202392578,1.21371793746948,0.14675678312778,-0.28139799833298
183,1884492623,3.18551564216614,0.33056473731995,15.72382640838623,-0.05491966381669,0.54406660795212,9.85055065155029,1.29453051090240,0.12495904415846,-0.30673044919968
184,1884500956,3.18510913848877,0.33129674196243,15.72399425506592,-0.08280846476555,0.55368727445602,9.87176704406738,1.23766696453094,0.16215090453625,-0.32296988368034
185,1884509289,3.18514919281006,0.33141067624092,15.72360420227051,-0.06519100815058,0.53320866823196,9.83691120147705,1.29143130779266,0.08607662469149,-0.37929555773735
186,1884517622,3.18466448783875,0.33133646845818,15.72352981567383,-0.06075624749064,0.53903108835220,9.83691120147705,1.22770309448242,0.06563647836447,-0.32425060868263
187,1884525955,3.18461775779724,0.33189123868942,15.72449398040771,-0.07062020152807,0.55136251449585,9.86324024200439,1.28013539314270,0.14596271514893,-0.22071786224842
188,1884534288,3.18455886840820,0.33181285858154,15.72464656829834,-0.06748707592487,0.57900118827820,9.85556602478027,1.27972555160522,0.06402278691530,-0.34732902050018
189,1884542621,3.18376469612122,0.33202710747719,15.72369861602783,-0.05554897710681,0.54343008995056,9.85206127166748,1.19117724895477,0.09360722452402,-0.44822347164154
190,1884550954,3.18364810943604,0.33171835541725,15.72359752655029,-0.05055614188313,0.55208510160446,9.84119033813477,1.27316844463348,0.03612887859344,-0.34948059916496
191,1884559287,3.18331003189087,0.33117204904556,15.72295093536377,-0.07532659173012,0.55641967058182,9.86789035797119,1.24540257453918,0.00362441455945,-0.40762495994568
192,1884567620,3.18292236328125,0.33114126324654,15.72250652313232,-0.07235100865364,0.54885196685791,9.86694622039795,1.24058699607849,0.06812104582787,-0.38096046447754
193,1884575953,3.18358516693115,0.33129045367241,15.72292137145996,-0.06643573939800,0.54840123653412,9.84559345245361,1.36489295959473,0.09468302875757,-0.28467667102814
194,1884584286,3.18356847763062,0.33196878433228,15.72336578369141,-0.05372500419617,0.56479561328888,9.85472202301025,1.28510463237762,0.15994808077812,-0.24289977550507
195,1884592619,3.18380212783813,0.33247479796410,15.72278118133545,-0.04740189015865,0.54927396774292,9.87583732604980,1.31397175788879,0.13128575682640,-0.40537086129189
196,1884600952,3.18362164497375,0.33202427625656,15.72207927703857,-0.07996863871813,0.52056246995926,9.86045169830322,1.26466441154480,0.01801961287856,-0.34822550415993
197,1884609285,3.18386363983154,0.33255892992020,15.72096443176270,-0.06715089082718,0.54250735044479,9.84216213226318,1.31573927402496,0.13179805874825,-0.46917593479156
198,1884617618,3.18442273139954,0.33292782306671,15.72223472595215,-0.06701489537954,0.54820823669434,9.84063911437988,1.35336661338806,0.12611168622971,-0.18990394473076
199,1884625951,3.18377900123596,0.33279135823250,15.72254371643066,-0.07378157228231,0.55771434307098,9.84038734436035,1.20862042903900,0.06087222695351,-0.29484546184540
200,1884634284,3.18410897254944,0.33298513293266,15.72100257873535,-0.07610625028610,0.54465323686600,9.86143875122070,1.32590830326080,0.09140440076590,-0.42022716999054
201,1884642617,3.18426156044006,0.33283853530884,15.72115612030029,-0.08992554247379,0.53571218252182,9.84502315521240,1.30485308170319,0.05708131939173,-0.31485015153885
202,1884650950,3.18377304077148,0.33239832520485,15.72065067291260,-0.07998309284449,0.53634876012802,9.83465099334717,1.22775435447693,0.01945401169360,-0.36367091536522
203,1884659283,3.18386292457581,0.33265933394432,15.72076320648193,-0.07560569047928,0.53170651197433,9.85402011871338,1.29693841934204,0.10608135163784,-0.32117688655853
204,1884667616,3.18342614173889,0.33290272951126,15.72196197509766,-0.06582046300173,0.55436676740646,9.84158992767334,1.23313319683075,0.11502072215080,-0.13227191567421
205,1884675949,3.18382191658020,0.33218556642532,15.72143936157227,-0.06145007535815,0.54110538959503,9.86600971221924,1.33372032642365,-0.01595766842365,-0.38997673988342
206,1884684282,3.18340563774109,0.33167332410812,15.72205066680908,-0.06003380939364,0.55163443088531,9.85875606536865,1.23577165603638,0.01960769668221,-0.20522125065327
207,1884692615,3.18400478363037,0.33149334788322,15.72199249267578,-0.05404703691602,0.54548287391663,9.86484909057617,1.35754168033600,0.05195847526193,-0.33844086527824
208,1884700948,3.18436026573181,0.33162495493889,15.72236824035645,-0.05373215675354,0.52664238214493,9.87026500701904,1.33010876178741,0.08599979430437,-0.39842939376831
209,1884709281,3.18524575233459,0.33094203472137,15.72254085540771,-0.05138617008924,0.54757153987885,9.82982921600342,1.39176225662231,-0.00612180167809,-0.30755010247231
210,1884717614,3.18571925163269,0.33143532276154,15.72216701507568,-0.06317391246557,0.55993169546127,9.81925106048584,1.34365868568420,0.13113205134869,-0.36513090133667
211,1884725947,3.18554353713989,0.33099752664566,15.72162723541260,-0.07046283036470,0.55633378028870,9.86871337890625,1.26512539386749,0.01840382628143,-0.39530450105667
212,1884734280,3.18525981903076,0.33095410466194,15.72197246551514,-0.07724355161190,0.53574079275131,9.82066059112549,1.25316357612610,0.06555963307619,-0.36515647172928
213,1884742613,3.18524670600891,0.33094021677971,15.72212219238281,-0.07466137409210,0.55327957868576,9.88497829437256,1.28400301933289,0.07488320767879,-0.31405612826347
214,1884750946,3.18560433387756,0.33119514584541,15.72266674041748,-0.08820886164904,0.55000352859497,9.86060905456543,1.32939159870148,0.10661924630404,-0.28101378679276
215,1884759279,3.18627667427063,0.33136814832687,15.72372436523438,-0.08580550551414,0.56074714660645,9.85902118682861,1.36637866497040,0.10147079825401,-0.20878162980080
216,1884767612,3.18600201606750,0.33072507381439,15.72506141662598,-0.08843059837818,0.56159830093384,9.84585285186768,1.25283062458038,0.00239493092522,-0.23370428383350
217,1884775945,3.18628549575806,0.33155864477158,15.72499275207520,-0.06876027584076,0.55448836088181,9.83147525787354,1.32058024406433,0.17434328794479,-0.34571531414986
218,1884784278,3.18642544746399,0.33204561471939,15.72594738006592,-0.06619970500469,0.55163431167603,9.86412715911865,1.30293202400208,0.13289943337440,-0.32409691810608
219,1884792611,3.18680047988892,0.33186075091362,15.72566699981689,-0.05943280458450,0.54564040899277,9.85645389556885,1.33169686794281,0.04978126287460,-0.36520770192146
220,1884800944,3.18719267845154,0.33147427439690,15.72655487060547,-0.05920390412211,0.57555359601974,9.86568164825439,1.33400213718414,0.02409018948674,-0.39223080873489
221,1884809277,3.18716669082642,0.33118233084679,15.72613525390625,-0.04446922615170,0.55664139986038,9.84633159637451,1.28262007236481,0.03592396900058,-0.38055071234703
222,1884817610,3.18723773956299,0.33153319358826,15.72737503051758,-0.05075657367706,0.55905187129974,9.83682537078857,1.29558086395264,0.12016917765141,-0.25586056709290
223,1884825943,3.18670630455017,0.33071967959404,15.72769546508789,-0.04981215670705,0.54891639947891,9.86835670471191,1.22168385982513,-0.02090121619403,-0.28851875662804
224,1884834276,3.18583083152771,0.33024635910988,15.72850513458252,-0.04532756656408,0.55248558521271,9.85544490814209,1.18144381046295,0.01963331177831,-0.26715645194054
225,1884842609,3.18573880195618,0.33073997497559,15.72815132141113,-0.05709415301681,0.54404515028000,9.85818958282471,1.27424407005310,0.13174681365490,-0.37814298272133
226,1884850942,3.18594384193420,0.33116856217384,15.72900676727295,-0.07052703201771,0.55173456668854,9.86110210418701,1.31151282787323,0.12954398989677,-0.25276130437851
227,1884859275,3.18584609031677,0.33125063776970,15.72944450378418,-0.07735084742308,0.55189907550812,9.86417770385742,1.27414155006409,0.08786963671446,-0.28229448199272
228,1884867608,3.18580126762390,0.33182728290558,15.72816371917725,-0.07222206145525,0.55080473423004,9.82942390441895,1.28151857852936,0.13684405386448,-0.43357220292091
229,1884875941,3.18650579452515,0.33167207241058,15.72788333892822,-0.07803036272526,0.53679943084717,9.85128879547119,1.37127089500427,0.05321357771754,-0.36548951268196
230,1884884274,3.18658328056335,0.33154892921448,15.72814464569092,-0.08049093931913,0.55319374799728,9.85395717620850,1.29524779319763,0.05910484120250,-0.31974250078201
231,1884892607,3.18673968315125,0.33145976066589,15.72845554351807,-0.08124198764563,0.55253565311432,9.84700393676758,1.30510938167572,0.06725017726421,-0.29576757550240
232,1884900940,3.18640422821045,0.33096659183502,15.72790431976318,-0.06904639303684,0.56448090076447,9.85575199127197,1.24640166759491,0.00923393294215,-0.42022716999054
233,1884909273,3.18635487556458,0.33067589998245,15.72729301452637,-0.08122070878744,0.55935937166214,9.84364128112793,1.28018677234650,0.03461764007807,-0.40555021166801
234,1884917606,3.18607521057129,0.33119994401932,15.72880363464355,-0.05594238638878,0.55260002613068,9.87369155883789,1.25285613536835,0.14268410205841,-0.23262847959995
235,1884925939,3.18546533584595,0.33179822564125,15.72842788696289,-0.07157850265503,0.56071853637695,9.84921455383301,1.21361529827118,0.14265848696232,-0.38172891736031
236,1884934272,3.18591022491455,0.33137053251266,15.72704696655273,-0.04425480961800,0.55391609668732,9.82618141174316,1.34048259258270,0.02063226513565,-0.37570959329605
237,1884942605,3.18597602844238,0.33195891976357,15.72697544097900,-0.04653639718890,0.55202066898346,9.85509395599365,1.29350614547729,0.14429779350758,-0.34499815106392
238,1884950938,3.18605566024780,0.33223989605904,15.72748088836670,-0.02654420025647,0.54938840866089,9.84104537963867,1.29550385475159,0.11071752756834,-0.28329342603683
239,1884959271,3.18636155128479,0.33160975575447,15.72810935974121,-0.06403224915266,0.56400167942047,9.82601070404053,1.32234764099121,0.00208756024949,-0.25370898842812
240,1884967604,3.18648958206177,0.33179852366447,15.72813606262207,-0.06377474963665,0.57252788543701,9.86456394195557,1.30142080783844,0.09780795127153,-0.31633579730988
241,1884975937,3.18620371818542,0.33109346032143,15.72865009307861,-0.07224371284246,0.56921607255936,9.89064407348633,1.25213897228241,-0.00676215859130,-0.26492801308632
242,1884984270,3.18641185760498,0.33082070946693,15.72845554351807,-0.06434714049101,0.52963936328888,9.86195278167725,1.31197392940521,0.03899767249823,-0.35637083649635
243,1884992603,3.18703818321228,0.32965159416199,15.72820472717285,-0.09225021302700,0.56021064519882,9.85190391540527,1.36092269420624,-0.06667385250330,-0.35414239764214
244,1885000936,3.18756008148193,0.32987156510353,15.72802352905273,-0.07197190821171,0.53212857246399,9.86098766326904,1.34875583648682,0.09834586083889,-0.34289774298668
245,1885009269,3.18697047233582,0.33080425858498,15.72687625885010,-0.07817342132330,0.56744217872620,9.83148956298828,1.21653521060944,0.17941489815712,-0.47724437713623
246,1885017602,3.18711495399475,0.33072078227997,15.72527599334717,-0.06153590977192,0.56955945491791,9.85513687133789,1.30311131477356,0.06158941611648,-0.36904987692833
247,1885025935,3.18719339370728,0.33026301860809,15.72524929046631,-0.07375311106443,0.53770059347153,9.83726119995117,1.29570889472961,0.01945401169360,-0.33390715718269
248,1885034268,3.18707084655762,0.32985138893127,15.72442722320557,-0.04632911458611,0.54596930742264,9.82831287384033,1.27296340465546,0.02373158931732,-0.34018263220787
249,1885042601,3.18726515769958,0.33007594943047,15.72470092773438,-0.06268751621246,0.52824461460114,9.85851287841797,1.30815732479095,0.10270027816296,-0.30219677090645
250,1885050934,3.18788123130798,0.32973730564117,15.72570133209229,-0.04727302119136,0.55001795291901,9.86136150360107,1.36130690574646,0.03702537715435,-0.25829392671585
251,1885059267,3.18813180923462,0.32935446500778,15.72609710693359,-0.04316025599837,0.53620570898056,9.86474323272705,1.31599545478821,0.03051936626434,-0.28347274661064
252,1885067600,3.18803524971008,0.32926505804062,15.72443294525146,-0.04670112952590,0.55348694324493,9.82789039611816,1.27498698234558,0.05395638570189,-0.49519997835159
253,1885075933,3.18853878974915,0.33023518323898,15.72450637817383,-0.04707301035523,0.52823740243912,9.86529254913330,1.34627127647400,0.19106936454773,-0.33009064197540
254,1885084266,3.18948173522949,0.33028000593185,15.72364521026611,-0.06212959438562,0.53607696294785,9.87025070190430,1.40098333358765,0.07444776594639,-0.40444871783257
255,1885092599,3.18931174278259,0.33013346791267,15.72381973266602,-0.05700815841556,0.55641967058182,9.86872768402100,1.26466441154480,0.05728623270988,-0.31039327383041
256,1885100932,3.18858981132507,0.33073407411575,15.72364521026611,-0.07059855759144,0.55195629596710,9.86044406890869,1.19978356361389,0.14867782592773,-0.29481983184814
257,1885109265,3.18871140480042,0.33076968789101,15.72347164154053,-0.08430340886116,0.54993915557861,9.84729003906250,1.30147206783295,0.07682989537716,-0.35398873686790
258,1885117598,3.18804216384888,0.33010724186897,15.72328186035156,-0.06895340979099,0.54398798942566,9.86042308807373,1.20628964900970,-0.00753058539703,-0.37409594655037
259,1885125931,3.18791389465332,0.33110433816910,15.72317790985107,-0.06016986444592,0.54319399595261,9.86044979095459,1.27073490619659,0.19373326003551,-0.35250309109688
260,1885134264,3.18755483627319,0.33112967014313,15.72335529327393,-0.07662125676870,0.53433883190155,9.84227657318115,1.24322533607483,0.07608707994223,-0.33132013678551
261,1885142597,3.18770861625671,0.33144626021385,15.72332572937012,-0.04926878213882,0.54253596067429,9.83333492279053,1.30528855323792,0.11263860017061,-0.33782616257668
262,1885150930,3.18758964538574,0.33086308836937,15.72316360473633,-0.04615014418960,0.53513991832733,9.86971473693848,1.27081179618835,0.00362441432662,-0.32934781908989
263,1885159263,3.18748688697815,0.33021616935730,15.72276782989502,-0.05632863938808,0.55611926317215,9.87125968933105,1.27470505237579,-0.00622425880283,-0.37617060542107
264,1885167596,3.18745112419128,0.32945293188095,15.72365188598633,-0.05405403301120,0.55997461080551,9.83094596862793,1.28218460083008,-0.01385730132461,-0.25432372093201
265,1885175929,3.18789362907410,0.32951378822327,15.72326660156250,-0.03906882926822,0.52412456274033,9.86706829071045,1.33979094028473,0.07944254577160,-0.37919309735298
266,1885184262,3.18756008148193,0.32925167679787,15.72282791137695,-0.05184380710125,0.53862339258194,9.88304710388184,1.24588918685913,0.03966364264488,-0.37814298272133
267,1885192595,3.18734788894653,0.33000484108925,15.72360134124756,-0.05210130661726,0.55850112438202,9.85658931732178,1.26105284690857,0.16829833388329,-0.24579420685768
268,1885200928,3.18706679344177,0.32982495427132,15.72345733642578,-0.05760212987661,0.56462389230728,9.85730266571045,1.25162684917450,0.05249637737870,-0.33762127161026
269,1885209261,3.18723511695862,0.32997041940689,15.72268199920654,-0.06990473717451,0.53842312097549,9.85703945159912,1.30761945247650,0.08694751560688,-0.42609280347824
270,1885217594,3.18749761581421,0.33099329471588,15.72255992889404,-0.05902526155114,0.55204212665558,9.85348510742188,1.31740415096283,0.19575679302216,-0.34118157625198
271,1885225927,3.18775081634521,0.33107340335846,15.72326660156250,-0.06129975616932,0.54511821269989,9.86667537689209,1.31660997867584,0.08833069354296,-0.24722859263420
272,1885234260,3.18763089179993,0.33146804571152,15.72340297698975,-0.05772344395518,0.53880935907364,9.84377861022949,1.27239990234375,0.11468773335218,-0.46402752399445
273,1885242593,3.18743491172791,0.33114349842072,15.72310447692871,-0.08054101467133,0.55684882402420,9.88286113739014,1.26271784305573,0.03269657120109,-0.36641162633896
274,1885250926,3.18751692771912,0.33027893304825,15.72229671478271,-0.06064895540476,0.54865884780884,9.85915660858154,1.29616987705231,-0.03173603862524,-0.35188832879066
275,1885259259,3.18793821334839,0.33071139454842,15.72322368621826,-0.06665723770857,0.53821575641632,9.84852886199951,1.33594894409180,0.13305315375328,-0.22412458062172
276,1885267592,3.18845772743225,0.33049279451370,15.72321224212646,-0.04100009426475,0.55495333671570,9.85420703887939,1.34819233417511,0.05154864490032,-0.25773042440414
277,1885275925,3.18845844268799,0.33093488216400,15.72333431243896,-0.04338900744915,0.53362363576889,9.84340763092041,1.28620600700378,0.12749485671520,-0.32122811675072
278,1885284258,3.18824553489685,0.33104318380356,15.72398662567139,-0.03695873916149,0.55704194307327,9.86206817626953,1.26166749000549,0.08943209797144,-0.27929762005806
279,1885292591,3.18847274780273,0.33124440908432,15.72364521026611,-0.03421920165420,0.55556845664978,9.86097335815430,1.31343400478363,0.09662969410419,-0.37560716271400
280,1885300924,3.18871259689331,0.33237743377686,15.72301387786865,-0.05386108160019,0.54531121253967,9.86134433746338,1.31515014171600,0.20725759863853,-0.39617541432381
281,1885309257,3.18843650817871,0.33194360136986,15.72252178192139,-0.04010599106550,0.55356568098068,9.88110160827637,1.25380384922028,0.01863435283303,-0.38867038488388
282,1885317590,3.18846106529236,0.33194425702095,15.72268199920654,-0.05486945807934,0.53572648763657,9.82887172698975,1.28907489776611,0.07449901849031,-0.31838497519493
283,1885325923,3.18843793869019,0.33185717463493,15.72399902343750,-0.07069870084524,0.54360175132751,9.84758377075195,1.28223586082458,0.07298776507378,-0.17491960525513
284,1885334256,3.18905019760132,0.33204174041748,15.72393417358398,-0.05451181530952,0.55538249015808,9.83829879760742,1.36023116111755,0.09394019842148,-0.35734418034554
285,1885342589,3.18950724601746,0.33193677663803,15.72443103790283,-0.05235178396106,0.54455304145813,9.84672355651855,1.34055948257446,0.06543156504631,-0.27294531464577
286,1885350922,3.18942737579346,0.33256971836090,15.72383975982666,-0.05886789783835,0.53854471445084,9.86789798736572,1.27698493003845,0.14560411870480,-0.40667721629143
287,1885359255,3.18892550468445,0.33228155970573,15.72400760650635,-0.07098481059074,0.53228598833084,9.84639644622803,1.22570502758026,0.04122610762715,-0.31139224767685
288,1885367588,3.18890404701233,0.33247724175453,15.72341632843018,-0.06679307669401,0.56591153144836,9.86135387420654,1.28489959239960,0.09381213039160,-0.38154962658882
289,1885375921,3.18895244598389,0.33325362205505,15.72374439239502,-0.08141365647316,0.52718597650528,9.87598037719727,1.29207158088684,0.16939973831177,-0.29943040013313
290,1885384254,3.18912243843079,0.33372905850410,15.72357559204102,-0.06188649684191,0.55689883232117,9.84777545928955,1.30551898479462,0.13625490665436,-0.23577898740768
291,1885392587,3.18978476524353,0.33292561769485,15.72424316406250,-0.06281638890505,0.53540450334549,9.83497142791748,1.36540520191193,-0.01785312034190,-0.24725420773029
292,1885400920,3.19031882286072,0.33337634801865,15.72526454925537,-0.06765159219503,0.54781478643417,9.84706878662109,1.35118925571442,0.12744362652302,-0.33393275737762
293,1885409253,3.19076919555664,0.33339315652847,15.72440910339355,-0.05594258755445,0.55097627639771,9.88470554351807,1.33997023105621,0.07160458713770,-0.43595424294472
294,1885417586,3.19064569473267,0.33332043886185,15.72270679473877,-0.05577787011862,0.54093372821808,9.86749744415283,1.27263057231903,0.06100029870868,-0.41825482249260
295,1885425919,3.19032931327820,0.33332729339600,15.72237491607666,-0.05004844069481,0.54523259401321,9.87968540191650,1.24793827533722,0.07178388535976,-0.37245661020279
296,1885434252,3.19031143188477,0.33414962887764,15.72211933135986,-0.06159326061606,0.54755723476410,9.86469173431396,1.28387510776520,0.17418961226940,-0.30460447072983
297,1885442585,3.19037866592407,0.33506250381470,15.72182369232178,-0.05979776754975,0.54441720247269,9.88399124145508,1.29435122013092,0.18210439383984,-0.37281522154808
298,1885450918,3.19004082679749,0.33598247170448,15.72216510772705,-0.09267223626375,0.55265009403229,9.84510898590088,1.24517214298248,0.18896901607513,-0.23457519710064
299,1885459251,3.18933582305908,0.33595514297485,15.72229957580566,-0.06983294337988,0.55061161518097,9.85417938232422,1.20190954208374,0.07296214997768,-0.31659194827080
300,1885467584,3.18921279907227,0.33620440959930,15.72223186492920,-0.06987611949444,0.52548360824585,9.84857749938965,1.27188777923584,0.10331502556801,-0.31285229325294
301,1885475917,3.18884611129761,0.33576041460037,15.72190380096436,-0.06655720621347,0.57032477855682,9.82387924194336,1.24217498302460,0.01958208344877,-0.36904987692833
302,1885484250,3.18955779075623,0.33623513579369,15.72149085998535,-0.04519881308079,0.54928827285767,9.84035205841064,1.37244915962219,0.13405209779739,-0.27706918120384
303,1885492583,3.18844795227051,0.33644920587540,15.72188663482666,-0.06888925284147,0.54348009824753,9.88273811340332,1.15147507190704,0.10262341797352,-0.28654640913010
304,1885500916,3.18902730941772,0.33647176623344,15.72191905975342,-0.05628572031856,0.55837237834930,9.84494400024414,1.35623526573181,0.07624077051878,-0.33641734719276
305,1885509249,3.18916440010071,0.33696705102921,15.72171974182129,-0.06658581644297,0.53169226646423,9.85276889801025,1.30293202400208,0.13161875307560,-0.36123749613762
306,1885517582,3.18937730789185,0.33718514442444,15.72213554382324,-0.05890353769064,0.56807172298431,9.85251331329346,1.31153833866119,0.10334063321352,-0.27893900871277
307,1885525915,3.18947434425354,0.33691245317459,15.72201347351074,-0.04796696454287,0.56143379211426,9.86251163482666,1.29819333553314,0.04007346928120,-0.34479317069054
308,1885534248,3.18996143341064,0.33659830689430,15.72087574005127,-0.05949734896421,0.52956789731979,9.83897876739502,1.34422218799591,0.04094435274601,-0.23818676173687
309,1885542581,3.19075059890747,0.33650383353233,15.72037029266357,-0.04892544448376,0.54204958677292,9.81418704986572,1.38108098506927,0.06110275164247,-0.39340901374817
310,1885550914,3.19101905822754,0.33735340833664,15.72044563293457,-0.07240107655525,0.54626977443695,9.83698272705078,1.31873595714569,0.17426642775536,-0.35334837436676
311,1885559247,3.19084668159485,0.33757573366165,15.72021198272705,-0.07089897990227,0.55771434307098,9.86847686767578,1.26615011692047,0.09954972565174,-0.36131438612938
312,1885567580,3.19104552268982,0.33750918507576,15.72126865386963,-0.06853853911161,0.53663486242294,9.85332012176514,1.31010401248932,0.07019580900669,-0.24074819684029
313,1885575913,3.19151210784912,0.33748206496239,15.72075653076172,-0.04743783548474,0.55872994661331,9.83759689331055,1.34173774719238,0.06681473553181,-0.39486905932426
314,1885584246,3.19184875488281,0.33665701746941,15.72064208984375,-0.06513378769159,0.55632668733597,9.85846996307373,1.32711184024811,-0.02904654107988,-0.40567821264267
315,1885592579,3.19174265861511,0.33660811185837,15.71987533569336,-0.05626426264644,0.56070423126221,9.84873485565186,1.27516639232635,0.06376664340496,-0.42312157154083
316,1885600912,3.19177913665771,0.33698722720146,15.71977233886719,-0.05587085708976,0.56027501821518,9.84747600555420,1.29015052318573,0.11973373591900,-0.31992179155350
317,1885609245,3.19175338745117,0.33639961481094,15.72018623352051,-0.05712987855077,0.54160606861115,9.83762550354004,1.28246629238129,0.00674935057759,-0.27901583909988
318,1885617578,3.19157862663269,0.33608317375183,15.72017574310303,-0.05291673168540,0.52773672342300,9.84122467041016,1.26632928848267,0.03254288434982,-0.39399814605713
319,1885625911,3.19218873977661,0.33614695072174,15.71963596343994,-0.05379653349519,0.53298693895340,9.83396434783936,1.35959076881409,0.07795692235231,-0.39732801914215
320,1885634244,3.19234991073608,0.33627709746361,15.71998405456543,-0.04882530495524,0.55755692720413,9.82073211669922,1.30539107322693,0.09289002418518,-0.27701792120934
321,1885642577,3.19269394874573,0.33654633164406,15.71976280212402,-0.05441866815090,0.53962486982346,9.85436534881592,1.32803416252136,0.10485187172890,-0.36136561632156
322,1885650910,3.19194149971008,0.33579707145691,15.71773242950439,-0.04331731423736,0.54129147529602,9.81589031219482,1.19532668590546,-0.01805803552270,-0.36858883500099
323,1885659243,3.19144797325134,0.33586797118187,15.71729660034180,-0.05911109596491,0.54420262575150,9.84435081481934,1.22724211215973,0.07964746654034,-0.38500759005547
324,1885667576,3.19105720520020,0.33541172742844,15.71743679046631,-0.06370321661234,0.56267839670181,9.86774730682373,1.24053573608398,0.02114455029368,-0.28219202160835
325,1885675909,3.19137454032898,0.33483543992043,15.71801376342773,-0.06931819766760,0.54488927125931,9.84813404083252,1.32288563251495,0.00920831784606,-0.25985640287399
326,1885684242,3.19133496284485,0.33511090278625,15.71907234191895,-0.07603471726179,0.54268622398376,9.83839225769043,1.28180027008057,0.10679854452610,-0.32934778928757
327,1885692575,3.19154000282288,0.33534589409828,15.71951866149902,-0.07919627428055,0.53117728233337,9.85753345489502,1.31087231636047,0.10531292110682,-0.27991232275963
328,1885700908,3.19092297554016,0.33578005433083,15.71941089630127,-0.07501186430454,0.54064762592316,9.86196041107178,1.21223211288452,0.12508712708950,-0.35001853108406
329,1885709241,3.18960475921631,0.33647194504738,15.71909618377686,-0.07187891751528,0.55026823282242,9.86244678497314,1.12819182872772,0.15538877248764,-0.37535101175308
330,1885717574,3.19002556800842,0.33649072051048,15.71889877319336,-0.05950432643294,0.56177717447281,9.84555339813232,1.33648681640625,0.07247547805309,-0.38997673988342
331,1885725907,3.19036650657654,0.33679926395416,15.71875476837158,-0.06366728991270,0.56408041715622,9.86339282989502,1.32805967330933,0.11097366362810,-0.35322028398514
332,1885734240,3.19050693511963,0.33667233586311,15.71870422363281,-0.05733719095588,0.54687774181366,9.83658981323242,1.30303442478180,0.05631289631128,-0.34487003087997
333,1885742573,3.18967199325562,0.33751094341278,15.71799659729004,-0.04019897803664,0.52162104845047,9.82771301269531,1.18664348125458,0.17185868322849,-0.42386433482170
334,1885750906,3.18289232254028,0.33920770883560,15.71888446807861,-0.05173651129007,0.53528302907944,9.85750484466553,1.23057186603546,0.19593608379364,-0.22130697965622
335,1885759239,3.18280887603760,0.33902758359909,15.71912765502930,-0.05424729362130,0.54793632030487,9.85535049438477,1.27701044082642,0.05426375567913,-0.30196622014046
336,1885767572,3.18278598785400,0.33933493494987,15.71825981140137,-0.06576339900494,0.56604731082916,9.85586547851562,1.28431057929993,0.10805366188288,-0.37798926234245
337,1885775905,3.18282938003540,0.33960521221161,15.71838951110840,-0.04429040476680,0.56000322103500,9.86080169677734,1.29135429859161,0.10802803188562,-0.31858986616135
338,1885784238,3.18244695663452,0.33994999527931,15.71745777130127,-0.08063399791718,0.54274344444275,9.83790588378906,1.24197006225586,0.10741327702999,-0.46477019786835
339,1885792571,3.18279409408569,0.33963805437088,15.71834564208984,-0.07042688876390,0.54863733053207,9.87271881103516,1.32644605636597,0.04378753527999,-0.22450877726078
340,1885800904,3.18262767791748,0.33974990248680,15.71867275238037,-0.06189354881644,0.55907332897186,9.82708358764648,1.26686739921570,0.08884298056364,-0.30614131689072
341,1885809237,3.18246531486511,0.33999228477478,15.71962928771973,-0.07656402885914,0.57239192724228,9.85931396484375,1.26771247386932,0.10813048481941,-0.21977013349533
342,1885817570,3.18198251724243,0.34018617868423,15.72021484375000,-0.06420391798019,0.56995999813080,9.83802700042725,1.22754931449890,0.10272587835789,-0.24909839034081
343,1885825903,3.18165206909180,0.33999401330948,15.71998786926270,-0.03923334181309,0.55582594871521,9.88131618499756,1.24783587455750,0.04919214174151,-0.36003369092941
344,1885834236,3.18162751197815,0.34067443013191,15.71996402740479,-0.06291640549898,0.56176996231079,9.86198902130127,1.28418242931366,0.15415926277637,-0.34807187318802
345,1885842569,3.18177747726440,0.34153074026108,15.72025108337402,-0.06019832566381,0.54687058925629,9.85829830169678,1.30370056629181,0.18008086085320,-0.30391290783882
346,1885850902,3.18162178993225,0.34119021892548,15.71985435485840,-0.04544902592897,0.54839426279068,9.86288452148438,1.26855766773224,0.03277341276407,-0.31907650828362
347,1885859235,3.18114185333252,0.34183207154274,15.71982765197754,-0.06720811128616,0.56478846073151,9.85904216766357,1.22882997989655,0.15134170651436,-0.33977282047272
348,1885867568,3.18151831626892,0.34217119216919,15.71870040893555,-0.06081347167492,0.54985332489014,9.86289787292480,1.33277273178101,0.11427791416645,-0.35214447975159
349,1885875901,3.18135070800781,0.34223482012749,15.71856021881104,-0.07656402885914,0.54762881994247,9.84015846252441,1.26602196693420,0.07977552711964,-0.34889149665833
350,1885884234,3.18200635910034,0.34219142794609,15.71716690063477,-0.05375338718295,0.53589820861816,9.83342170715332,1.36622476577759,0.06107714027166,-0.48805361986160
351,1885892567,3.18144869804382,0.34218198060989,15.71860790252686,-0.08459667116404,0.54689919948578,9.86017227172852,1.21953225135803,0.08241380006075,-0.15990966558456
352,1885900900,3.18142819404602,0.34172922372818,15.71905231475830,-0.06032726168633,0.54602652788162,9.85890483856201,1.28431046009064,0.01430554967374,-0.41062176227570
353,1885909233,3.18151235580444,0.34191897511482,15.71916007995605,-0.06564879417419,0.55216372013092,9.85956478118896,1.29645168781281,0.09760303050280,-0.32104879617691
354,1885917566,3.18125939369202,0.34138554334641,15.71802425384521,-0.07819487899542,0.55221378803253,9.86326980590820,1.25700581073761,0.00370125728659,-0.43431496620178
355,1885925899,3.18040704727173,0.34152138233185,15.71794033050537,-0.07099911570549,0.53077673912048,9.85978603363037,1.18528580665588,0.09081526845694,-0.34379422664642
356,1885934232,3.18051862716675,0.34129557013512,15.71800231933594,-0.05575641244650,0.55000352859497,9.84943580627441,1.30103659629822,0.04478648304939,-0.36487478017807
357,1885942565,3.18087172508240,0.34252664446831,15.71814346313477,-0.05804532021284,0.54438859224319,9.85445785522461,1.32867431640625,0.22290787100792,-0.32481414079666
358,1885950898,3.18094086647034,0.34334611892700,15.71727657318115,-0.05294549092650,0.56589710712433,9.83823394775391,1.29409515857697,0.17044992744923,-0.34732902050018
359,1885959231,3.18096494674683,0.34306254982948,15.71735477447510,-0.07789431512356,0.52986836433411,9.85526657104492,1.29012489318848,0.04079066589475,-0.32250881195068
360,1885967564,3.18108558654785,0.34375607967377,15.71763134002686,-0.05986929684877,0.55203497409821,9.84355640411377,1.30170261859894,0.15912842750549,-0.30411779880524
361,1885975897,3.18073773384094,0.34476807713509,15.71739578247070,-0.04417595639825,0.54157036542892,9.82513809204102,1.24448037147522,0.19365642964840,-0.36700075864792
362,1885984230,3.18004870414734,0.34545642137527,15.71594429016113,-0.05534128472209,0.55503213405609,9.86488056182861,1.20434272289276,0.15702806413174,-0.32250881195068
363,1885992563,3.17986845970154,0.34525632858276,15.71559619903564,-0.05539876967669,0.53229314088821,9.85465049743652,1.26574027538300,0.04739913716912,-0.37348115444183
364,1886000896,3.17933869361877,0.34531593322754,15.71613597869873,-0.06944719702005,0.55071878433228,9.85319709777832,1.22201669216156,0.08359204977751,-0.30204305052757
365,1886009229,3.17938446998596,0.34571754932404,15.71624183654785,-0.06629240512848,0.54868036508560,9.84442329406738,1.29240465164185,0.12273062020540,-0.32322600483894
366,1886017562,3.17879843711853,0.34510186314583,15.71647071838379,-0.07491887360811,0.54768604040146,9.86398506164551,1.21707308292389,0.00219001690857,-0.28831380605698
367,1886025895,3.17911148071289,0.34496986865997,15.71676921844482,-0.05578502267599,0.54202097654343,9.88485717773438,1.32283437252045,0.06010379269719,-0.29610055685043
368,1886034228,3.17951607704163,0.34418967366219,15.71736812591553,-0.05617112666368,0.54975324869156,9.83108997344971,1.33648681640625,-0.01982541754842,-0.32609483599663
369,1886042561,3.17941641807556,0.34414917230606,15.71748828887939,-0.06036284193397,0.53990375995636,9.85578060150146,1.27385997772217,0.06958106905222,-0.31930705904961
370,1886050894,3.17937231063843,0.34394451975822,15.71655273437500,-0.04991253837943,0.55161291360855,9.88243198394775,1.28295290470123,0.04358261823654,-0.43080580234528
371,1886059227,3.17939424514771,0.34408712387085,15.71626853942871,-0.05092108994722,0.54260033369064,9.85311317443848,1.28915166854858,0.08999561518431,-0.36761552095413
372,1886067560,3.17995929718018,0.34392711520195,15.71536064147949,-0.05984783545136,0.55860841274261,9.86202526092529,1.35538995265961,0.04778334870934,-0.44199919700623
373,1886075893,3.17973780632019,0.34363538026810,15.71524047851562,-0.06160743534565,0.52554798126221,9.83641052246094,1.25982320308685,0.03935627266765,-0.34527987241745
374,1886084226,3.17981863021851,0.34417265653610,15.71558570861816,-0.06376759707928,0.54812949895859,9.84998703002930,1.29716885089874,0.13794545829296,-0.33639171719551
375,1886092559,3.17978787422180,0.34488561749458,15.71716499328613,-0.06963283568621,0.53649908304214,9.86565303802490,1.28159546852112,0.16517338156700,-0.22466245293617
376,1886100892,3.17955112457275,0.34473350644112,15.71748447418213,-0.05805962532759,0.55388754606247,9.83653926849365,1.25756919384003,0.05802904814482,-0.29328298568726
377,1886109225,3.17977690696716,0.34542888402939,15.71701145172119,-0.07029099017382,0.55268585681915,9.83081054687500,1.31489396095276,0.15464593470097,-0.39379322528839
378,1886117558,3.17915868759155,0.34567904472351,15.71566772460938,-0.07286600768566,0.55580449104309,9.86600971221924,1.21274423599243,0.09842270612717,-0.44018062949181
379,1886125891,3.17874550819397,0.34491977095604,15.71490764617920,-0.06047728657722,0.53242188692093,9.85698223114014,1.23800003528595,-0.02159279957414,-0.41907453536987
380,1886134224,3.17928075790405,0.34442013502121,15.71580600738525,-0.05925415083766,0.52800858020782,9.87902736663818,1.34988296031952,0.01689258590341,-0.25091701745987
381,1886142557,3.17948460578918,0.34525904059410,15.71656227111816,-0.07188607007265,0.54809373617172,9.85105991363525,1.31064200401306,0.18082369863987,-0.24697244167328
382,1886150890,3.18015789985657,0.34553745388985,15.71660709381104,-0.06869590282440,0.54453879594803,9.86666774749756,1.36860692501068,0.10828417539597,-0.30788311362267
383,1886159223,3.17965412139893,0.34524905681610,15.71651268005371,-0.06448288261890,0.56142663955688,9.85624599456787,1.22562825679779,0.03822924196720,-0.34246230125427
384,1886167556,3.17973542213440,0.34483870863914,15.71588325500488,-0.06368906795979,0.53694242238998,9.82895660400391,1.29652845859528,0.02426948584616,-0.34566408395767
385,1886175889,3.17935395240784,0.34557330608368,15.71545982360840,-0.06356731802225,0.55119091272354,9.83969402313232,1.24199581146240,0.15874423086643,-0.38905462622643
386,1886184222,3.17952990531921,0.34634265303612,15.71581172943115,-0.04806696251035,0.54207110404968,9.86629676818848,1.30733764171600,0.16619794070721,-0.32330286502838
387,1886192555,3.17977261543274,0.34707245230675,15.71651840209961,-0.06182191148400,0.56499600410461,9.86490917205811,1.31614899635315,0.16645410656929,-0.25219774246216
388,1886200888,3.18007898330688,0.34830772876740,15.71638298034668,-0.05369639024138,0.55551123619080,9.84088802337646,1.32303941249847,0.21993660926819,-0.36692389845848
389,1886209221,3.18003487586975,0.34907692670822,15.71639823913574,-0.06612087786198,0.55695611238480,9.84798431396484,1.28151857852936,0.16624920070171,-0.33587947487831
390,1886217554,3.17949533462524,0.34910362958908,15.71574497222900,-0.07504047453403,0.55261433124542,9.83528041839600,1.22265696525574,0.07659936696291,-0.35204204916954
391,1886225887,3.17932248115540,0.34946992993355,15.71535015106201,-0.06969729810953,0.53243619203568,9.84349250793457,1.26586818695068,0.11525123566389,-0.38167768716812
392,1886234220,3.18024849891663,0.34906390309334,15.71386146545410,-0.06979028880596,0.55322951078415,9.83774852752686,1.39924180507660,0.01837821491063,-0.44773682951927
393,1886242553,3.18088316917419,0.34873977303505,15.71393299102783,-0.08223623782396,0.53959614038467,9.87273311614990,1.36256206035614,0.03697415068746,-0.32327726483345
394,1886250886,3.18189311027527,0.34824380278587,15.71314716339111,-0.04255206510425,0.56335800886154,9.88012313842773,1.40795040130615,0.00859357509762,-0.40562701225281
395,1886259219,3.18136930465698,0.34799101948738,15.71257209777832,-0.05954741686583,0.53849464654922,9.86063003540039,1.22488558292389,0.04045768082142,-0.39978697896004
396,1886267552,3.18111753463745,0.34737709164619,15.71254444122314,-0.06187943369150,0.54176342487335,9.84428691864014,1.25644218921661,-0.00568635994568,-0.43441739678383
397,1886275885,3.18106961250305,0.34703636169434,15.71252918243408,-0.05587815493345,0.56355094909668,9.85738849639893,1.28123688697815,0.03343938663602,-0.33198612928391
398,1886284218,3.18117141723633,0.34744572639465,15.71311664581299,-0.06199368834496,0.55249273777008,9.88083744049072,1.29862904548645,0.12406254559755,-0.30191498994827
399,1886292551,3.18118333816528,0.34739479422569,15.71243000030518,-0.05776635929942,0.55079036951065,9.85999393463135,1.28856253623962,0.06402277946472,-0.41397723555565
400,1886300884,3.18134331703186,0.34794804453850,15.71251583099365,-0.06763030588627,0.53702825307846,9.86308288574219,1.30695354938507,0.13630616664886,-0.39279428124428
401,1886309217,3.18107485771179,0.34803786873817,15.71221828460693,-0.05723689123988,0.55840104818344,9.85218238830566,1.25426495075226,0.08423240482807,-0.36815339326859
402,1886317550,3.18070483207703,0.34798267483711,15.71199703216553,-0.06881750375032,0.53245049715042,9.86430644989014,1.24389135837555,0.06376664340496,-0.35765156149864
403,1886325883,3.18023824691772,0.34772258996964,15.71252918243408,-0.05920408293605,0.53808689117432,9.85186100006104,1.22936797142029,0.04775773733854,-0.26802736520767
404,1886334216,3.17966270446777,0.34760782122612,15.71300220489502,-0.06106381863356,0.53425300121307,9.84427928924561,1.21820008754730,0.06261399388313,-0.27366247773170
405,1886342549,3.17930841445923,0.34789514541626,15.71246433258057,-0.06190785393119,0.54433137178421,9.84484386444092,1.24509513378143,0.10436519980431,-0.39894169569016
406,1886350882,3.17977976799011,0.34707945585251,15.71211147308350,-0.06567740440369,0.53944593667984,9.85371398925781,1.34289038181305,-0.02628020383418,-0.37862959504128
407,1886359215,3.17916846275330,0.34679505228996,15.71248149871826,-0.05316016450524,0.54145586490631,9.85641574859619,1.21297478675842,0.04242997616529,-0.28634151816368
408,1886367548,3.17994070053101,0.34685739874840,15.71297168731689,-0.03486295789480,0.55325096845627,9.85656070709229,1.37890386581421,0.08587171882391,-0.25107067823410
409,1886375881,3.18016886711121,0.34762766957283,15.71348857879639,-0.02641556970775,0.55642676353455,9.86114406585693,1.31458663940430,0.17011693120003,-0.27627512812614
410,1886384214,3.18026447296143,0.34744322299957,15.71378135681152,-0.06965438276529,0.55926650762558,9.85654640197754,1.29737389087677,0.04860301315784,-0.36981835961342
411,1886392547,3.18051743507385,0.34710556268692,15.71356773376465,-0.07063432782888,0.53392398357391,9.86357688903809,1.31717360019684,0.03300394490361,-0.35665261745453
412,1886400880,3.18032598495483,0.34714975953102,15.71439361572266,-0.06162174046040,0.54387354850769,9.86336231231689,1.26456201076508,0.08064641058445,-0.30012202262878
413,1886409213,3.17979764938354,0.34698474407196,15.71397590637207,-0.05680104345083,0.53760761022568,9.86411285400391,1.22301566600800,0.05172794312239,-0.38152402639389
414,1886417546,3.17927265167236,0.34795242547989,15.71463298797607,-0.06368175894022,0.54856580495834,9.85691833496094,1.22324609756470,0.19273430109024,-0.27691549062729
415,1886425879,3.17972683906555,0.34726279973984,15.71509075164795,-0.05675052851439,0.54533994197845,9.84629726409912,1.34084117412567,-0.00494354683906,-0.27448216080666
416,1886434212,3.17949414253235,0.34731942415237,15.71552753448486,-0.08546932041645,0.55606913566589,9.82929420471191,1.25844013690948,0.08195273578167,-0.29986581206322
417,1886442545,3.17956781387329,0.34721142053604,15.71502876281738,-0.08104153722525,0.55059731006622,9.85553836822510,1.29645168781281,0.05726062506437,-0.39212834835052
418,1886450878,3.17937302589417,0.34723538160324,15.71607971191406,-0.07471144199371,0.53923851251602,9.84635353088379,1.26325571537018,0.08538505434990,-0.18324425816536
419,1886459211,3.17903447151184,0.34711205959320,15.71527194976807,-0.07187176495790,0.54280066490173,9.85321331024170,1.24606847763062,0.05411006882787,-0.42957630753517
420,1886467544,3.17959690093994,0.34722349047661,15.71543884277344,-0.05777351185679,0.53586953878403,9.84151077270508,1.35410928726196,0.08799770474434,-0.31113609671593
421,1886475877,3.17986607551575,0.34772831201553,15.71585750579834,-0.07576291263103,0.54900217056274,9.85825538635254,1.31873619556427,0.13794547319412,-0.28529137372971
422,1886484210,3.18042349815369,0.34854331612587,15.71717357635498,-0.04356796666980,0.54918098449707,9.85002994537354,1.35316169261932,0.17221730947495,-0.30993223190308
423,1886492543,3.18072009086609,0.34766420722008,15.71743297576904,-0.04298858717084,0.56412327289581,9.83858489990234,1.32301354408264,-0.02912338264287,-0.29522964358330
424,1886500876,3.18103480339050,0.34774458408356,15.71733760833740,-0.06496927142143,0.54452449083328,9.85713291168213,1.32442235946655,0.07969869673252,-0.38303527235985
425,1886509209,3.18056583404541,0.34794157743454,15.71752929687500,-0.05126468464732,0.54094797372818,9.86597919464111,1.22926557064056,0.10080482065678,-0.31095680594444
426,1886517542,3.18114972114563,0.34842753410339,15.71773433685303,-0.07029099017382,0.55148416757584,9.86595249176025,1.35815644264221,0.13215665519238,-0.31636142730713
427,1886525875,3.18140292167664,0.34856623411179,15.71790122985840,-0.06056312099099,0.52760797739029,9.83581733703613,1.31627714633942,0.09242897480726,-0.31385123729706
428,1886534208,3.18176960945129,0.34755170345306,15.71575355529785,-0.04506312683225,0.56038939952850,9.85543632507324,1.33164560794830,-0.05773448199034,-0.46840748190880
429,1886542541,3.18155646324158,0.34751963615417,15.71607112884521,-0.07833819091320,0.50848126411438,9.86243915557861,1.26097583770752,0.07373057305813,-0.29412823915482
430,1886550874,3.18103528022766,0.34790369868279,15.71646022796631,-0.07805155962706,0.54928117990494,9.83641242980957,1.22421956062317,0.12042533606291,-0.32284182310104
431,1886559207,3.18174219131470,0.34775140881538,15.71761798858643,-0.09294404089451,0.55527520179749,9.84777641296387,1.37009251117706,0.06281891465187,-0.19233728945255
432,1886567540,3.18207454681396,0.34755364060402,15.71795940399170,-0.07092759013176,0.56313616037369,9.84924316406250,1.32603621482849,0.05710693821311,-0.21679890155792
433,1886575873,3.18187642097473,0.34795132279396,15.71757984161377,-0.06149998307228,0.53770071268082,9.84959506988525,1.26356303691864,0.11906778067350,-0.38116544485092
434,1886584206,3.18170142173767,0.34879615902901,15.71720314025879,-0.05291673168540,0.54619824886322,9.84595966339111,1.26520240306854,0.17344678938389,-0.36259508132935
435,1886592539,3.18165302276611,0.34833890199661,15.71721839904785,-0.05250172317028,0.53461068868637,9.83740615844727,1.28185153007507,0.01942839659750,-0.32783657312393
436,1886600872,3.18169522285461,0.34821915626526,15.71751213073730,-0.03675130754709,0.51848095655441,9.82739830017090,1.29143142700195,0.05966835841537,-0.33482927083969
437,1886609205,3.18193817138672,0.34806835651398,15.71756458282471,-0.03072146140039,0.56679844856262,9.83744812011719,1.31571352481842,0.05610797554255,-0.32650461792946
438,1886617538,3.18127799034119,0.34740075469017,15.71707630157471,-0.05670773983002,0.55309355258942,9.84801959991455,1.20815968513489,-0.00806848425418,-0.36241582036018
439,1886625871,3.18175721168518,0.34726038575172,15.71697235107422,-0.05335305631161,0.55566859245300,9.82938671112061,1.34383797645569,0.05674833431840,-0.34451144933701
440,1886634204,3.18241715431213,0.34721019864082,15.71510124206543,-0.07192898541689,0.53561919927597,9.85386371612549,1.36727511882782,0.05913046374917,-0.48165011405945
441,1886642537,3.18188071250916,0.34731844067574,15.71485519409180,-0.05424000695348,0.54790776968002,9.87773990631104,1.22329735755920,0.08477030694485,-0.36328670382500
442,1886650870,3.18229651451111,0.34705859422684,15.71546936035156,-0.05647169426084,0.52777254581451,9.82724094390869,1.33638441562653,0.04140540584922,-0.37355801463127
443,1886659203,3.18232703208923,0.34816777706146,15.71642971038818,-0.07378872483969,0.54608380794525,9.84572410583496,1.28925406932831,0.21348181366920,-0.22568701207638
444,1886667536,3.18194770812988,0.34798097610474,15.71731376647949,-0.07773736864328,0.55247837305069,9.82815551757812,1.24143230915070,0.05203531682491,-0.31282660365105
445,1886675869,3.18140769004822,0.34781411290169,15.71752929687500,-0.07803036272526,0.54881620407104,9.83628940582275,1.22219622135162,0.05567254126072,-0.30603891611099
446,1886684202,3.18136715888977,0.34712848067284,15.71716499328613,-0.06993334740400,0.56695580482483,9.87044429779053,1.28190279006958,-0.01360115781426,-0.41295269131660
447,1886692535,3.18140983581543,0.34672588109970,15.71771335601807,-0.07494761049747,0.53428155183792,9.85721015930176,1.29191792011261,0.03062181547284,-0.26592698693275
448,1886700868,3.18159890174866,0.34747952222824,15.71784019470215,-0.06531964242458,0.57943040132523,9.82642650604248,1.31018090248108,0.16545516252518,-0.28344711661339
449,1886709201,3.18248319625854,0.34679850935936,15.71842002868652,-0.06270897388458,0.54523974657059,9.84495162963867,1.39181351661682,-0.00210036709905,-0.25790974497795
450,1886717534,3.18276000022888,0.34690022468567,15.71811294555664,-0.02811067365110,0.56712031364441,9.83554553985596,1.31976068019867,0.08174782246351,-0.38487946987152
451,1886725867,3.18347668647766,0.34710347652435,15.71813392639160,-0.03611455112696,0.54084795713425,9.85376453399658,1.37370419502258,0.09834584593773,-0.33121767640114
452,1886734200,3.18331909179688,0.34744203090668,15.71826362609863,-0.06140730157495,0.54456734657288,9.85911941528320,1.26730263233185,0.11525123566389,-0.34036192297935
453,1886742533,3.18307399749756,0.34734693169594,15.71823978424072,-0.05761614814401,0.53651326894760,9.87867736816406,1.25710821151733,0.06256276369095,-0.33546960353851
454,1886750866,3.18401551246643,0.34729224443436,15.71868801116943,-0.05451181530952,0.55261433124542,9.86240386962891,1.39857554435730,0.06965791434050,-0.27942568063736
455,1886759199,3.18462824821472,0.34757009148598,15.71855354309082,-0.04905403777957,0.55297923088074,9.80678462982178,1.36048722267151,0.10654240846634,-0.35096624493599
456,1886767532,3.18424725532532,0.34727135300636,15.71846294403076,-0.07364567369223,0.54162043333054,9.84418582916260,1.24156033992767,0.04122610762715,-0.27386736869812
457,1886775865,3.18402004241943,0.34697058796883,15.71738529205322,-0.06602094322443,0.55503195524216,9.86045932769775,1.26000273227692,0.03064742870629,-0.46082565188408
458,1886784198,3.18470835685730,0.34726992249489,15.71730041503906,-0.08168546855450,0.55692034959793,9.86168193817139,1.36911916732788,0.10643993318081,-0.38528928160667
459,1886792531,3.18516039848328,0.34754243493080,15.71759700775146,-0.06853152811527,0.56011760234833,9.84396266937256,1.34089231491089,0.10889891535044,-0.30063426494598
460,1886800864,3.18457221984863,0.34705644845963,15.71724224090576,-0.05749455094337,0.55860841274261,9.84430027008057,1.21702194213867,0.01371642388403,-0.34963428974152
461,1886809197,3.18436980247498,0.34690281748772,15.71720504760742,-0.06660742312670,0.55265009403229,9.86213302612305,1.26246154308319,0.05723500624299,-0.33636611700058
462,1886817530,3.18467593193054,0.34621146321297,15.71693134307861,-0.07163572311401,0.55380886793137,9.88264656066895,1.32321858406067,-0.01331940200180,-0.39369073510170
463,1886825863,3.18406748771667,0.34671968221664,15.71735858917236,-0.05227297544479,0.55573296546936,9.85494422912598,1.21384572982788,0.13873949646950,-0.28447166085243
464,1886834196,3.18357801437378,0.34628543257713,15.71731567382812,-0.03852521255612,0.55005359649658,9.85274028778076,1.22667849063873,0.01988945528865,-0.33342051506042
465,1886842529,3.18327665328979,0.34640100598335,15.71703338623047,-0.03214487805963,0.53423154354095,9.87135982513428,1.25078153610229,0.08658891916275,-0.36643719673157
466,1886850862,3.18265461921692,0.34693393111229,15.71778202056885,-0.05146470665932,0.55950254201889,9.84920024871826,1.21187353134155,0.13909809291363,-0.31203261017799
467,1886859195,3.18227243423462,0.34718719124794,15.71813678741455,-0.06742984801531,0.54446727037430,9.86744022369385,1.24104821681976,0.10754137486219,-0.29154127836227
468,1886867528,3.18212461471558,0.34731382131577,15.71790599822998,-0.04721591621637,0.54885196685791,9.85649585723877,1.26873695850372,0.08835630118847,-0.33085906505585
469,1886875861,3.18188619613647,0.34649273753166,15.71752262115479,-0.05102122947574,0.53581947088242,9.82709026336670,1.25890135765076,-0.02666442096233,-0.37427520751953
470,1886884194,3.18208217620850,0.34613418579102,15.71702384948730,-0.05295965075493,0.55493903160095,9.83583831787109,1.31002724170685,0.02726635150611,-0.36935728788376
471,1886892527,3.18280363082886,0.34539535641670,15.71761798858643,-0.07984015345573,0.55797177553177,9.84156703948975,1.37244904041290,-0.00916989613324,-0.25662901997566
472,1886900860,3.18300223350525,0.34494701027870,15.71845149993896,-0.08887407183647,0.54040443897247,9.85043048858643,1.30984795093536,0.02452562935650,-0.25214651226997
473,1886909193,3.18318200111389,0.34491226077080,15.71831321716309,-0.08194296807051,0.56933766603470,9.85231876373291,1.30966877937317,0.06814667582512,-0.34978801012039
474,1886917526,3.18342089653015,0.34453624486923,15.71863079071045,-0.07754411548376,0.54257166385651,9.87180137634277,1.31448411941528,0.03118533082306,-0.30921500921249
475,1886925859,3.18350553512573,0.34490066766739,15.71822738647461,-0.05547029525042,0.57164806127548,9.86233234405518,1.29681026935577,0.11363756656647,-0.38270232081413
476,1886934192,3.18359804153442,0.34513923525810,15.71804428100586,-0.06739408522844,0.55035406351089,9.83709716796875,1.29832148551941,0.09903745353222,-0.39702063798904
477,1886942525,3.18392252922058,0.34547051787376,15.71783638000488,-0.06217966228724,0.54160612821579,9.85293388366699,1.32580554485321,0.11263860017061,-0.35964941978455
478,1886950858,3.18415188789368,0.34462437033653,15.71800041198730,-0.05992639437318,0.54951721429825,9.83813571929932,1.31409978866577,-0.02387246489525,-0.27581405639648
479,1886959191,3.18426752090454,0.34460392594337,15.71835899353027,-0.04833891242743,0.57385826110840,9.86145305633545,1.30047309398651,0.07321828603745,-0.28982505202293
480,1886967524,3.18453359603882,0.34418356418610,15.71802425384521,-0.04477679729462,0.56363689899445,9.84219074249268,1.31871056556702,0.02201543562114,-0.37291765213013
481,1886975857,3.18468880653381,0.34422099590302,15.71801090240479,-0.03905452415347,0.55192768573761,9.85526561737061,1.30549335479736,0.07844358682632,-0.33593067526817
482,1886984190,3.18645524978638,0.34409555792809,15.71853828430176,-0.06148583814502,0.54199236631393,9.84414291381836,1.49731862545013,0.06456067413092,-0.23285900056362
483,1886992523,3.18613505363464,0.34345844388008,15.71923637390137,-0.05959748849273,0.54938840866089,9.87752532958984,1.24811756610870,0.00113983335905,-0.24412927031517
484,1887000856,3.18617868423462,0.34312450885773,15.71816635131836,-0.07849548012018,0.54475331306458,9.83791160583496,1.29345500469208,0.02987900562584,-0.40639546513557
485,1887009189,3.18671107292175,0.34272757172585,15.71714019775391,-0.07235100865364,0.55122667551041,9.83730506896973,1.35072827339172,0.02068349532783,-0.45360246300697
486,1887017522,3.18621015548706,0.34241557121277,15.71703052520752,-0.10325128585100,0.55985301733017,9.85101699829102,1.22631978988647,0.03569343686104,-0.33700647950172
487,1887025855,3.18646025657654,0.34286153316498,15.71786022186279,-0.09031179547310,0.52310883998871,9.82416534423828,1.31645631790161,0.13246400654316,-0.23547165095806
488,1887034188,3.18668937683105,0.34278690814972,15.71722126007080,-0.07609909772873,0.55280745029449,9.82500934600830,1.31412541866302,0.06274206191301,-0.35652452707291
489,1887042521,3.18692064285278,0.34332951903343,15.71714115142822,-0.08560522645712,0.54147738218307,9.86721801757812,1.31491959095001,0.13966161012650,-0.34530550241470
490,1887050854,3.18737936019897,0.34382379055023,15.71602153778076,-0.07277317345142,0.56011760234833,9.86286067962646,1.34214746952057,0.13341173529625,-0.31728354096413
491,1887059187,3.18777155876160,0.34292864799500,15.71645641326904,-0.06221542879939,0.55599761009216,9.84044456481934,1.33267021179199,-0.03107006661594,-0.27473831176758
492,1887067520,3.18810462951660,0.34338557720184,15.71708011627197,-0.05039177834988,0.55967420339584,9.84254074096680,1.32608735561371,0.13448753952980,-0.23437023162842
493,1887075853,3.18846797943115,0.34331172704697,15.71645641326904,-0.04198003560305,0.55146270990372,9.85593795776367,1.33046734333038,0.06051363050938,-0.40811160206795
494,1887084186,3.18842506408691,0.34337136149406,15.71652126312256,-0.04238059371710,0.55244982242584,9.87022209167480,1.28164660930634,0.08346398174763,-0.31728354096413
495,1887092519,3.18904542922974,0.34246039390564,15.71713447570801,-0.04096421226859,0.53942453861237,9.84635448455811,1.36092257499695,-0.03119813278317,-0.25301736593246
496,1887100852,3.18907308578491,0.34225463867188,15.71812629699707,-0.04087838530540,0.54885202646255,9.84906578063965,1.29045796394348,0.05303427204490,-0.25314545631409
497,1887109185,3.18937349319458,0.34182846546173,15.71715354919434,-0.06223688647151,0.54332995414734,9.83196926116943,1.32332098484039,0.01668767258525,-0.44614872336388
498,1887117518,3.18879556655884,0.34169319272041,15.71585369110107,-0.06604935228825,0.55041128396988,9.86592388153076,1.21784150600433,0.04944827407598,-0.47294113039970
499,1887125851,3.18861460685730,0.34148734807968,15.71600246429443,-0.06743700057268,0.53149199485779,9.84677505493164,1.26499736309052,0.05095951631665,-0.31333893537521
500,1887134184,3.18784332275391,0.34176856279373,15.71739292144775,-0.09323731064796,0.55105501413345,9.83935737609863,1.19430208206177,0.10659363120794,-0.33667346835136
501,1887142517,3.18757247924805,0.34110614657402,15.71771049499512,-0.08048378676176,0.55613356828690,9.88261795043945,1.25449550151825,-0.00325300777331,-0.29110574722290
502,1887150850,3.18787384033203,0.34126463532448,15.71677398681641,-0.07112786918879,0.55271446704865,9.86395645141602,1.32288551330566,0.08571802824736,-0.45601022243500
503,1887159183,3.18802833557129,0.34085965156555,15.71667480468750,-0.09020465612411,0.54210674762726,9.87480640411377,1.30510926246643,0.02521721273661,-0.34171947836876
504,1887167516,3.18818283081055,0.34066903591156,15.71586227416992,-0.07790146023035,0.54470336437225,9.83538246154785,1.30623626708984,0.05124127119780,-0.33257520198822
505,1887175849,3.18822765350342,0.34051698446274,15.71551418304443,-0.05671489238739,0.53688526153564,9.83556652069092,1.29145693778992,0.05370024219155,-0.37381413578987
506,1887184182,3.18744921684265,0.34065783023834,15.71616458892822,-0.05992651730776,0.53777217864990,9.88009357452393,1.19386661052704,0.09020052850246,-0.33362540602684
507,1887192515,3.18762564659119,0.34044986963272,15.71605396270752,-0.03964105620980,0.54898071289062,9.85419273376465,1.30790114402771,0.04926897585392,-0.34433212876320
508,1887200848,3.18736815452576,0.34092304110527,15.71433258056641,-0.03476261720061,0.54050463438034,9.86007976531982,1.25739002227783,0.12201340496540,-0.47750055789948
509,1887209181,3.18689298629761,0.34098550677299,15.71353340148926,-0.05255193635821,0.55810058116913,9.81678295135498,1.22995710372925,0.07695796340704,-0.42911526560783
510,1887217514,3.18703532218933,0.34161177277565,15.71261787414551,-0.03447670489550,0.53444612026215,9.83995819091797,1.30457127094269,0.14222301542759,-0.43825954198837
511,1887225847,3.18706607818604,0.34122174978256,15.71340656280518,-0.04496277123690,0.55898034572601,9.85502243041992,1.28917717933655,0.03336254134774,-0.23608639836311
512,1887234180,3.18674540519714,0.34118255972862,15.71386146545410,-0.05017004162073,0.52757221460342,9.85161018371582,1.24775898456573,0.07111792266369,-0.27998921275139
513,1887242513,3.18738007545471,0.34087958931923,15.71419906616211,-0.06878187507391,0.55674147605896,9.85537910461426,1.36256194114685,0.04137979447842,-0.28946644067764
514,1887250846,3.18727040290833,0.34058275818825,15.71485519409180,-0.08272262662649,0.54453879594803,9.83454418182373,1.27480769157410,0.03933065757155,-0.27724847197533
515,1887259179,3.18666458129883,0.34053257107735,15.71513843536377,-0.08887407183647,0.54300093650818,9.85440063476562,1.21310305595398,0.07050319015980,-0.29886689782143
516,1887267512,3.18653368949890,0.34127846360207,15.71690750122070,-0.06589902192354,0.53348767757416,9.84313583374023,1.27050447463989,0.16617235541344,-0.28987631201744
517,1887275845,3.18631625175476,0.34175828099251,15.71754074096680,-0.07823779433966,0.53784370422363,9.86299037933350,1.26102721691132,0.13615246117115,-0.26162376999855
518,1887284178,3.18590855598450,0.34226617217064,15.71563339233398,-0.07136391103268,0.56629770994186,9.83083915710449,1.23840975761414,0.13310436904430,-0.34712409973145
519,1887292511,3.18651199340820,0.34256613254547,15.71607208251953,-0.06039860472083,0.54121989011765,9.84729766845703,1.35784912109375,0.11299721151590,-0.28265309333801
520,1887300844,3.18650412559509,0.34288585186005,15.71583175659180,-0.07323779165745,0.56165558099747,9.85433006286621,1.28738415241241,0.10966735333204,-0.37788680195808
521,1887309177,3.18652892112732,0.34343037009239,15.71525764465332,-0.05451879277825,0.55481749773026,9.85432243347168,1.28956139087677,0.13612684607506,-0.40485858917236
522,1887317510,3.18622946739197,0.34328165650368,15.71504306793213,-0.02848262153566,0.53667777776718,9.86055850982666,1.25067913532257,0.05270129442215,-0.38764584064484
523,1887325843,3.18644642829895,0.34323704242706,15.71549224853516,-0.04882543161511,0.55778574943542,9.86188125610352,1.31271672248840,0.07242424786091,-0.27975866198540
524,1887334176,3.18693614006042,0.34272599220276,15.71630287170410,-0.05597801506519,0.53644180297852,9.84839344024658,1.34588694572449,0.01394695043564,-0.29010683298111
525,1887342509,3.18649768829346,0.34277436137199,15.71625137329102,-0.04415449872613,0.57166951894760,9.85490131378174,1.23428606987000,0.07946816831827,-0.33995211124420
526,1887350842,3.18676018714905,0.34259024262428,15.71698570251465,-0.04324608668685,0.54023277759552,9.86103820800781,1.31719923019409,0.05731185153127,-0.23857101798058
527,1887359175,3.18727731704712,0.34240746498108,15.71625900268555,-0.07014058530331,0.52672111988068,9.86788463592529,1.34834611415863,0.04796265438199,-0.41871586441994
528,1887367508,3.18714761734009,0.34224322438240,15.71480369567871,-0.07298045605421,0.54016125202179,9.87304782867432,1.27191340923309,0.05177918076515,-0.36899867653847
529,1887375841,3.18835616111755,0.34226641058922,15.71454811096191,-0.05941866710782,0.57079684734344,9.85532283782959,1.43218159675598,0.07467830926180,-0.36338916420937
530,1887384174,3.18839764595032,0.34280693531036,15.71487522125244,-0.06877446174622,0.55652701854706,9.85104656219482,1.29020178318024,0.14153145253658,-0.28083446621895
531,1887392507,3.18768095970154,0.34284916520119,15.71482086181641,-0.05880352109671,0.55116230249405,9.87518596649170,1.20144844055176,0.07941693067551,-0.33879950642586
532,1887400840,3.18707156181335,0.34279638528824,15.71454048156738,-0.07680007815361,0.54945278167725,9.87010765075684,1.21341025829315,0.06302382051945,-0.40260449051857
533,1887409173,3.18719339370728,0.34330585598946,15.71495056152344,-0.07443963736296,0.54280066490173,9.85141754150391,1.30054986476898,0.13853457570076,-0.28723803162575
534,1887417506,3.18749856948853,0.34390273690224,15.71530246734619,-0.05926845595241,0.55813634395599,9.85216140747070,1.32475543022156,0.14250478148460,-0.38062754273415
535,1887425839,3.18762469291687,0.34301340579987,15.71495056152344,-0.04299590364099,0.54944556951523,9.83919906616211,1.30177938938141,-0.03555255755782,-0.36963900923729
536,1887434172,3.18721461296082,0.34332177042961,15.71468734741211,-0.04562798514962,0.55440253019333,9.86601638793945,1.23764145374298,0.10725961625576,-0.39061707258224
537,1887442505,3.18674635887146,0.34360402822495,15.71436882019043,-0.06030561774969,0.55162727832794,9.86512279510498,1.23110985755920,0.10700346529484,-0.37330189347267
538,1887450838,3.18700551986694,0.34384077787399,15.71376514434814,-0.06839548796415,0.54523974657059,9.85323429107666,1.31896662712097,0.09890936315060,-0.38833740353584
539,1887459171,3.18655681610107,0.34454587101936,15.71286392211914,-0.06439704447985,0.54353737831116,9.88235378265381,1.23310768604279,0.15331400930882,-0.44532907009125
540,1887467504,3.18633055686951,0.34408542513847,15.71337604522705,-0.07122085988522,0.55118376016617,9.88828277587891,1.26033568382263,0.01819891482592,-0.31446596980095
541,1887475837,3.18553924560547,0.34475901722908,15.71339321136475,-0.06288064271212,0.54189223051071,9.84020137786865,1.19104909896851,0.15510700643063,-0.33623808622360
542,1887484170,3.18551635742188,0.34408450126648,15.71353721618652,-0.06170058995485,0.54793632030487,9.84410572052002,1.28415679931641,-0.00986148044467,-0.38070437312126
543,1887492503,3.18590784072876,0.34265294671059,15.71382236480713,-0.06999772042036,0.55574011802673,9.86816215515137,1.33389961719513,-0.09577161818743,-0.29041418433189
544,1887500836,3.18627285957336,0.34248962998390,15.71451663970947,-0.06770881265402,0.54093372821808,9.86112403869629,1.33115899562836,0.05352094769478,-0.34909638762474
545,1887509169,3.18695044517517,0.34303256869316,15.71505641937256,-0.05156496912241,0.56297874450684,9.86688041687012,1.36676275730133,0.14304269850254,-0.27325266599655
546,1887517502,3.18687605857849,0.34347468614578,15.71599864959717,-0.07350274920464,0.54903787374496,9.87755966186523,1.27857291698456,0.12775099277496,-0.30194059014320
547,1887525835,3.18653368949890,0.34355175495148,15.71614742279053,-0.06471892446280,0.55081182718277,9.85666751861572,1.24540257453918,0.08515452593565,-0.31482458114624
548,1887534168,3.18585968017578,0.34334945678711,15.71570396423340,-0.04936176910996,0.56158399581909,9.85132408142090,1.20554673671722,0.04796265438199,-0.34866094589233
549,1887542501,3.18549489974976,0.34312114119530,15.71480178833008,-0.06574197113514,0.53498256206512,9.82489490509033,1.24343013763428,0.04158471152186,-0.43979638814926
550,1887550834,3.18517780303955,0.34242171049118,15.71461296081543,-0.05095685273409,0.56528204679489,9.83711910247803,1.24978256225586,-0.01764820702374,-0.45257788896561
551,1887559167,3.18538498878479,0.34235870838165,15.71462821960449,-0.06506926566362,0.52860945463181,9.84702014923096,1.31174337863922,0.06691718846560,-0.32983452081680
552,1887567500,3.18556857109070,0.34260377287865,15.71454048156738,-0.06320252269506,0.56406605243683,9.85410690307617,1.30843913555145,0.10351993143559,-0.31277543306351
553,1887575833,3.18506145477295,0.34178704023361,15.71417903900146,-0.07345969974995,0.56854373216629,9.82365036010742,1.22616612911224,-0.02528124675155,-0.37199553847313
554,1887584166,3.18512177467346,0.34169349074364,15.71383857727051,-0.05685777589679,0.55273598432541,9.86791324615479,1.29399275779724,0.05836204066873,-0.38577601313591
555,1887592499,3.18494987487793,0.34143948554993,15.71316814422607,-0.05997658893466,0.54287934303284,9.86316204071045,1.26702094078064,0.04071382433176,-0.41162076592445
556,1887600832,3.18530774116516,0.34137827157974,15.71431350708008,-0.05914685875177,0.52958935499191,9.86158180236816,1.32913553714752,0.06799298524857,-0.30496308207512
557,1887609165,3.18524670600891,0.34141898155212,15.71427059173584,-0.05194394662976,0.56164121627808,9.82758426666260,1.27890598773956,0.07721411436796,-0.33772370219231
558,1887617498,3.18497967720032,0.34103071689606,15.71473503112793,-0.05772344395518,0.53093409538269,9.84824848175049,1.25495672225952,0.02770179696381,-0.32722187042236
559,1887625831,3.18445086479187,0.34081873297691,15.71433258056641,-0.06152875348926,0.57589685916901,9.85359954833984,1.22337424755096,0.04739914089441,-0.37929555773735
560,1887634164,3.18502402305603,0.34097474813461,15.71521663665771,-0.05554885789752,0.52669966220856,9.86332130432129,1.35592794418335,0.09514407813549,-0.26090657711029
561,1887642497,3.18448925018311,0.34112885594368,15.71603298187256,-0.04703709483147,0.54586923122406,9.83282756805420,1.22101771831512,0.09880690276623,-0.23621445894241
562,1887650830,3.18397927284241,0.34184783697128,15.71689414978027,-0.06003380939364,0.53981792926788,9.85931396484375,1.22580754756927,0.15958948433399,-0.33954232931137
563,1887659163,3.18393564224243,0.34130221605301,15.71691989898682,-0.06522663682699,0.53829443454742,9.86709785461426,1.28077578544617,0.00972060207278,-0.32686322927475
564,1887667496,3.18343400955200,0.34082075953484,15.71720314025879,-0.05107129737735,0.56582564115524,9.83041000366211,1.22703695297241,0.01845505461097,-0.27491757273674
565,1887675829,3.18331503868103,0.34079355001450,15.71750545501709,-0.06536970287561,0.55170601606369,9.82244968414307,1.27155458927155,0.07314144819975,-0.29674091935158
566,1887684162,3.18355464935303,0.34019851684570,15.71644973754883,-0.08167812973261,0.55209225416183,9.85246276855469,1.31668698787689,-0.00361160724424,-0.42007344961166
567,1887692495,3.18352937698364,0.33964857459068,15.71630287170410,-0.06137854605913,0.51889586448669,9.87008666992188,1.28374695777893,0.00861918926239,-0.34638127684593
568,1887700828,3.18367767333984,0.33948987722397,15.71663570404053,-0.06376747786999,0.55704200267792,9.84616184234619,1.30444335937500,0.05820835381746,-0.26999968290329
569,1887709161,3.18466138839722,0.34008276462555,15.71675586700439,-0.06063480302691,0.55333667993546,9.81812667846680,1.40490221977234,0.14616760611534,-0.32250878214836
570,1887717494,3.18463611602783,0.34065920114517,15.71398448944092,-0.04602139070630,0.55312937498093,9.84381389617920,1.28431034088135,0.13794545829296,-0.41725584864616
571,1887725827,3.18568420410156,0.34065049886703,15.71396732330322,-0.05401111766696,0.54820817708969,9.85136699676514,1.41271460056305,0.07275722920895,-0.33480367064476
572,1887734160,3.18498563766479,0.34118467569351,15.71516895294189,-0.05367493256927,0.52840912342072,9.85483646392822,1.20249867439270,0.13661351799965,-0.33559769392014
573,1887742493,3.18487238883972,0.34128317236900,15.71481227874756,-0.04293120279908,0.56659823656082,9.85375785827637,1.27360379695892,0.08512891083956,-0.37573522329330
574,1887750826,3.18298006057739,0.33971911668777,15.72206115722656,-0.05852434039116,0.53841602802277,9.87024497985840,1.22406601905823,0.11909338086843,-0.26382663846016
575,1887759159,3.18283176422119,0.33969506621361,15.72199249267578,-0.05761629715562,0.56633341312408,9.85445594787598,1.26891624927521,0.07098984718323,-0.33990088105202
576,1887767492,3.18286299705505,0.33987528085709,15.72088623046875,-0.06412543356419,0.54998916387558,9.84284687042236,1.29189240932465,0.08927841484547,-0.44327998161316
577,1887775825,3.18293833732605,0.34042790532112,15.72153854370117,-0.05404699221253,0.54857289791107,9.83929920196533,1.29473543167114,0.14429779350758,-0.25903674960136
578,1887784158,3.18249225616455,0.33974936604500,15.72010040283203,-0.04001300409436,0.53777217864990,9.85564517974854,1.23536169528961,-0.01585520990193,-0.48615813255310
579,1887792491,3.18258690834045,0.33991384506226,15.72030735015869,-0.06541990488768,0.55032545328140,9.87301921844482,1.29750168323517,0.09583565592766,-0.30982977151871
580,1887800824,3.18228411674500,0.34076899290085,15.72056865692139,-0.07385285198689,0.55672734975815,9.86154747009277,1.24993610382080,0.17792928218842,-0.30099284648895
581,1887809157,3.18282556533813,0.34079059958458,15.72071361541748,-0.06416800618172,0.55680596828461,9.86739063262939,1.35159909725189,0.07698358595371,-0.31641262769699
582,1887817490,3.18298411369324,0.34107843041420,15.71927547454834,-0.04814578592777,0.55864417552948,9.85992240905762,1.30618500709534,0.10515923798084,-0.40793228149414
583,1887825823,3.18315458297729,0.33970940113068,15.71873760223389,-0.05657183378935,0.53428876399994,9.86211776733398,1.30805492401123,-0.09346634149551,-0.38931074738503
584,1887834156,3.18361115455627,0.33941262960434,15.71988868713379,-0.05796663835645,0.54830831289291,9.85673904418945,1.34248054027557,0.03574466705322,-0.36174988746643
585,1887842489,3.18380379676819,0.33958122134209,15.71951293945312,-0.06004096195102,0.54065477848053,9.85101699829102,1.30938684940338,0.09327422827482,-0.38042256236076
586,1887850822,3.18348193168640,0.33861038088799,15.71881961822510,-0.05987617745996,0.54768610000610,9.82648372650146,1.24806642532349,-0.04239155724645,-0.31403055787086
587,1887859155,3.18328547477722,0.33844193816185,15.71971321105957,-0.04779529571533,0.55137687921524,9.85466480255127,1.26256406307220,0.06056485697627,-0.22525158524513
588,1887867488,3.18323445320129,0.33805516362190,15.71965122222900,-0.03866111487150,0.54024708271027,9.84948635101318,1.28090381622314,0.02703582309186,-0.31764212250710
589,1887875821,3.18299221992493,0.33796858787537,15.72001838684082,-0.06187209114432,0.55339401960373,9.86038017272949,1.25756919384003,0.06730140000582,-0.28787836432457
590,1887884154,3.18301129341125,0.33836153149605,15.71827697753906,-0.07750105112791,0.53035467863083,9.84251213073730,1.28958702087402,0.12314042448997,-0.29225841164589
591,1887892487,3.18305826187134,0.33962479233742,15.71921062469482,-0.07422515004873,0.54185640811920,9.90416145324707,1.29058599472046,0.23182161152363,-0.22873511910439
592,1887900820,3.18303775787354,0.33925378322601,15.71817779541016,-0.06772311776876,0.56390154361725,9.86228275299072,1.28464353084564,0.02775302529335,-0.37010011076927
593,1887909153,3.18324422836304,0.33956551551819,15.71796798706055,-0.08454643934965,0.55534678697586,9.86018848419189,1.31166660785675,0.10979541391134,-0.36011052131653
594,1887917486,3.18295478820801,0.34051033854485,15.71778011322021,-0.06736529618502,0.53290832042694,9.83931446075439,1.25244641304016,0.18118226528168,-0.43398195505142
595,1887925819,3.18316411972046,0.34090024232864,15.71711540222168,-0.07147835940123,0.53518998622894,9.86546611785889,1.31366443634033,0.11668564379215,-0.41623133420944
596,1887934152,3.18214631080627,0.34075385332108,15.71725273132324,-0.06582071632147,0.56650507450104,9.85773181915283,1.16400051116943,0.05708131939173,-0.31566980481148
597,1887942485,3.18226146697998,0.34084218740463,15.71722030639648,-0.05086386576295,0.54502516984940,9.87879180908203,1.30052435398102,0.08436048775911,-0.33836406469345
598,1887950818,3.18199133872986,0.34020063281059,15.71751880645752,-0.04755900055170,0.56449526548386,9.86046695709229,1.25398337841034,-0.00107579783071,-0.29410263895988
599,1887959151,3.18216013908386,0.33968257904053,15.71828746795654,-0.04920429736376,0.53634881973267,9.85176181793213,1.30662059783936,0.01812207140028,-0.23723904788494
600,1887967484,3.18205237388611,0.34040156006813,15.71832847595215,-0.04868210852146,0.53814423084259,9.84561729431152,1.27437222003937,0.15882106125355,-0.33362540602684
601,1887975817,3.18158555030823,0.34086045622826,15.71817779541016,-0.02859706617892,0.52515459060669,9.83434391021729,1.23034131526947,0.12910854816437,-0.35524380207062
602,1887984150,3.18109774589539,0.33971068263054,15.71806144714355,-0.04298858717084,0.53971064090729,9.85989379882812,1.22898375988007,-0.06457348167896,-0.33838963508606
603,1887992483,3.18159198760986,0.34004980325699,15.71794033050537,-0.04213739931583,0.56914454698563,9.85334873199463,1.34627139568329,0.11453404277563,-0.35091501474380
604,1888000816,3.18086433410645,0.33899775147438,15.71754932403564,-0.07162141799927,0.53777933120728,9.84045886993408,1.19950187206268,-0.05473761633039,-0.36928042769432
605,1888009149,3.18123245239258,0.33904036879539,15.71664237976074,-0.07571979612112,0.56393736600876,9.84180545806885,1.33141505718231,0.07344881445169,-0.44269081950188
606,1888017482,3.18031263351440,0.33953768014908,15.71686649322510,-0.07582013309002,0.53822284936905,9.86820507049561,1.17621850967407,0.13346296548843,-0.34238550066948
607,1888025815,3.18033194541931,0.34026497602463,15.71725559234619,-0.07698605209589,0.54662740230560,9.84905719757080,1.28879284858704,0.16417443752289,-0.29143875837326
608,1888034148,3.18012976646423,0.34027203917503,15.71803092956543,-0.07896023243666,0.54123419523239,9.86443519592285,1.26217997074127,0.07360249757767,-0.34901955723763
609,1888042481,3.18032979965210,0.34068688750267,15.71753883361816,-0.09467484802008,0.55057585239410,9.86829948425293,1.31130790710449,0.12037409842014,-0.39535570144653
610,1888050814,3.18107628822327,0.34016761183739,15.71757221221924,-0.08408185094595,0.54997485876083,9.87645149230957,1.37759757041931,0.00851673353463,-0.38375249505043
611,1888059147,3.18062305450439,0.33982735872269,15.71770668029785,-0.05983379855752,0.54350870847702,9.86602210998535,1.23118650913239,0.03479693457484,-0.31551614403725
612,1888067480,3.18078517913818,0.33976721763611,15.71679782867432,-0.05161476507783,0.53149920701981,9.83920860290527,1.30685091018677,0.06576454639435,-0.32827198505402
613,1888075813,3.17963600158691,0.33987781405449,15.71641921997070,-0.04923331737518,0.52871662378311,9.85105895996094,1.14940047264099,0.08551312983036,-0.38001281023026
614,1888084146,3.17964911460876,0.34030747413635,15.71697425842285,-0.06333842128515,0.56918030977249,9.84067344665527,1.28723049163818,0.12613728642464,-0.32215023040771
615,1888092479,3.17924904823303,0.33994582295418,15.71614265441895,-0.03773858398199,0.56642645597458,9.85859966278076,1.24063825607300,0.02552458457649,-0.43190726637840
616,1888100812,3.17982935905457,0.33962306380272,15.71620559692383,-0.05241603404284,0.54686343669891,9.83309936523438,1.35592794418335,0.03343938663602,-0.35450097918510
617,1888109145,3.17952513694763,0.33943238854408,15.71574974060059,-0.04759501665831,0.54006111621857,9.83249092102051,1.25080716609955,0.04898722097278,-0.38677492737770
618,1888117478,3.17956471443176,0.34075963497162,15.71603965759277,-0.06381051242352,0.51220077276230,9.87133121490479,1.29089343547821,0.23594552278519,-0.28508642315865
619,1888125811,3.17930102348328,0.34063392877579,15.71575641632080,-0.07967551797628,0.55835092067719,9.87063694000244,1.25493109226227,0.05633851513267,-0.36682146787643
620,1888134144,3.17922115325928,0.34049785137177,15.71606349945068,-0.05739425122738,0.56285011768341,9.82712078094482,1.27759957313538,0.05546762421727,-0.36251825094223
621,1888142477,3.17952251434326,0.34132474660873,15.71517276763916,-0.07713625580072,0.54378056526184,9.88045787811279,1.32432007789612,0.16783727705479,-0.44540596008301
622,1888150810,3.17949843406677,0.34136578440666,15.71425056457520,-0.08049072325230,0.54508244991302,9.86676120758057,1.28338837623596,0.06991404294968,-0.48426270484924
623,1888159143,3.17951869964600,0.34093475341797,15.71434974670410,-0.08813031762838,0.56080424785614,9.83073711395264,1.28984320163727,0.02342421934009,-0.31833371520042
624,1888167476,3.18011784553528,0.34124282002449,15.71509742736816,-0.06816669553518,0.53531152009964,9.84135913848877,1.35743916034698,0.11758213490248,-0.22981089353561
625,1888175809,3.17973303794861,0.34086069464684,15.71580791473389,-0.05853886529803,0.55085474252701,9.86854171752930,1.24086880683899,0.03387482464314,-0.24653701484203
626,1888184142,3.17958760261536,0.34115675091743,15.71416187286377,-0.04047793895006,0.55679875612259,9.85899925231934,1.26976168155670,0.10323817282915,-0.42145660519600
627,1888192475,3.17954587936401,0.34219726920128,15.71377754211426,-0.06762297451496,0.56652659177780,9.86561584472656,1.28103184700012,0.19726803898811,-0.38641631603241
628,1888200808,3.17973065376282,0.34198510646820,15.71372795104980,-0.05288812145591,0.54931688308716,9.83457946777344,1.30987346172333,0.05062653496861,-0.28710991144180
629,1888209141,3.17946815490723,0.34179356694221,15.71360301971436,-0.03823194652796,0.55733519792557,9.83852100372314,1.25511026382446,0.04937143623829,-0.34748271107674
630,1888217474,3.17907953262329,0.34188821911812,15.71443367004395,-0.04310303181410,0.53531879186630,9.81736278533936,1.23999786376953,0.08269555121660,-0.38229244947433
631,1888225807,3.17832756042480,0.34040859341621,15.71412944793701,-0.04341060295701,0.55771434307098,9.84623908996582,1.19750404357910,-0.10430116206408,-0.35926526784897
632,1888234140,3.17788004875183,0.34006416797638,15.71429157257080,-0.06746561825275,0.54599797725677,9.85023021697998,1.23262095451355,0.03510430827737,-0.27389302849770
633,1888242473,3.17753171920776,0.34034934639931,15.71366310119629,-0.05714406073093,0.55498909950256,9.84596729278564,1.24540245532990,0.10464695096016,-0.40921300649643
634,1888250806,3.17806029319763,0.34021165966988,15.71455478668213,-0.06364588439465,0.54915958642960,9.84987354278564,1.34978055953979,0.06240908056498,-0.23841728270054
635,1888259139,3.17837071418762,0.33938291668892,15.71492290496826,-0.08593425154686,0.54853719472885,9.83662509918213,1.32326984405518,-0.02223315462470,-0.28378009796143
636,1888267472,3.17770385742188,0.33984768390656,15.71681213378906,-0.07149981707335,0.54411673545837,9.86242580413818,1.20777523517609,0.12959520518780,-0.32455796003342
637,1888275805,3.17810559272766,0.34097760915756,15.71712589263916,-0.06497628986835,0.53310143947601,9.85546684265137,1.33374607563019,0.21133026480675,-0.30332380533218
638,1888284138,3.17861819267273,0.34080424904823,15.71665859222412,-0.06867428123951,0.55646979808807,9.86400794982910,1.34878146648407,0.05265005677938,-0.35857361555099
639,1888292471,3.17905259132385,0.34094530344009,15.71657085418701,-0.05429723113775,0.54260033369064,9.85173892974854,1.33879220485687,0.08971387147903,-0.34604832530022
640,1888300804,3.17919015884399,0.34228259325027,15.71677112579346,-0.06162174046040,0.54743570089340,9.85089492797852,1.30359804630280,0.23676520586014,-0.29809847474098
641,1888309137,3.17972612380981,0.34244519472122,15.71683883666992,-0.05382514372468,0.52807295322418,9.83759784698486,1.35070252418518,0.09368406236172,-0.32612043619156
642,1888317470,3.17960858345032,0.34293422102928,15.71706485748291,-0.03502045571804,0.55381596088409,9.84320449829102,1.27283549308777,0.13343736529350,-0.32473728060722
643,1888325803,3.18007326126099,0.34281423687935,15.71667480468750,-0.05511265620589,0.54752153158188,9.88079452514648,1.34196805953979,0.05646658316255,-0.38044822216034
644,1888334136,3.17960453033447,0.34301662445068,15.71714305877686,-0.04959781467915,0.54888057708740,9.87845516204834,1.23139142990112,0.10144517570734,-0.27240738272667
645,1888342469,3.17969965934753,0.34207352995872,15.71716213226318,-0.06099229305983,0.55613356828690,9.87271881103516,1.29803967475891,-0.03724309802055,-0.32594114542007
646,1888350802,3.17897605895996,0.34252735972404,15.71728324890137,-0.07044835388660,0.52970379590988,9.82577419281006,1.19921982288361,0.12798151373863,-0.33570015430450
647,1888359135,3.17912650108337,0.34213498234749,15.71819496154785,-0.06755850464106,0.54615539312363,9.82674121856689,1.30475068092346,0.03305516764522,-0.22169120609760
648,1888367468,3.17894840240479,0.34261491894722,15.71811008453369,-0.07654257118702,0.54264324903488,9.86419963836670,1.26435720920563,0.13146506249905,-0.33808234333992
649,1888375801,3.17916846275330,0.34322011470795,15.71805191040039,-0.08490424603224,0.56787848472595,9.87220382690430,1.31458652019501,0.14568096399307,-0.34422972798347
650,1888384134,3.17863488197327,0.34282329678535,15.71503639221191,-0.05846733972430,0.54087650775909,9.86698246002197,1.22258031368256,0.01955646835268,-0.46956014633179
651,1888392467,3.17863988876343,0.34333461523056,15.71484851837158,-0.06323844194412,0.55008214712143,9.83354091644287,1.28689754009247,0.13356541097164,-0.35980314016342
652,1888400800,3.17882347106934,0.34387740492821,15.71284675598145,-0.06821666657925,0.53875929117203,9.82775592803955,1.31002736091614,0.13041488826275,-0.48692658543587
653,1888409133,3.17948484420776,0.34471815824509,15.71330070495605,-0.05036329850554,0.53390955924988,9.84339046478271,1.36689090728760,0.17823666334152,-0.28298607468605
654,1888417466,3.17987418174744,0.34441968798637,15.71364307403564,-0.06371036916971,0.57018887996674,9.84674644470215,1.33259332180023,0.03651308640838,-0.34548479318619
655,1888425799,3.18017387390137,0.34398111701012,15.71358489990234,-0.08121353387833,0.53402405977249,9.85147380828857,1.32286000251770,0.02275824733078,-0.33833840489388
656,1888434132,3.18022513389587,0.34386700391769,15.71341514587402,-0.06823812425137,0.56198453903198,9.86860561370850,1.29365968704224,0.05823396518826,-0.33867141604424
657,1888442465,3.17977523803711,0.34405136108398,15.71285724639893,-0.05204408615828,0.54181355237961,9.85505867004395,1.23379921913147,0.09378652274609,-0.40191295742989
658,1888450798,3.18010902404785,0.34449329972267,15.71323299407959,-0.06044166162610,0.55443108081818,9.82838439941406,1.32659983634949,0.12764854729176,-0.31490141153336
659,1888459131,3.17997336387634,0.34498700499535,15.71331501007080,-0.07310920953751,0.52792274951935,9.81005954742432,1.26981282234192,0.13374471664429,-0.32604360580444
660,1888467464,3.18039274215698,0.34483346343040,15.71360301971436,-0.05333875119686,0.57367229461670,9.85678958892822,1.33689641952515,0.06445821374655,-0.17676383256912
661,1888475797,3.18078064918518,0.34554591774940,15.71266078948975,-0.05840296298265,0.55837953090668,9.87718200683594,1.33341312408447,0.15310908854008,-0.45147648453712
662,1888484130,3.17986893653870,0.34548202157021,15.71082496643066,-0.06015566736460,0.56158393621445,9.85635852813721,1.17834448814392,0.06632806360722,-0.32150989770889
663,1888492463,3.17956805229187,0.34556493163109,15.71086978912354,-0.06539843976498,0.56795716285706,9.88284015655518,1.25093519687653,0.08492399007082,-0.32775974273682
664,1888500796,3.17915701866150,0.34559363126755,15.71013832092285,-0.04510582610965,0.53438174724579,9.85897827148438,1.23625838756561,0.07805938273668,-0.31887161731720
665,1888509129,3.17923569679260,0.34583589434624,15.71072292327881,-0.06300224363804,0.54726403951645,9.88351917266846,1.29665648937225,0.10677293688059,-0.26597821712494
666,1888517462,3.17968392372131,0.34579294919968,15.71093750000000,-0.07335253804922,0.52328044176102,9.85374832153320,1.33968842029572,0.07011896371841,-0.29540896415710
667,1888525795,3.17963075637817,0.34616521000862,15.71163463592529,-0.08423902839422,0.56319338083267,9.82274913787842,1.27995622158051,0.12454921007156,-0.25273567438126
668,1888534128,3.17913770675659,0.34651800990105,15.71033382415771,-0.05836004391313,0.54492503404617,9.84397888183594,1.22821545600891,0.10946242511272,-0.43636414408684
669,1888542461,3.17953205108643,0.34696114063263,15.71121406555176,-0.05588516220450,0.54942417144775,9.84239101409912,1.33374595642090,0.13338610529900,-0.23119409382343
670,1888550794,3.17925977706909,0.34677791595459,15.71083068847656,-0.06461162865162,0.55842959880829,9.81742000579834,1.25487971305847,0.04688685387373,-0.41315758228302
671,1888559127,3.17925238609314,0.34692007303238,15.71109199523926,-0.06939701735973,0.54025417566299,9.85126590728760,1.28656470775604,0.09429880976677,-0.30386167764664
672,1888567460,3.17883634567261,0.34655746817589,15.71163082122803,-0.04317456111312,0.55918782949448,9.85319137573242,1.23561775684357,0.03105725720525,-0.31139221787453
673,1888575793,3.17895722389221,0.34618094563484,15.71139240264893,-0.06989043205976,0.52288711071014,9.85273361206055,1.30216360092163,0.02752249501646,-0.35867613554001
674,1888584126,3.17870354652405,0.34487107396126,15.71119022369385,-0.06014825776219,0.55156284570694,9.84948635101318,1.25554573535919,-0.08339994400740,-0.33828717470169
675,1888592459,3.17866826057434,0.34460583329201,15.71051788330078,-0.06587035208941,0.52860230207443,9.82290744781494,1.28336286544800,0.03804994747043,-0.41139024496078
676,1888600792,3.17853736877441,0.34511202573776,15.71148395538330,-0.05476236715913,0.53796523809433,9.83862686157227,1.27091431617737,0.13886757194996,-0.23959556221962
677,1888609125,3.17882776260376,0.34482598304749,15.71080112457275,-0.06652124971151,0.55664861202240,9.83973121643066,1.32137429714203,0.03518114984035,-0.41372114419937
678,1888617458,3.17891407012939,0.34511831402779,15.71084880828857,-0.05469063669443,0.54508954286575,9.86110973358154,1.29696404933929,0.11030770838261,-0.31187891960144
679,1888625791,3.17853856086731,0.34502238035202,15.71044635772705,-0.06762979924679,0.55902338027954,9.84224128723145,1.24199581146240,0.06069292873144,-0.38144719600677
680,1888634124,3.17847871780396,0.34521201252937,15.70996284484863,-0.06197223067284,0.52215039730072,9.85158920288086,1.27990496158600,0.09309493750334,-0.37696471810341
681,1888642457,3.17795228958130,0.34494188427925,15.71079826354980,-0.05701531097293,0.56432354450226,9.86466407775879,1.22281062602997,0.04786019772291,-0.23201373219490
682,1888650790,3.17781066894531,0.34433063864708,15.71105098724365,-0.07114217430353,0.54430276155472,9.87386322021484,1.27099120616913,-0.00379090709612,-0.39189782738686
683,1888659123,3.17797446250916,0.34479475021362,15.71172332763672,-0.07442533224821,0.53728580474854,9.83154010772705,1.30526292324066,0.13471806049347,-0.25609111785889
684,1888667456,3.17762255668640,0.34544417262077,15.71068477630615,-0.06923256814480,0.55190616846085,9.85543823242188,1.24489009380341,0.14601394534111,-0.44842839241028
685,1888675789,3.17769432067871,0.34560871124268,15.71109485626221,-0.06669297814369,0.55289340019226,9.86561012268066,1.29570889472961,0.09645041078329,-0.28480473160744
686,1888684122,3.17726778984070,0.34544411301613,15.71068191528320,-0.05476249381900,0.55712771415710,9.85326194763184,1.23607897758484,0.05149741843343,-0.39010483026505
687,1888692455,3.17758250236511,0.34465515613556,15.71107769012451,-0.06420391798019,0.53326588869095,9.84362125396729,1.32342350482941,-0.01844224892557,-0.28155168890953
688,1888700788,3.17754030227661,0.34492981433868,15.71173667907715,-0.05261618643999,0.55690610408783,9.85671901702881,1.28302979469299,0.10935997217894,-0.29761177301407
689,1888709121,3.17780947685242,0.34450891613960,15.71220016479492,-0.08823031932116,0.53366643190384,9.83070278167725,1.31822371482849,0.02662599459291,-0.27525058388710
690,1888717454,3.17825889587402,0.34480026364326,15.71253299713135,-0.04567818716168,0.55986726284027,9.85221004486084,1.33984220027924,0.11115296930075,-0.29517841339111
691,1888725787,3.17843461036682,0.34515938162804,15.71188735961914,-0.03361836075783,0.53908115625381,9.86174583435059,1.30884885787964,0.11253613233566,-0.41287583112717
692,1888734120,3.17883944511414,0.34540572762489,15.71359825134277,-0.06232987344265,0.53179240226746,9.87030792236328,1.33530831336975,0.11163963377476,-0.17048834264278
693,1888742453,3.17887210845947,0.34531351923943,15.71370410919189,-0.05385375395417,0.56516045331955,9.86892795562744,1.29022729396820,0.06479120254517,-0.31999862194061
694,1888750786,3.17873215675354,0.34521269798279,15.71445178985596,-0.06574892997742,0.51342391967773,9.84221172332764,1.26981282234192,0.06737825274467,-0.22220347821712
695,1888759119,3.17785882949829,0.34438464045525,15.71513843536377,-0.06288779526949,0.55814349651337,9.85823440551758,1.18103396892548,-0.02023524418473,-0.24681876599789
696,1888767452,3.17802906036377,0.34385433793068,15.71499538421631,-0.07080598920584,0.53535455465317,9.83986568450928,1.30708146095276,0.01082201395184,-0.32686322927475
697,1888775785,3.17809271812439,0.34413510560989,15.71476650238037,-0.06416116654873,0.53647029399872,9.86594390869141,1.29463303089142,0.10610696673393,-0.36205723881721
698,1888784118,3.17749953269958,0.34395802021027,15.71510982513428,-0.06861722469330,0.54666316509247,9.88457775115967,1.21576690673828,0.05280374363065,-0.30906134843826
699,1888792451,3.17809867858887,0.34415513277054,15.71577167510986,-0.08241505920887,0.55710631608963,9.84904289245605,1.35708057880402,0.10252096503973,-0.25501531362534
